"success","timeout","failed_images","failed_audio","failed_video","trial_type","trial_index","time_elapsed","internal_node_id","subject_id","rt","stimulus","response","part","slider_start","ID","set_ID","prob","amount","last_location","actual_choice","actual_EV","binary_id","trinary_id","catch","direction","A_key","S_key","D_key","choice_prob","choice_amount","chosen_part","won_prize","potential_prize_amount","potential_prize_prob","total_prize","accuracy"
"true","false","[]","[]","[]","preload","0","200","0.0-0.0","73196fa0-37a7-4c4f-80ca-6a3adc5e3062","","","","","","","","","","","","","","","","","","","","","","","","","","",""
"","","","","","html-keyboard-response","1","1075647","0.0-1.0","73196fa0-37a7-4c4f-80ca-6a3adc5e3062","null","
          <h1>שלום וברוכים הבאים!</h1>
          <p>לפניכם ניסוי בקבלת החלטות עם שני חלקים.
          <br><br>לחצו על העכבר כדי להמשיך.</p>","0","example","","","","","","","","","","","","","","","","","","","","","","",""
"","","","","","html-keyboard-response","2","1093551","0.0-2.0","73196fa0-37a7-4c4f-80ca-6a3adc5e3062","null","
        <h1>חלק 1</h1>
        <p>בקרוב יוצגו בפניכם הגרלות.
        <br>עליכם לבחור את המחיר המירבי שתהיו מוכנים לשלם כדי להשתתף בהגרלה שתוצג.
        <br>יש לכם תקציב של ₪80 לכל הגרלה. 
        <br>נסו להעריך כל הגרלה בנפרד ולחשוב כמה היא שווה עבורכם, ₪80 זמינים לכל הגרלה בנפרד.
        <br><br>לחצו על העכבר כדי להמשיך.</p>","1","instructions","","","","","","","","","","","","","","","","","","","","","","",""
"","","","","","html-keyboard-response","3","1095846","0.0-3.0","73196fa0-37a7-4c4f-80ca-6a3adc5e3062","null","
        <p>בסוף הניסוי, המחשב יבחר את אחת ההגרלות ויקבע מחיר לכרטיס עבורה. 
        <br>במידה והמחיר שבחרתם נמוך מהמחיר שנבחר על ידי המחשב, לא תשתתפו בהגרלה ותשארו עם מלוא התקציב.
        <br>במידה והמחיר שבחרתם גבוה מהמחיר שנבחר על ידי המחשב, תשלמו את המחיר שנקבע ותשתתפו בהגרלה.
        <br><br>לחצו על העכבר כדי להמשיך.</p>","1","instructions","","","","","","","","","","","","","","","","","","","","","","",""
"","","","","","html-slider-response","4","1132511","0.0-4.0","73196fa0-37a7-4c4f-80ca-6a3adc5e3062","36548","
        <p style=""font-size: 42px;"">נתחיל עם דוגמא: 
        <br>ההגרלה מטה מציעה 65% סיכוי לזכות ב-₪40 
        <br>&emsp;&emsp;&emsp;&emsp;&emsp;&emsp;&emsp;&emsp;&ensp;35% סיכוי לזכות ב-₪0.
        <br><br>מה המחיר המירבי שתהיו מוכנים לשלם על כרטיס להגרלה זו בין 0 ל-₪80?
        <br>הזיזו את העכבר על פני המלבן ולחצו כדי לבצע בחירה.</p>
        
        <p style=""text-align: center;"">₪40<br>65%</p>

        <p id=""wtp"" style=""text-align:center; margin-top: 0px; margin-bottom: 0px; font-size: 40px"";>מוכנים לשלם: <span id=""c_p_y""></span></p>","24","example","64","","","","","","","","","","","","","","","","","","","","","",""
"","","","","","html-keyboard-response","5","1142278","0.0-5.0","73196fa0-37a7-4c4f-80ca-6a3adc5e3062","null","<p>יפה מאוד!
                <br> בחרתם שתהיו מוכנים לשלם ₪24 כדי להשתתף בהגרלה:
                <br><p style=""text-align: center;"">₪40<br>65%</p>
                <p>נשמע נכון?
                <br>נניח שהגרלה זו נבחרה בסוף הניסוי.
                <br>כעת המחשב יקבע מחיר עבורה באקראי.
                <br>לחצו על העכבר להמשך.</p>","1","example","","","","","","","","","","","","","","","","","","","","","","",""
"","","","","","html-keyboard-response","6","1151686","0.0-6.0","73196fa0-37a7-4c4f-80ca-6a3adc5e3062","null","<p>המחשב קבע מחיר: ₪29
                <br>ואתם בחרתם לשלם לכל היותר: ₪24
                <br><br>מכיוון שהמחיר שבחרתם נמוך מהמחיר שנקבע, לא תתשתתפו בהגרלה.
                <br>במקרה כזה, בסוף הניסוי תקבלו את כל התקציב ההתחלתי של ₪80.
                <br><br>לחצו על העכבר להמשך.</p>","1","example","","","","","","","","","","","","","","","","","","","","","","",""
"","","","","","html-slider-response","7","1172535","0.0-7.0","73196fa0-37a7-4c4f-80ca-6a3adc5e3062","20591","<p style=""font-size: 42px;"">הנה עוד דוגמא:
                <br>ההגרלה מטה מציעה 35% סיכוי לזכות ב-₪18 
                <br>&emsp;&emsp;&emsp;&emsp;&emsp;&emsp;&emsp;&emsp;&ensp;65% סיכוי לזכות ב-₪0.</p>
        
                <p style=""text-align: center;"">₪18<br>35%</p>
                <p id=""wtp"" style=""text-align:center; margin-top: 0px; margin-bottom: 0px; font-size: 40px"";>מוכנים לשלם: <span id=""c_p_y""></span></p>","2","example","9","","","","","","","","","","","","","","","","","","","","","",""
"","","","","","html-keyboard-response","8","1173678","0.0-8.0","73196fa0-37a7-4c4f-80ca-6a3adc5e3062","null","<p>הייתם מוכנים לשלם  ₪2 כדי להשתתף בהגרלה:
                <p style=""text-align: center;"">₪18<br>35%</p>
                <p>כעת נניח שהמחשב בחר את ההגרלה הזו בסוף הניסוי, וקבע עבורה מחיר.
                <br><br>לחצו על העכבר כדי להמשיך.</p>","1","instructions","","","","","","","","","","","","","","","","","","","","","","",""
"","","","","","html-keyboard-response","9","1182790","0.0-9.0","73196fa0-37a7-4c4f-80ca-6a3adc5e3062","null","<p>המחשב קבע מחיר להגרלה: ₪2
                <br>ואתם בחרתם לשלם לכל היותר: ₪2
                <br><br>כעת המחיר שנקבע זהה לזה שבחרתם, אז תשלמו את המחיר שקבע המחשב (₪2) ותשתתפו בהגרלה.
                <br>במקרה כזה, תסיימו את הניסוי עם תקציב של ₪78 ועם סיכוי לזכות ב-₪18 נוספים מההגרלה.
                <br>כלומר, תוכלו לקבל ₪78 אם לא תזכו בהגרלה, או ₪96 אם תזכו בהגרלה.
                <br><br>לחצו על העכבר להמשך.</p>","1","example","","","","","","","","","","","","","","","","","","","","","","",""
"","","","","","html-keyboard-response","10","1189886","0.0-10.0","73196fa0-37a7-4c4f-80ca-6a3adc5e3062","null","<p>במהלך הניסוי, קודם תראו את ההגרלה ורק לאחר מכן תוכלו לבחור.
                <p>כמו כן, יהיו לכם מספר שניות מוגבל להגיב.
                <p>בואו ננסה זאת עם ההגרלה הקודמת.
                <br>לחצו על העכבר כדי להמשיך.</p>","1","instructions","","","","","","","","","","","","","","","","","","","","","","",""
"","","","","","html-slider-response","11","1191162","0.0-11.0","73196fa0-37a7-4c4f-80ca-6a3adc5e3062","1000","
                    <p style=""text-align: center;"">₪18<br>35%</p>
                    <p id=""wtp"" style=""text-align:center; margin-top: 0px; margin-bottom: 0px; font-size: 40px"";>&ensp;</p>","64","instructions","0","","","","","","","","","","","","","","","","","","","","","",""
"","","","","","html-slider-response","12","1195438","0.0-12.0","73196fa0-37a7-4c4f-80ca-6a3adc5e3062","null","
                    <p style=""text-align: center;"">₪18<br>35%</p>
                    <p id=""wtp"" style=""text-align:center; margin-top: 0px; margin-bottom: 0px; font-size: 40px"";>מוכנים לשלם: <span id=""c_p_y""></span></p>","null","instructions","15","","","","","","","","","","","","","","","","","","","","","",""
"","","","","","html-keyboard-response","13","1198550","0.0-13.0","73196fa0-37a7-4c4f-80ca-6a3adc5e3062","null","<p>לא הגבתם בזמן המוקצב לתגובה. 
                <br>נסו להגיב מהר יותר בפעם הבאה.
                <br><br>לחצו על העכבר כדי להמשיך.</p>","1","instructions","","","","","","","","","","","","","","","","","","","","","","",""
"","","","","","html-slider-response","14","1202623","0.0-14.0-0.0","73196fa0-37a7-4c4f-80ca-6a3adc5e3062","3815","
                    <p style=""text-align: center;"">₪40<br>65%</p>
                    <p id=""wtp"" style=""text-align:center; margin-top: 0px; margin-bottom: 0px; font-size: 40px"";>מוכנים לשלם: <span id=""c_p_y""></span></p>","24","instructions","10","","","","","","","","","","","","","","","","","","","","","",""
"","","","","","html-keyboard-response","15","1204886","0.0-14.0-1.0","73196fa0-37a7-4c4f-80ca-6a3adc5e3062","null","<p>יפה. הפעם בחרתם לשלם לכל היותר ₪24.
                <br><br>לחצו על העכבר כדי להמשיך.</p>","1","instructions","","","","","","","","","","","","","","","","","","","","","","",""
"","","","","","html-keyboard-response","16","1209318","0.0-15.0","73196fa0-37a7-4c4f-80ca-6a3adc5e3062","null","<p>כעת נתחיל את הניסוי.
                <br><br>אתם תראו הגרלות ותתבקשו לבחור כמה תהיו מוכנים לשלם כדי להשתתף בהן.
                <br>יש לכם תקציב של ₪80 עבור כל הגרלה.
                <br>בסוף הניסוי הגרלה אחת תבחר באקראי ותשוחק.
                <br><br>לחצו על העכבר כדי להתחיל את הניסוי.</p>","1","instructions","","","","","","","","","","","","","","","","","","","","","","",""
"","","","","","html-keyboard-response","17","1210583","0.0-16.0","73196fa0-37a7-4c4f-80ca-6a3adc5e3062","null","<p style=""text-align: center;"">+</p>","null","fixation","","","","","","","","","","","","","","","","","","","","","","",""
"","","","","","html-slider-response","18","1211587","0.0-17.0-0.0","73196fa0-37a7-4c4f-80ca-6a3adc5e3062","1000","
                  <p style=""text-align: center;"">₪71
                                                <br>75%</p>
                  <p id=""wtp"" style=""text-align:center; margin-top: 0px; margin-bottom: 0px; font-size: 40px"";>&ensp;</p>","-","viewing","0","28","8B","","","","","","","","","","","","","","","","","","","",""
"","","","","","html-slider-response","19","1215597","0.0-17.0-1.0","73196fa0-37a7-4c4f-80ca-6a3adc5e3062","null","
                  <p style=""text-align: center;"">₪71
                                                <br>75%</p>
                  <p id=""wtp"" style=""text-align:center; margin-top: 0px; margin-bottom: 0px; font-size: 40px"";>מוכנים לשלם: <span id=""c_p_y""></span></p>","null","evaluation","49","28","8B","75","71","45","","","","","","","","","","","","","","","","",""
"","","","","","html-keyboard-response","20","1216510","0.0-17.0-2.0","73196fa0-37a7-4c4f-80ca-6a3adc5e3062","null","<p style=""text-align: center;"">+</p>","null","fixation","","","","","","","","","","","","","","","","","","","","","","",""
"","","","","","html-slider-response","21","1217522","0.0-17.0-0.1","73196fa0-37a7-4c4f-80ca-6a3adc5e3062","1000","
                  <p style=""text-align: center;"">₪36
                                                <br>75%</p>
                  <p id=""wtp"" style=""text-align:center; margin-top: 0px; margin-bottom: 0px; font-size: 40px"";>&ensp;</p>","-","viewing","0","14","4B,5A,13B,16B","","","","","","","","","","","","","","","","","","","",""
"","","","","","html-slider-response","22","1221071","0.0-17.0-1.1","73196fa0-37a7-4c4f-80ca-6a3adc5e3062","3548","
                  <p style=""text-align: center;"">₪36
                                                <br>75%</p>
                  <p id=""wtp"" style=""text-align:center; margin-top: 0px; margin-bottom: 0px; font-size: 40px"";>מוכנים לשלם: <span id=""c_p_y""></span></p>","23","evaluation","63","14","4B,5A,13B,16B","75","36","24","","","","","","","","","","","","","","","","",""
"","","","","","html-keyboard-response","23","1222017","0.0-17.0-2.1","73196fa0-37a7-4c4f-80ca-6a3adc5e3062","null","<p style=""text-align: center;"">+</p>","null","fixation","","","","","","","","","","","","","","","","","","","","","","",""
"","","","","","html-slider-response","24","1223028","0.0-17.0-0.2","73196fa0-37a7-4c4f-80ca-6a3adc5e3062","1000","
                  <p style=""text-align: center;"">₪71
                                                <br>55%</p>
                  <p id=""wtp"" style=""text-align:center; margin-top: 0px; margin-bottom: 0px; font-size: 40px"";>&ensp;</p>","-","viewing","0","27","5B,18A","","","","","","","","","","","","","","","","","","","",""
"","","","","","html-slider-response","25","1225270","0.0-17.0-1.2","73196fa0-37a7-4c4f-80ca-6a3adc5e3062","2242","
                  <p style=""text-align: center;"">₪71
                                                <br>55%</p>
                  <p id=""wtp"" style=""text-align:center; margin-top: 0px; margin-bottom: 0px; font-size: 40px"";>מוכנים לשלם: <span id=""c_p_y""></span></p>","32","evaluation","27","27","5B,18A","55","71","32","","","","","","","","","","","","","","","","",""
"","","","","","html-keyboard-response","26","1226109","0.0-17.0-2.2","73196fa0-37a7-4c4f-80ca-6a3adc5e3062","null","<p style=""text-align: center;"">+</p>","null","fixation","","","","","","","","","","","","","","","","","","","","","","",""
"","","","","","html-slider-response","27","1227112","0.0-17.0-0.3","73196fa0-37a7-4c4f-80ca-6a3adc5e3062","1000","
                  <p style=""text-align: center;"">₪39
                                                <br>60%</p>
                  <p id=""wtp"" style=""text-align:center; margin-top: 0px; margin-bottom: 0px; font-size: 40px"";>&ensp;</p>","-","viewing","0","15","9C,25B","","","","","","","","","","","","","","","","","","","",""
"","","","","","html-slider-response","28","1229639","0.0-17.0-1.3","73196fa0-37a7-4c4f-80ca-6a3adc5e3062","2525","
                  <p style=""text-align: center;"">₪39
                                                <br>60%</p>
                  <p id=""wtp"" style=""text-align:center; margin-top: 0px; margin-bottom: 0px; font-size: 40px"";>מוכנים לשלם: <span id=""c_p_y""></span></p>","25","evaluation","57","15","9C,25B","60","39","25","","","","","","","","","","","","","","","","",""
"","","","","","html-keyboard-response","29","1230292","0.0-17.0-2.3","73196fa0-37a7-4c4f-80ca-6a3adc5e3062","null","<p style=""text-align: center;"">+</p>","null","fixation","","","","","","","","","","","","","","","","","","","","","","",""
"","","","","","html-slider-response","30","1231302","0.0-17.0-0.4","73196fa0-37a7-4c4f-80ca-6a3adc5e3062","1000","
                  <p style=""text-align: center;"">₪64
                                                <br>50%</p>
                  <p id=""wtp"" style=""text-align:center; margin-top: 0px; margin-bottom: 0px; font-size: 40px"";>&ensp;</p>","-","viewing","0","25","1B,3B,4A","","","","","","","","","","","","","","","","","","","",""
"","","","","","html-slider-response","31","1235271","0.0-17.0-1.4","73196fa0-37a7-4c4f-80ca-6a3adc5e3062","3968","
                  <p style=""text-align: center;"">₪64
                                                <br>50%</p>
                  <p id=""wtp"" style=""text-align:center; margin-top: 0px; margin-bottom: 0px; font-size: 40px"";>מוכנים לשלם: <span id=""c_p_y""></span></p>","29","evaluation","51","25","1B,3B,4A","50","64","29","","","","","","","","","","","","","","","","",""
"","","","","","html-keyboard-response","32","1236323","0.0-17.0-2.4","73196fa0-37a7-4c4f-80ca-6a3adc5e3062","null","<p style=""text-align: center;"">+</p>","null","fixation","","","","","","","","","","","","","","","","","","","","","","",""
"","","","","","html-slider-response","33","1237334","0.0-17.0-0.5","73196fa0-37a7-4c4f-80ca-6a3adc5e3062","1000","
                  <p style=""text-align: center;"">₪64
                                                <br>25%</p>
                  <p id=""wtp"" style=""text-align:center; margin-top: 0px; margin-bottom: 0px; font-size: 40px"";>&ensp;</p>","-","viewing","0","24","6A,21A","","","","","","","","","","","","","","","","","","","",""
"","","","","","html-slider-response","34","1240119","0.0-17.0-1.5","73196fa0-37a7-4c4f-80ca-6a3adc5e3062","2784","
                  <p style=""text-align: center;"">₪64
                                                <br>25%</p>
                  <p id=""wtp"" style=""text-align:center; margin-top: 0px; margin-bottom: 0px; font-size: 40px"";>מוכנים לשלם: <span id=""c_p_y""></span></p>","8","evaluation","30","24","6A,21A","25","64","8","","","","","","","","","","","","","","","","",""
"","","","","","html-keyboard-response","35","1241082","0.0-17.0-2.5","73196fa0-37a7-4c4f-80ca-6a3adc5e3062","null","<p style=""text-align: center;"">+</p>","null","fixation","","","","","","","","","","","","","","","","","","","","","","",""
"","","","","","html-slider-response","36","1242098","0.0-17.0-0.6","73196fa0-37a7-4c4f-80ca-6a3adc5e3062","1000","
                  <p style=""text-align: center;"">₪4
                                                <br>50%</p>
                  <p id=""wtp"" style=""text-align:center; margin-top: 0px; margin-bottom: 0px; font-size: 40px"";>&ensp;</p>","-","viewing","0","2","4C,17B","","","","","","","","","","","","","","","","","","","",""
"","","","","","html-slider-response","37","1245486","0.0-17.0-1.6","73196fa0-37a7-4c4f-80ca-6a3adc5e3062","3387","
                  <p style=""text-align: center;"">₪4
                                                <br>50%</p>
                  <p id=""wtp"" style=""text-align:center; margin-top: 0px; margin-bottom: 0px; font-size: 40px"";>מוכנים לשלם: <span id=""c_p_y""></span></p>","0","evaluation","46","2","4C,17B","50","4","0","","","","","","","","","","","","","","","","",""
"","","","","","html-keyboard-response","38","1246157","0.0-17.0-2.6","73196fa0-37a7-4c4f-80ca-6a3adc5e3062","null","<p style=""text-align: center;"">+</p>","null","fixation","","","","","","","","","","","","","","","","","","","","","","",""
"","","","","","html-slider-response","39","1247163","0.0-17.0-0.7","73196fa0-37a7-4c4f-80ca-6a3adc5e3062","1000","
                  <p style=""text-align: center;"">₪36
                                                <br>70%</p>
                  <p id=""wtp"" style=""text-align:center; margin-top: 0px; margin-bottom: 0px; font-size: 40px"";>&ensp;</p>","-","viewing","0","13","3A,5C,10B","","","","","","","","","","","","","","","","","","","",""
"","","","","","html-slider-response","40","1250470","0.0-17.0-1.7","73196fa0-37a7-4c4f-80ca-6a3adc5e3062","3306","
                  <p style=""text-align: center;"">₪36
                                                <br>70%</p>
                  <p id=""wtp"" style=""text-align:center; margin-top: 0px; margin-bottom: 0px; font-size: 40px"";>מוכנים לשלם: <span id=""c_p_y""></span></p>","20","evaluation","14","13","3A,5C,10B","70","36","20","","","","","","","","","","","","","","","","",""
"","","","","","html-keyboard-response","41","1251817","0.0-17.0-2.7","73196fa0-37a7-4c4f-80ca-6a3adc5e3062","null","<p style=""text-align: center;"">+</p>","null","fixation","","","","","","","","","","","","","","","","","","","","","","",""
"","","","","","html-slider-response","42","1252819","0.0-17.0-0.8","73196fa0-37a7-4c4f-80ca-6a3adc5e3062","1000","
                  <p style=""text-align: center;"">₪36
                                                <br>60%</p>
                  <p id=""wtp"" style=""text-align:center; margin-top: 0px; margin-bottom: 0px; font-size: 40px"";>&ensp;</p>","-","viewing","0","12","1C,7C,15C","","","","","","","","","","","","","","","","","","","",""
"","","","","","html-slider-response","43","1256823","0.0-17.0-1.8","73196fa0-37a7-4c4f-80ca-6a3adc5e3062","null","
                  <p style=""text-align: center;"">₪36
                                                <br>60%</p>
                  <p id=""wtp"" style=""text-align:center; margin-top: 0px; margin-bottom: 0px; font-size: 40px"";>מוכנים לשלם: <span id=""c_p_y""></span></p>","null","evaluation","23","12","1C,7C,15C","60","36","23","","","","","","","","","","","","","","","","",""
"","","","","","html-keyboard-response","44","1257797","0.0-17.0-2.8","73196fa0-37a7-4c4f-80ca-6a3adc5e3062","null","<p style=""text-align: center;"">+</p>","null","fixation","","","","","","","","","","","","","","","","","","","","","","",""
"","","","","","html-slider-response","45","1258803","0.0-17.0-0.9","73196fa0-37a7-4c4f-80ca-6a3adc5e3062","1000","
                  <p style=""text-align: center;"">₪16
                                                <br>20%</p>
                  <p id=""wtp"" style=""text-align:center; margin-top: 0px; margin-bottom: 0px; font-size: 40px"";>&ensp;</p>","-","viewing","0","8","14C,17A,20C,27A","","","","","","","","","","","","","","","","","","","",""
"","","","","","html-slider-response","46","1260502","0.0-17.0-1.9","73196fa0-37a7-4c4f-80ca-6a3adc5e3062","1699","
                  <p style=""text-align: center;"">₪16
                                                <br>20%</p>
                  <p id=""wtp"" style=""text-align:center; margin-top: 0px; margin-bottom: 0px; font-size: 40px"";>מוכנים לשלם: <span id=""c_p_y""></span></p>","3","evaluation","36","8","14C,17A,20C,27A","20","16","4","","","","","","","","","","","","","","","","",""
"","","","","","html-keyboard-response","47","1261126","0.0-17.0-2.9","73196fa0-37a7-4c4f-80ca-6a3adc5e3062","null","<p style=""text-align: center;"">+</p>","null","fixation","","","","","","","","","","","","","","","","","","","","","","",""
"","","","","","html-slider-response","48","1262128","0.0-17.0-0.10","73196fa0-37a7-4c4f-80ca-6a3adc5e3062","1000","
                  <p style=""text-align: center;"">₪61
                                                <br>55%</p>
                  <p id=""wtp"" style=""text-align:center; margin-top: 0px; margin-bottom: 0px; font-size: 40px"";>&ensp;</p>","-","viewing","0","23","7B,26B","","","","","","","","","","","","","","","","","","","",""
"","","","","","html-slider-response","49","1265390","0.0-17.0-1.10","73196fa0-37a7-4c4f-80ca-6a3adc5e3062","3262","
                  <p style=""text-align: center;"">₪61
                                                <br>55%</p>
                  <p id=""wtp"" style=""text-align:center; margin-top: 0px; margin-bottom: 0px; font-size: 40px"";>מוכנים לשלם: <span id=""c_p_y""></span></p>","26","evaluation","52","23","7B,26B","55","61","26","","","","","","","","","","","","","","","","",""
"","","","","","html-keyboard-response","50","1266330","0.0-17.0-2.10","73196fa0-37a7-4c4f-80ca-6a3adc5e3062","null","<p style=""text-align: center;"">+</p>","null","fixation","","","","","","","","","","","","","","","","","","","","","","",""
"","","","","","html-slider-response","51","1267338","0.0-17.0-0.11","73196fa0-37a7-4c4f-80ca-6a3adc5e3062","1000","
                  <p style=""text-align: center;"">₪18
                                                <br>50%</p>
                  <p id=""wtp"" style=""text-align:center; margin-top: 0px; margin-bottom: 0px; font-size: 40px"";>&ensp;</p>","-","viewing","0","10","2C,16C,22B,28A","","","","","","","","","","","","","","","","","","","",""
"","","","","","html-slider-response","52","1270310","0.0-17.0-1.11","73196fa0-37a7-4c4f-80ca-6a3adc5e3062","2971","
                  <p style=""text-align: center;"">₪18
                                                <br>50%</p>
                  <p id=""wtp"" style=""text-align:center; margin-top: 0px; margin-bottom: 0px; font-size: 40px"";>מוכנים לשלם: <span id=""c_p_y""></span></p>","9","evaluation","22","10","2C,16C,22B,28A","50","18","10","","","","","","","","","","","","","","","","",""
"","","","","","html-keyboard-response","53","1271076","0.0-17.0-2.11","73196fa0-37a7-4c4f-80ca-6a3adc5e3062","null","<p style=""text-align: center;"">+</p>","null","fixation","","","","","","","","","","","","","","","","","","","","","","",""
"","","","","","html-slider-response","54","1272087","0.0-17.0-0.12","73196fa0-37a7-4c4f-80ca-6a3adc5e3062","1000","
                  <p style=""text-align: center;"">₪58
                                                <br>45%</p>
                  <p id=""wtp"" style=""text-align:center; margin-top: 0px; margin-bottom: 0px; font-size: 40px"";>&ensp;</p>","-","viewing","0","21","11C,18C,25A","","","","","","","","","","","","","","","","","","","",""
"","","","","","html-slider-response","55","1274206","0.0-17.0-1.12","73196fa0-37a7-4c4f-80ca-6a3adc5e3062","2118","
                  <p style=""text-align: center;"">₪58
                                                <br>45%</p>
                  <p id=""wtp"" style=""text-align:center; margin-top: 0px; margin-bottom: 0px; font-size: 40px"";>מוכנים לשלם: <span id=""c_p_y""></span></p>","20","evaluation","7","21","11C,18C,25A","45","58","20","","","","","","","","","","","","","","","","",""
"","","","","","html-keyboard-response","56","1275119","0.0-17.0-2.12","73196fa0-37a7-4c4f-80ca-6a3adc5e3062","null","<p style=""text-align: center;"">+</p>","null","fixation","","","","","","","","","","","","","","","","","","","","","","",""
"","","","","","html-slider-response","57","1276125","0.0-17.0-0.13","73196fa0-37a7-4c4f-80ca-6a3adc5e3062","1000","
                  <p style=""text-align: center;"">₪39
                                                <br>65%</p>
                  <p id=""wtp"" style=""text-align:center; margin-top: 0px; margin-bottom: 0px; font-size: 40px"";>&ensp;</p>","-","viewing","0","16","1A,15A,26C","","","","","","","","","","","","","","","","","","","",""
"","","","","","html-slider-response","58","1278102","0.0-17.0-1.13","73196fa0-37a7-4c4f-80ca-6a3adc5e3062","1976","
                  <p style=""text-align: center;"">₪39
                                                <br>65%</p>
                  <p id=""wtp"" style=""text-align:center; margin-top: 0px; margin-bottom: 0px; font-size: 40px"";>מוכנים לשלם: <span id=""c_p_y""></span></p>","16","evaluation","30","16","1A,15A,26C","65","39","17","","","","","","","","","","","","","","","","",""
"","","","","","html-keyboard-response","59","1279084","0.0-17.0-2.13","73196fa0-37a7-4c4f-80ca-6a3adc5e3062","null","<p style=""text-align: center;"">+</p>","null","fixation","","","","","","","","","","","","","","","","","","","","","","",""
"","","","","","html-slider-response","60","1280101","0.0-17.0-0.14","73196fa0-37a7-4c4f-80ca-6a3adc5e3062","1000","
                  <p style=""text-align: center;"">₪11
                                                <br>25%</p>
                  <p id=""wtp"" style=""text-align:center; margin-top: 0px; margin-bottom: 0px; font-size: 40px"";>&ensp;</p>","-","viewing","0","5","12A,27B,28B,30B","","","","","","","","","","","","","","","","","","","",""
"","","","","","html-slider-response","61","1284111","0.0-17.0-1.14","73196fa0-37a7-4c4f-80ca-6a3adc5e3062","null","
                  <p style=""text-align: center;"">₪11
                                                <br>25%</p>
                  <p id=""wtp"" style=""text-align:center; margin-top: 0px; margin-bottom: 0px; font-size: 40px"";>מוכנים לשלם: <span id=""c_p_y""></span></p>","null","evaluation","37","5","12A,27B,28B,30B","25","11","1","","","","","","","","","","","","","","","","",""
"","","","","","html-keyboard-response","62","1285204","0.0-17.0-2.14","73196fa0-37a7-4c4f-80ca-6a3adc5e3062","null","<p style=""text-align: center;"">+</p>","null","fixation","","","","","","","","","","","","","","","","","","","","","","",""
"","","","","","html-slider-response","63","1286208","0.0-17.0-0.15","73196fa0-37a7-4c4f-80ca-6a3adc5e3062","1000","
                  <p style=""text-align: center;"">₪11
                                                <br>45%</p>
                  <p id=""wtp"" style=""text-align:center; margin-top: 0px; margin-bottom: 0px; font-size: 40px"";>&ensp;</p>","-","viewing","0","6","14B,21C,25C","","","","","","","","","","","","","","","","","","","",""
"","","","","","html-slider-response","64","1289446","0.0-17.0-1.15","73196fa0-37a7-4c4f-80ca-6a3adc5e3062","3237","
                  <p style=""text-align: center;"">₪11
                                                <br>45%</p>
                  <p id=""wtp"" style=""text-align:center; margin-top: 0px; margin-bottom: 0px; font-size: 40px"";>מוכנים לשלם: <span id=""c_p_y""></span></p>","7","evaluation","12","6","14B,21C,25C","45","11","7","","","","","","","","","","","","","","","","",""
"","","","","","html-keyboard-response","65","1290446","0.0-17.0-2.15","73196fa0-37a7-4c4f-80ca-6a3adc5e3062","null","<p style=""text-align: center;"">+</p>","null","fixation","","","","","","","","","","","","","","","","","","","","","","",""
"","","","","","html-slider-response","66","1291463","0.0-17.0-0.16","73196fa0-37a7-4c4f-80ca-6a3adc5e3062","1000","
                  <p style=""text-align: center;"">₪61
                                                <br>45%</p>
                  <p id=""wtp"" style=""text-align:center; margin-top: 0px; margin-bottom: 0px; font-size: 40px"";>&ensp;</p>","-","viewing","0","22","10A,11A","","","","","","","","","","","","","","","","","","","",""
"","","","","","html-slider-response","67","1295198","0.0-17.0-1.16","73196fa0-37a7-4c4f-80ca-6a3adc5e3062","3734","
                  <p style=""text-align: center;"">₪61
                                                <br>45%</p>
                  <p id=""wtp"" style=""text-align:center; margin-top: 0px; margin-bottom: 0px; font-size: 40px"";>מוכנים לשלם: <span id=""c_p_y""></span></p>","17","evaluation","13","22","10A,11A","45","61","18","","","","","","","","","","","","","","","","",""
"","","","","","html-keyboard-response","68","1296529","0.0-17.0-2.16","73196fa0-37a7-4c4f-80ca-6a3adc5e3062","null","<p style=""text-align: center;"">+</p>","null","fixation","","","","","","","","","","","","","","","","","","","","","","",""
"","","","","","html-slider-response","69","1297536","0.0-17.0-0.17","73196fa0-37a7-4c4f-80ca-6a3adc5e3062","1000","
                  <p style=""text-align: center;"">₪58
                                                <br>40%</p>
                  <p id=""wtp"" style=""text-align:center; margin-top: 0px; margin-bottom: 0px; font-size: 40px"";>&ensp;</p>","-","viewing","0","20","10C,13A,19C,21B","","","","","","","","","","","","","","","","","","","",""
"","","","","","html-slider-response","70","1299494","0.0-17.0-1.17","73196fa0-37a7-4c4f-80ca-6a3adc5e3062","1957","
                  <p style=""text-align: center;"">₪58
                                                <br>40%</p>
                  <p id=""wtp"" style=""text-align:center; margin-top: 0px; margin-bottom: 0px; font-size: 40px"";>מוכנים לשלם: <span id=""c_p_y""></span></p>","23","evaluation","65","20","10C,13A,19C,21B","40","58","23","","","","","","","","","","","","","","","","",""
"","","","","","html-keyboard-response","71","1300162","0.0-17.0-2.17","73196fa0-37a7-4c4f-80ca-6a3adc5e3062","null","<p style=""text-align: center;"">+</p>","null","fixation","","","","","","","","","","","","","","","","","","","","","","",""
"","","","","","html-slider-response","72","1301173","0.0-17.0-0.18","73196fa0-37a7-4c4f-80ca-6a3adc5e3062","1000","
                  <p style=""text-align: center;"">₪4
                                                <br>75%</p>
                  <p id=""wtp"" style=""text-align:center; margin-top: 0px; margin-bottom: 0px; font-size: 40px"";>&ensp;</p>","-","viewing","0","3","12B,20B,23B,27C,29C","","","","","","","","","","","","","","","","","","","",""
"","","","","","html-slider-response","73","1303246","0.0-17.0-1.18","73196fa0-37a7-4c4f-80ca-6a3adc5e3062","2072","
                  <p style=""text-align: center;"">₪4
                                                <br>75%</p>
                  <p id=""wtp"" style=""text-align:center; margin-top: 0px; margin-bottom: 0px; font-size: 40px"";>מוכנים לשלם: <span id=""c_p_y""></span></p>","5","evaluation","68","3","12B,20B,23B,27C,29C","75","4","5","","","","","","","","","","","","","","","","",""
"","","","","","html-keyboard-response","74","1303837","0.0-17.0-2.18","73196fa0-37a7-4c4f-80ca-6a3adc5e3062","null","<p style=""text-align: center;"">+</p>","null","fixation","","","","","","","","","","","","","","","","","","","","","","",""
"","","","","","html-slider-response","75","1304843","0.0-17.0-0.19","73196fa0-37a7-4c4f-80ca-6a3adc5e3062","1000","
                  <p style=""text-align: center;"">₪4
                                                <br>25%</p>
                  <p id=""wtp"" style=""text-align:center; margin-top: 0px; margin-bottom: 0px; font-size: 40px"";>&ensp;</p>","-","viewing","0","1","6C,29B,30C","","","","","","","","","","","","","","","","","","","",""
"","","","","","html-slider-response","76","1308310","0.0-17.0-1.19","73196fa0-37a7-4c4f-80ca-6a3adc5e3062","3466","
                  <p style=""text-align: center;"">₪4
                                                <br>25%</p>
                  <p id=""wtp"" style=""text-align:center; margin-top: 0px; margin-bottom: 0px; font-size: 40px"";>מוכנים לשלם: <span id=""c_p_y""></span></p>","0","evaluation","24","1","6C,29B,30C","25","4","0","","","","","","","","","","","","","","","","",""
"","","","","","html-keyboard-response","77","1309221","0.0-17.0-2.19","73196fa0-37a7-4c4f-80ca-6a3adc5e3062","null","<p style=""text-align: center;"">+</p>","null","fixation","","","","","","","","","","","","","","","","","","","","","","",""
"","","","","","html-slider-response","78","1310228","0.0-17.0-0.20","73196fa0-37a7-4c4f-80ca-6a3adc5e3062","1000","
                  <p style=""text-align: center;"">₪43
                                                <br>60%</p>
                  <p id=""wtp"" style=""text-align:center; margin-top: 0px; margin-bottom: 0px; font-size: 40px"";>&ensp;</p>","-","viewing","0","17","2A,7A,9A,15B","","","","","","","","","","","","","","","","","","","",""
"","","","","","html-slider-response","79","1313358","0.0-17.0-1.20","73196fa0-37a7-4c4f-80ca-6a3adc5e3062","3130","
                  <p style=""text-align: center;"">₪43
                                                <br>60%</p>
                  <p id=""wtp"" style=""text-align:center; margin-top: 0px; margin-bottom: 0px; font-size: 40px"";>מוכנים לשלם: <span id=""c_p_y""></span></p>","30","evaluation","76","17","2A,7A,9A,15B","60","43","30","","","","","","","","","","","","","","","","",""
"","","","","","html-keyboard-response","80","1314504","0.0-17.0-2.20","73196fa0-37a7-4c4f-80ca-6a3adc5e3062","null","<p style=""text-align: center;"">+</p>","null","fixation","","","","","","","","","","","","","","","","","","","","","","",""
"","","","","","html-slider-response","81","1315517","0.0-17.0-0.21","73196fa0-37a7-4c4f-80ca-6a3adc5e3062","1000","
                  <p style=""text-align: center;"">₪43
                                                <br>75%</p>
                  <p id=""wtp"" style=""text-align:center; margin-top: 0px; margin-bottom: 0px; font-size: 40px"";>&ensp;</p>","-","viewing","0","18","11B,19B,24A,26A","","","","","","","","","","","","","","","","","","","",""
"","","","","","html-slider-response","82","1317294","0.0-17.0-1.21","73196fa0-37a7-4c4f-80ca-6a3adc5e3062","1775","
                  <p style=""text-align: center;"">₪43
                                                <br>75%</p>
                  <p id=""wtp"" style=""text-align:center; margin-top: 0px; margin-bottom: 0px; font-size: 40px"";>מוכנים לשלם: <span id=""c_p_y""></span></p>","39","evaluation","80","18","11B,19B,24A,26A","75","43","39","","","","","","","","","","","","","","","","",""
"","","","","","html-keyboard-response","83","1318353","0.0-17.0-2.21","73196fa0-37a7-4c4f-80ca-6a3adc5e3062","null","<p style=""text-align: center;"">+</p>","null","fixation","","","","","","","","","","","","","","","","","","","","","","",""
"","","","","","html-slider-response","84","1319355","0.0-17.0-0.22","73196fa0-37a7-4c4f-80ca-6a3adc5e3062","1000","
                  <p style=""text-align: center;"">₪58
                                                <br>30%</p>
                  <p id=""wtp"" style=""text-align:center; margin-top: 0px; margin-bottom: 0px; font-size: 40px"";>&ensp;</p>","-","viewing","0","19","13C,30A","","","","","","","","","","","","","","","","","","","",""
"","","","","","html-slider-response","85","1321270","0.0-17.0-1.22","73196fa0-37a7-4c4f-80ca-6a3adc5e3062","1914","
                  <p style=""text-align: center;"">₪58
                                                <br>30%</p>
                  <p id=""wtp"" style=""text-align:center; margin-top: 0px; margin-bottom: 0px; font-size: 40px"";>מוכנים לשלם: <span id=""c_p_y""></span></p>","13","evaluation","27","19","13C,30A","30","58","13","","","","","","","","","","","","","","","","",""
"","","","","","html-keyboard-response","86","1322370","0.0-17.0-2.22","73196fa0-37a7-4c4f-80ca-6a3adc5e3062","null","<p style=""text-align: center;"">+</p>","null","fixation","","","","","","","","","","","","","","","","","","","","","","",""
"","","","","","html-slider-response","87","1323378","0.0-17.0-0.23","73196fa0-37a7-4c4f-80ca-6a3adc5e3062","1000","
                  <p style=""text-align: center;"">₪79
                                                <br>40%</p>
                  <p id=""wtp"" style=""text-align:center; margin-top: 0px; margin-bottom: 0px; font-size: 40px"";>&ensp;</p>","-","viewing","0","30","9B","","","","","","","","","","","","","","","","","","","",""
"","","","","","html-slider-response","88","1326158","0.0-17.0-1.23","73196fa0-37a7-4c4f-80ca-6a3adc5e3062","2780","
                  <p style=""text-align: center;"">₪79
                                                <br>40%</p>
                  <p id=""wtp"" style=""text-align:center; margin-top: 0px; margin-bottom: 0px; font-size: 40px"";>מוכנים לשלם: <span id=""c_p_y""></span></p>","30","evaluation","61","30","9B","40","79","30","","","","","","","","","","","","","","","","",""
"","","","","","html-keyboard-response","89","1326884","0.0-17.0-2.23","73196fa0-37a7-4c4f-80ca-6a3adc5e3062","null","<p style=""text-align: center;"">+</p>","null","fixation","","","","","","","","","","","","","","","","","","","","","","",""
"","","","","","html-slider-response","90","1327898","0.0-17.0-0.24","73196fa0-37a7-4c4f-80ca-6a3adc5e3062","1000","
                  <p style=""text-align: center;"">₪36
                                                <br>30%</p>
                  <p id=""wtp"" style=""text-align:center; margin-top: 0px; margin-bottom: 0px; font-size: 40px"";>&ensp;</p>","-","viewing","0","11","3C,20A,22A","","","","","","","","","","","","","","","","","","","",""
"","","","","","html-slider-response","91","1330238","0.0-17.0-1.24","73196fa0-37a7-4c4f-80ca-6a3adc5e3062","2339","
                  <p style=""text-align: center;"">₪36
                                                <br>30%</p>
                  <p id=""wtp"" style=""text-align:center; margin-top: 0px; margin-bottom: 0px; font-size: 40px"";>מוכנים לשלם: <span id=""c_p_y""></span></p>","13","evaluation","51","11","3C,20A,22A","30","36","13","","","","","","","","","","","","","","","","",""
"","","","","","html-keyboard-response","92","1331378","0.0-17.0-2.24","73196fa0-37a7-4c4f-80ca-6a3adc5e3062","null","<p style=""text-align: center;"">+</p>","null","fixation","","","","","","","","","","","","","","","","","","","","","","",""
"","","","","","html-slider-response","93","1332381","0.0-17.0-0.25","73196fa0-37a7-4c4f-80ca-6a3adc5e3062","1000","
                  <p style=""text-align: center;"">₪18
                                                <br>25%</p>
                  <p id=""wtp"" style=""text-align:center; margin-top: 0px; margin-bottom: 0px; font-size: 40px"";>&ensp;</p>","-","viewing","0","9","14A,23A","","","","","","","","","","","","","","","","","","","",""
"","","","","","html-slider-response","94","1334270","0.0-17.0-1.25","73196fa0-37a7-4c4f-80ca-6a3adc5e3062","1889","
                  <p style=""text-align: center;"">₪18
                                                <br>25%</p>
                  <p id=""wtp"" style=""text-align:center; margin-top: 0px; margin-bottom: 0px; font-size: 40px"";>מוכנים לשלם: <span id=""c_p_y""></span></p>","5","evaluation","78","9","14A,23A","25","18","5","","","","","","","","","","","","","","","","",""
"","","","","","html-keyboard-response","95","1335633","0.0-17.0-2.25","73196fa0-37a7-4c4f-80ca-6a3adc5e3062","null","<p style=""text-align: center;"">+</p>","null","fixation","","","","","","","","","","","","","","","","","","","","","","",""
"","","","","","html-slider-response","96","1336641","0.0-17.0-0.26","73196fa0-37a7-4c4f-80ca-6a3adc5e3062","1000","
                  <p style=""text-align: center;"">₪79
                                                <br>65%</p>
                  <p id=""wtp"" style=""text-align:center; margin-top: 0px; margin-bottom: 0px; font-size: 40px"";>&ensp;</p>","-","viewing","0","31","8A","","","","","","","","","","","","","","","","","","","",""
"","","","","","html-slider-response","97","1339542","0.0-17.0-1.26","73196fa0-37a7-4c4f-80ca-6a3adc5e3062","2900","
                  <p style=""text-align: center;"">₪79
                                                <br>65%</p>
                  <p id=""wtp"" style=""text-align:center; margin-top: 0px; margin-bottom: 0px; font-size: 40px"";>מוכנים לשלם: <span id=""c_p_y""></span></p>","47","evaluation","52","31","8A","65","79","47","","","","","","","","","","","","","","","","",""
"","","","","","html-keyboard-response","98","1340264","0.0-17.0-2.26","73196fa0-37a7-4c4f-80ca-6a3adc5e3062","null","<p style=""text-align: center;"">+</p>","null","fixation","","","","","","","","","","","","","","","","","","","","","","",""
"","","","","","html-slider-response","99","1341269","0.0-17.0-0.27","73196fa0-37a7-4c4f-80ca-6a3adc5e3062","1000","
                  <p style=""text-align: center;"">₪76
                                                <br>65%</p>
                  <p id=""wtp"" style=""text-align:center; margin-top: 0px; margin-bottom: 0px; font-size: 40px"";>&ensp;</p>","-","viewing","0","29","8C,19A,24B","","","","","","","","","","","","","","","","","","","",""
"","","","","","html-slider-response","100","1343862","0.0-17.0-1.27","73196fa0-37a7-4c4f-80ca-6a3adc5e3062","2593","
                  <p style=""text-align: center;"">₪76
                                                <br>65%</p>
                  <p id=""wtp"" style=""text-align:center; margin-top: 0px; margin-bottom: 0px; font-size: 40px"";>מוכנים לשלם: <span id=""c_p_y""></span></p>","46","evaluation","47","29","8C,19A,24B","65","76","46","","","","","","","","","","","","","","","","",""
"","","","","","html-keyboard-response","101","1344476","0.0-17.0-2.27","73196fa0-37a7-4c4f-80ca-6a3adc5e3062","null","<p style=""text-align: center;"">+</p>","null","fixation","","","","","","","","","","","","","","","","","","","","","","",""
"","","","","","html-slider-response","102","1345483","0.0-17.0-0.28","73196fa0-37a7-4c4f-80ca-6a3adc5e3062","1000","
                  <p style=""text-align: center;"">₪11
                                                <br>20%</p>
                  <p id=""wtp"" style=""text-align:center; margin-top: 0px; margin-bottom: 0px; font-size: 40px"";>&ensp;</p>","-","viewing","0","4","12C,17C,23C,28C","","","","","","","","","","","","","","","","","","","",""
"","","","","","html-slider-response","103","1349390","0.0-17.0-1.28","73196fa0-37a7-4c4f-80ca-6a3adc5e3062","3906","
                  <p style=""text-align: center;"">₪11
                                                <br>20%</p>
                  <p id=""wtp"" style=""text-align:center; margin-top: 0px; margin-bottom: 0px; font-size: 40px"";>מוכנים לשלם: <span id=""c_p_y""></span></p>","5","evaluation","30","4","12C,17C,23C,28C","20","11","5","","","","","","","","","","","","","","","","",""
"","","","","","html-keyboard-response","104","1350644","0.0-17.0-2.28","73196fa0-37a7-4c4f-80ca-6a3adc5e3062","null","<p style=""text-align: center;"">+</p>","null","fixation","","","","","","","","","","","","","","","","","","","","","","",""
"","","","","","html-slider-response","105","1351656","0.0-17.0-0.29","73196fa0-37a7-4c4f-80ca-6a3adc5e3062","1000","
                  <p style=""text-align: center;"">₪71
                                                <br>45%</p>
                  <p id=""wtp"" style=""text-align:center; margin-top: 0px; margin-bottom: 0px; font-size: 40px"";>&ensp;</p>","-","viewing","0","26","2B,16A","","","","","","","","","","","","","","","","","","","",""
"","","","","","html-slider-response","106","1355286","0.0-17.0-1.29","73196fa0-37a7-4c4f-80ca-6a3adc5e3062","3629","
                  <p style=""text-align: center;"">₪71
                                                <br>45%</p>
                  <p id=""wtp"" style=""text-align:center; margin-top: 0px; margin-bottom: 0px; font-size: 40px"";>מוכנים לשלם: <span id=""c_p_y""></span></p>","31","evaluation","59","26","2B,16A","45","71","31","","","","","","","","","","","","","","","","",""
"","","","","","html-keyboard-response","107","1356513","0.0-17.0-2.29","73196fa0-37a7-4c4f-80ca-6a3adc5e3062","null","<p style=""text-align: center;"">+</p>","null","fixation","","","","","","","","","","","","","","","","","","","","","","",""
"","","","","","html-slider-response","108","1357528","0.0-17.0-0.30","73196fa0-37a7-4c4f-80ca-6a3adc5e3062","1000","
                  <p style=""text-align: center;"">₪11
                                                <br>75%</p>
                  <p id=""wtp"" style=""text-align:center; margin-top: 0px; margin-bottom: 0px; font-size: 40px"";>&ensp;</p>","-","viewing","0","7","6B,18B,22C,24C,29A","","","","","","","","","","","","","","","","","","","",""
"","","","","","html-slider-response","109","1360758","0.0-17.0-1.30","73196fa0-37a7-4c4f-80ca-6a3adc5e3062","3230","
                  <p style=""text-align: center;"">₪11
                                                <br>75%</p>
                  <p id=""wtp"" style=""text-align:center; margin-top: 0px; margin-bottom: 0px; font-size: 40px"";>מוכנים לשלם: <span id=""c_p_y""></span></p>","13","evaluation","0","7","6B,18B,22C,24C,29A","75","11","14","","","","","","","","","","","","","","","","",""
"","","","","","html-keyboard-response","110","1361922","0.0-17.0-2.30","73196fa0-37a7-4c4f-80ca-6a3adc5e3062","null","<p style=""text-align: center;"">+</p>","null","fixation","","","","","","","","","","","","","","","","","","","","","","",""
"","","","","","html-keyboard-response","111","1362934","0.0-18.0","73196fa0-37a7-4c4f-80ca-6a3adc5e3062","null","<p style=""text-align: center;"">+</p>","null","fixation","","","","","","","","","","","","","","","","","","","","","","",""
"","","","","","html-keyboard-response","112","1364614","0.0-19.0","73196fa0-37a7-4c4f-80ca-6a3adc5e3062","null","<p>הפסקה.
          <br>לחצו כדי להמשיך.</p>","1","scan_wait","","","","","","","","","","","","","","","","","","","","","","",""
"","","","","","html-keyboard-response","113","1365620","0.0-20.0","73196fa0-37a7-4c4f-80ca-6a3adc5e3062","null","<p style=""text-align: center;"">+</p>","null","fixation","","","","","","","","","","","","","","","","","","","","","","",""
"","","","","","html-slider-response","114","1366628","0.0-21.0-0.0","73196fa0-37a7-4c4f-80ca-6a3adc5e3062","1000","
                  <p style=""text-align: center;"">₪39
                                                <br>60%</p>
                  <p id=""wtp"" style=""text-align:center; margin-top: 0px; margin-bottom: 0px; font-size: 40px"";>&ensp;</p>","-","viewing","0","15","9C,25B","","","","","","","","","","","","","","","","","","","",""
"","","","","","html-slider-response","115","1367950","0.0-21.0-1.0","73196fa0-37a7-4c4f-80ca-6a3adc5e3062","1321","
                  <p style=""text-align: center;"">₪39
                                                <br>60%</p>
                  <p id=""wtp"" style=""text-align:center; margin-top: 0px; margin-bottom: 0px; font-size: 40px"";>מוכנים לשלם: <span id=""c_p_y""></span></p>","25","evaluation","68","15","9C,25B","60","39","25","","","","","","","","","","","","","","","","",""
"","","","","","html-keyboard-response","116","1368842","0.0-21.0-2.0","73196fa0-37a7-4c4f-80ca-6a3adc5e3062","null","<p style=""text-align: center;"">+</p>","null","fixation","","","","","","","","","","","","","","","","","","","","","","",""
"","","","","","html-slider-response","117","1369845","0.0-21.0-0.1","73196fa0-37a7-4c4f-80ca-6a3adc5e3062","1000","
                  <p style=""text-align: center;"">₪58
                                                <br>40%</p>
                  <p id=""wtp"" style=""text-align:center; margin-top: 0px; margin-bottom: 0px; font-size: 40px"";>&ensp;</p>","-","viewing","0","20","10C,13A,19C,21B","","","","","","","","","","","","","","","","","","","",""
"","","","","","html-slider-response","118","1372438","0.0-21.0-1.1","73196fa0-37a7-4c4f-80ca-6a3adc5e3062","2592","
                  <p style=""text-align: center;"">₪58
                                                <br>40%</p>
                  <p id=""wtp"" style=""text-align:center; margin-top: 0px; margin-bottom: 0px; font-size: 40px"";>מוכנים לשלם: <span id=""c_p_y""></span></p>","23","evaluation","15","20","10C,13A,19C,21B","40","58","23","","","","","","","","","","","","","","","","",""
"","","","","","html-keyboard-response","119","1373538","0.0-21.0-2.1","73196fa0-37a7-4c4f-80ca-6a3adc5e3062","null","<p style=""text-align: center;"">+</p>","null","fixation","","","","","","","","","","","","","","","","","","","","","","",""
"","","","","","html-slider-response","120","1374543","0.0-21.0-0.2","73196fa0-37a7-4c4f-80ca-6a3adc5e3062","1000","
                  <p style=""text-align: center;"">₪4
                                                <br>50%</p>
                  <p id=""wtp"" style=""text-align:center; margin-top: 0px; margin-bottom: 0px; font-size: 40px"";>&ensp;</p>","-","viewing","0","2","4C,17B","","","","","","","","","","","","","","","","","","","",""
"","","","","","html-slider-response","121","1376454","0.0-21.0-1.2","73196fa0-37a7-4c4f-80ca-6a3adc5e3062","1910","
                  <p style=""text-align: center;"">₪4
                                                <br>50%</p>
                  <p id=""wtp"" style=""text-align:center; margin-top: 0px; margin-bottom: 0px; font-size: 40px"";>מוכנים לשלם: <span id=""c_p_y""></span></p>","4","evaluation","38","2","4C,17B","50","4","5","","","","","","","","","","","","","","","","",""
"","","","","","html-keyboard-response","122","1377247","0.0-21.0-2.2","73196fa0-37a7-4c4f-80ca-6a3adc5e3062","null","<p style=""text-align: center;"">+</p>","null","fixation","","","","","","","","","","","","","","","","","","","","","","",""
"","","","","","html-slider-response","123","1378250","0.0-21.0-0.3","73196fa0-37a7-4c4f-80ca-6a3adc5e3062","1000","
                  <p style=""text-align: center;"">₪16
                                                <br>20%</p>
                  <p id=""wtp"" style=""text-align:center; margin-top: 0px; margin-bottom: 0px; font-size: 40px"";>&ensp;</p>","-","viewing","0","8","14C,17A,20C,27A","","","","","","","","","","","","","","","","","","","",""
"","","","","","html-slider-response","124","1382142","0.0-21.0-1.3","73196fa0-37a7-4c4f-80ca-6a3adc5e3062","3891","
                  <p style=""text-align: center;"">₪16
                                                <br>20%</p>
                  <p id=""wtp"" style=""text-align:center; margin-top: 0px; margin-bottom: 0px; font-size: 40px"";>מוכנים לשלם: <span id=""c_p_y""></span></p>","0","evaluation","34","8","14C,17A,20C,27A","20","16","0","","","","","","","","","","","","","","","","",""
"","","","","","html-keyboard-response","125","1383607","0.0-21.0-2.3","73196fa0-37a7-4c4f-80ca-6a3adc5e3062","null","<p style=""text-align: center;"">+</p>","null","fixation","","","","","","","","","","","","","","","","","","","","","","",""
"","","","","","html-slider-response","126","1384622","0.0-21.0-0.4","73196fa0-37a7-4c4f-80ca-6a3adc5e3062","1000","
                  <p style=""text-align: center;"">₪36
                                                <br>30%</p>
                  <p id=""wtp"" style=""text-align:center; margin-top: 0px; margin-bottom: 0px; font-size: 40px"";>&ensp;</p>","-","viewing","0","11","3C,20A,22A","","","","","","","","","","","","","","","","","","","",""
"","","","","","html-slider-response","127","1387726","0.0-21.0-1.4","73196fa0-37a7-4c4f-80ca-6a3adc5e3062","3104","
                  <p style=""text-align: center;"">₪36
                                                <br>30%</p>
                  <p id=""wtp"" style=""text-align:center; margin-top: 0px; margin-bottom: 0px; font-size: 40px"";>מוכנים לשלם: <span id=""c_p_y""></span></p>","6","evaluation","49","11","3C,20A,22A","30","36","6","","","","","","","","","","","","","","","","",""
"","","","","","html-keyboard-response","128","1388478","0.0-21.0-2.4","73196fa0-37a7-4c4f-80ca-6a3adc5e3062","null","<p style=""text-align: center;"">+</p>","null","fixation","","","","","","","","","","","","","","","","","","","","","","",""
"","","","","","html-slider-response","129","1389494","0.0-21.0-0.5","73196fa0-37a7-4c4f-80ca-6a3adc5e3062","1000","
                  <p style=""text-align: center;"">₪76
                                                <br>65%</p>
                  <p id=""wtp"" style=""text-align:center; margin-top: 0px; margin-bottom: 0px; font-size: 40px"";>&ensp;</p>","-","viewing","0","29","8C,19A,24B","","","","","","","","","","","","","","","","","","","",""
"","","","","","html-slider-response","130","1392214","0.0-21.0-1.5","73196fa0-37a7-4c4f-80ca-6a3adc5e3062","2719","
                  <p style=""text-align: center;"">₪76
                                                <br>65%</p>
                  <p id=""wtp"" style=""text-align:center; margin-top: 0px; margin-bottom: 0px; font-size: 40px"";>מוכנים לשלם: <span id=""c_p_y""></span></p>","47","evaluation","29","29","8C,19A,24B","65","76","47","","","","","","","","","","","","","","","","",""
"","","","","","html-keyboard-response","131","1393061","0.0-21.0-2.5","73196fa0-37a7-4c4f-80ca-6a3adc5e3062","null","<p style=""text-align: center;"">+</p>","null","fixation","","","","","","","","","","","","","","","","","","","","","","",""
"","","","","","html-slider-response","132","1394066","0.0-21.0-0.6","73196fa0-37a7-4c4f-80ca-6a3adc5e3062","1000","
                  <p style=""text-align: center;"">₪11
                                                <br>75%</p>
                  <p id=""wtp"" style=""text-align:center; margin-top: 0px; margin-bottom: 0px; font-size: 40px"";>&ensp;</p>","-","viewing","0","7","6B,18B,22C,24C,29A","","","","","","","","","","","","","","","","","","","",""
"","","","","","html-slider-response","133","1397646","0.0-21.0-1.6","73196fa0-37a7-4c4f-80ca-6a3adc5e3062","3579","
                  <p style=""text-align: center;"">₪11
                                                <br>75%</p>
                  <p id=""wtp"" style=""text-align:center; margin-top: 0px; margin-bottom: 0px; font-size: 40px"";>מוכנים לשלם: <span id=""c_p_y""></span></p>","9","evaluation","77","7","6B,18B,22C,24C,29A","75","11","9","","","","","","","","","","","","","","","","",""
"","","","","","html-keyboard-response","134","1398981","0.0-21.0-2.6","73196fa0-37a7-4c4f-80ca-6a3adc5e3062","null","<p style=""text-align: center;"">+</p>","null","fixation","","","","","","","","","","","","","","","","","","","","","","",""
"","","","","","html-slider-response","135","1399988","0.0-21.0-0.7","73196fa0-37a7-4c4f-80ca-6a3adc5e3062","1000","
                  <p style=""text-align: center;"">₪18
                                                <br>50%</p>
                  <p id=""wtp"" style=""text-align:center; margin-top: 0px; margin-bottom: 0px; font-size: 40px"";>&ensp;</p>","-","viewing","0","10","2C,16C,22B,28A","","","","","","","","","","","","","","","","","","","",""
"","","","","","html-slider-response","136","1403999","0.0-21.0-1.7","73196fa0-37a7-4c4f-80ca-6a3adc5e3062","null","
                  <p style=""text-align: center;"">₪18
                                                <br>50%</p>
                  <p id=""wtp"" style=""text-align:center; margin-top: 0px; margin-bottom: 0px; font-size: 40px"";>מוכנים לשלם: <span id=""c_p_y""></span></p>","null","evaluation","37","10","2C,16C,22B,28A","50","18","8","","","","","","","","","","","","","","","","",""
"","","","","","html-keyboard-response","137","1404823","0.0-21.0-2.7","73196fa0-37a7-4c4f-80ca-6a3adc5e3062","null","<p style=""text-align: center;"">+</p>","null","fixation","","","","","","","","","","","","","","","","","","","","","","",""
"","","","","","html-slider-response","138","1405824","0.0-21.0-0.8","73196fa0-37a7-4c4f-80ca-6a3adc5e3062","1000","
                  <p style=""text-align: center;"">₪71
                                                <br>75%</p>
                  <p id=""wtp"" style=""text-align:center; margin-top: 0px; margin-bottom: 0px; font-size: 40px"";>&ensp;</p>","-","viewing","0","28","8B","","","","","","","","","","","","","","","","","","","",""
"","","","","","html-slider-response","139","1407846","0.0-21.0-1.8","73196fa0-37a7-4c4f-80ca-6a3adc5e3062","2021","
                  <p style=""text-align: center;"">₪71
                                                <br>75%</p>
                  <p id=""wtp"" style=""text-align:center; margin-top: 0px; margin-bottom: 0px; font-size: 40px"";>מוכנים לשלם: <span id=""c_p_y""></span></p>","45","evaluation","40","28","8B","75","71","45","","","","","","","","","","","","","","","","",""
"","","","","","html-keyboard-response","140","1409176","0.0-21.0-2.8","73196fa0-37a7-4c4f-80ca-6a3adc5e3062","null","<p style=""text-align: center;"">+</p>","null","fixation","","","","","","","","","","","","","","","","","","","","","","",""
"","","","","","html-slider-response","141","1410183","0.0-21.0-0.9","73196fa0-37a7-4c4f-80ca-6a3adc5e3062","1000","
                  <p style=""text-align: center;"">₪64
                                                <br>50%</p>
                  <p id=""wtp"" style=""text-align:center; margin-top: 0px; margin-bottom: 0px; font-size: 40px"";>&ensp;</p>","-","viewing","0","25","1B,3B,4A","","","","","","","","","","","","","","","","","","","",""
"","","","","","html-slider-response","142","1412094","0.0-21.0-1.9","73196fa0-37a7-4c4f-80ca-6a3adc5e3062","1911","
                  <p style=""text-align: center;"">₪64
                                                <br>50%</p>
                  <p id=""wtp"" style=""text-align:center; margin-top: 0px; margin-bottom: 0px; font-size: 40px"";>מוכנים לשלם: <span id=""c_p_y""></span></p>","39","evaluation","65","25","1B,3B,4A","50","64","39","","","","","","","","","","","","","","","","",""
"","","","","","html-keyboard-response","143","1413382","0.0-21.0-2.9","73196fa0-37a7-4c4f-80ca-6a3adc5e3062","null","<p style=""text-align: center;"">+</p>","null","fixation","","","","","","","","","","","","","","","","","","","","","","",""
"","","","","","html-slider-response","144","1414386","0.0-21.0-0.10","73196fa0-37a7-4c4f-80ca-6a3adc5e3062","1000","
                  <p style=""text-align: center;"">₪4
                                                <br>25%</p>
                  <p id=""wtp"" style=""text-align:center; margin-top: 0px; margin-bottom: 0px; font-size: 40px"";>&ensp;</p>","-","viewing","0","1","6C,29B,30C","","","","","","","","","","","","","","","","","","","",""
"","","","","","html-slider-response","145","1416238","0.0-21.0-1.10","73196fa0-37a7-4c4f-80ca-6a3adc5e3062","1851","
                  <p style=""text-align: center;"">₪4
                                                <br>25%</p>
                  <p id=""wtp"" style=""text-align:center; margin-top: 0px; margin-bottom: 0px; font-size: 40px"";>מוכנים לשלם: <span id=""c_p_y""></span></p>","1","evaluation","60","1","6C,29B,30C","25","4","1","","","","","","","","","","","","","","","","",""
"","","","","","html-keyboard-response","146","1417188","0.0-21.0-2.10","73196fa0-37a7-4c4f-80ca-6a3adc5e3062","null","<p style=""text-align: center;"">+</p>","null","fixation","","","","","","","","","","","","","","","","","","","","","","",""
"","","","","","html-slider-response","147","1418205","0.0-21.0-0.11","73196fa0-37a7-4c4f-80ca-6a3adc5e3062","1000","
                  <p style=""text-align: center;"">₪71
                                                <br>55%</p>
                  <p id=""wtp"" style=""text-align:center; margin-top: 0px; margin-bottom: 0px; font-size: 40px"";>&ensp;</p>","-","viewing","0","27","5B,18A","","","","","","","","","","","","","","","","","","","",""
"","","","","","html-slider-response","148","1420686","0.0-21.0-1.11","73196fa0-37a7-4c4f-80ca-6a3adc5e3062","2480","
                  <p style=""text-align: center;"">₪71
                                                <br>55%</p>
                  <p id=""wtp"" style=""text-align:center; margin-top: 0px; margin-bottom: 0px; font-size: 40px"";>מוכנים לשלם: <span id=""c_p_y""></span></p>","36","evaluation","1","27","5B,18A","55","71","36","","","","","","","","","","","","","","","","",""
"","","","","","html-keyboard-response","149","1422083","0.0-21.0-2.11","73196fa0-37a7-4c4f-80ca-6a3adc5e3062","null","<p style=""text-align: center;"">+</p>","null","fixation","","","","","","","","","","","","","","","","","","","","","","",""
"","","","","","html-slider-response","150","1423095","0.0-21.0-0.12","73196fa0-37a7-4c4f-80ca-6a3adc5e3062","1000","
                  <p style=""text-align: center;"">₪61
                                                <br>55%</p>
                  <p id=""wtp"" style=""text-align:center; margin-top: 0px; margin-bottom: 0px; font-size: 40px"";>&ensp;</p>","-","viewing","0","23","7B,26B","","","","","","","","","","","","","","","","","","","",""
"","","","","","html-slider-response","151","1425454","0.0-21.0-1.12","73196fa0-37a7-4c4f-80ca-6a3adc5e3062","2358","
                  <p style=""text-align: center;"">₪61
                                                <br>55%</p>
                  <p id=""wtp"" style=""text-align:center; margin-top: 0px; margin-bottom: 0px; font-size: 40px"";>מוכנים לשלם: <span id=""c_p_y""></span></p>","40","evaluation","20","23","7B,26B","55","61","40","","","","","","","","","","","","","","","","",""
"","","","","","html-keyboard-response","152","1426225","0.0-21.0-2.12","73196fa0-37a7-4c4f-80ca-6a3adc5e3062","null","<p style=""text-align: center;"">+</p>","null","fixation","","","","","","","","","","","","","","","","","","","","","","",""
"","","","","","html-slider-response","153","1427236","0.0-21.0-0.13","73196fa0-37a7-4c4f-80ca-6a3adc5e3062","1000","
                  <p style=""text-align: center;"">₪43
                                                <br>75%</p>
                  <p id=""wtp"" style=""text-align:center; margin-top: 0px; margin-bottom: 0px; font-size: 40px"";>&ensp;</p>","-","viewing","0","18","11B,19B,24A,26A","","","","","","","","","","","","","","","","","","","",""
"","","","","","html-slider-response","154","1430470","0.0-21.0-1.13","73196fa0-37a7-4c4f-80ca-6a3adc5e3062","3233","
                  <p style=""text-align: center;"">₪43
                                                <br>75%</p>
                  <p id=""wtp"" style=""text-align:center; margin-top: 0px; margin-bottom: 0px; font-size: 40px"";>מוכנים לשלם: <span id=""c_p_y""></span></p>","43","evaluation","9","18","11B,19B,24A,26A","75","43","43","","","","","","","","","","","","","","","","",""
"","","","","","html-keyboard-response","155","1431861","0.0-21.0-2.13","73196fa0-37a7-4c4f-80ca-6a3adc5e3062","null","<p style=""text-align: center;"">+</p>","null","fixation","","","","","","","","","","","","","","","","","","","","","","",""
"","","","","","html-slider-response","156","1432870","0.0-21.0-0.14","73196fa0-37a7-4c4f-80ca-6a3adc5e3062","1000","
                  <p style=""text-align: center;"">₪11
                                                <br>45%</p>
                  <p id=""wtp"" style=""text-align:center; margin-top: 0px; margin-bottom: 0px; font-size: 40px"";>&ensp;</p>","-","viewing","0","6","14B,21C,25C","","","","","","","","","","","","","","","","","","","",""
"","","","","","html-slider-response","157","1436582","0.0-21.0-1.14","73196fa0-37a7-4c4f-80ca-6a3adc5e3062","3711","
                  <p style=""text-align: center;"">₪11
                                                <br>45%</p>
                  <p id=""wtp"" style=""text-align:center; margin-top: 0px; margin-bottom: 0px; font-size: 40px"";>מוכנים לשלם: <span id=""c_p_y""></span></p>","6","evaluation","32","6","14B,21C,25C","45","11","6","","","","","","","","","","","","","","","","",""
"","","","","","html-keyboard-response","158","1437823","0.0-21.0-2.14","73196fa0-37a7-4c4f-80ca-6a3adc5e3062","null","<p style=""text-align: center;"">+</p>","null","fixation","","","","","","","","","","","","","","","","","","","","","","",""
"","","","","","html-slider-response","159","1438827","0.0-21.0-0.15","73196fa0-37a7-4c4f-80ca-6a3adc5e3062","1000","
                  <p style=""text-align: center;"">₪36
                                                <br>60%</p>
                  <p id=""wtp"" style=""text-align:center; margin-top: 0px; margin-bottom: 0px; font-size: 40px"";>&ensp;</p>","-","viewing","0","12","1C,7C,15C","","","","","","","","","","","","","","","","","","","",""
"","","","","","html-slider-response","160","1440230","0.0-21.0-1.15","73196fa0-37a7-4c4f-80ca-6a3adc5e3062","1402","
                  <p style=""text-align: center;"">₪36
                                                <br>60%</p>
                  <p id=""wtp"" style=""text-align:center; margin-top: 0px; margin-bottom: 0px; font-size: 40px"";>מוכנים לשלם: <span id=""c_p_y""></span></p>","16","evaluation","74","12","1C,7C,15C","60","36","16","","","","","","","","","","","","","","","","",""
"","","","","","html-keyboard-response","161","1441542","0.0-21.0-2.15","73196fa0-37a7-4c4f-80ca-6a3adc5e3062","null","<p style=""text-align: center;"">+</p>","null","fixation","","","","","","","","","","","","","","","","","","","","","","",""
"","","","","","html-slider-response","162","1442548","0.0-21.0-0.16","73196fa0-37a7-4c4f-80ca-6a3adc5e3062","1000","
                  <p style=""text-align: center;"">₪79
                                                <br>40%</p>
                  <p id=""wtp"" style=""text-align:center; margin-top: 0px; margin-bottom: 0px; font-size: 40px"";>&ensp;</p>","-","viewing","0","30","9B","","","","","","","","","","","","","","","","","","","",""
"","","","","","html-slider-response","163","1446561","0.0-21.0-1.16","73196fa0-37a7-4c4f-80ca-6a3adc5e3062","null","
                  <p style=""text-align: center;"">₪79
                                                <br>40%</p>
                  <p id=""wtp"" style=""text-align:center; margin-top: 0px; margin-bottom: 0px; font-size: 40px"";>מוכנים לשלם: <span id=""c_p_y""></span></p>","null","evaluation","33","30","9B","40","79","28","","","","","","","","","","","","","","","","",""
"","","","","","html-keyboard-response","164","1447398","0.0-21.0-2.16","73196fa0-37a7-4c4f-80ca-6a3adc5e3062","null","<p style=""text-align: center;"">+</p>","null","fixation","","","","","","","","","","","","","","","","","","","","","","",""
"","","","","","html-slider-response","165","1448400","0.0-21.0-0.17","73196fa0-37a7-4c4f-80ca-6a3adc5e3062","1000","
                  <p style=""text-align: center;"">₪18
                                                <br>25%</p>
                  <p id=""wtp"" style=""text-align:center; margin-top: 0px; margin-bottom: 0px; font-size: 40px"";>&ensp;</p>","-","viewing","0","9","14A,23A","","","","","","","","","","","","","","","","","","","",""
"","","","","","html-slider-response","166","1449934","0.0-21.0-1.17","73196fa0-37a7-4c4f-80ca-6a3adc5e3062","1532","
                  <p style=""text-align: center;"">₪18
                                                <br>25%</p>
                  <p id=""wtp"" style=""text-align:center; margin-top: 0px; margin-bottom: 0px; font-size: 40px"";>מוכנים לשלם: <span id=""c_p_y""></span></p>","7","evaluation","72","9","14A,23A","25","18","7","","","","","","","","","","","","","","","","",""
"","","","","","html-keyboard-response","167","1450924","0.0-21.0-2.17","73196fa0-37a7-4c4f-80ca-6a3adc5e3062","null","<p style=""text-align: center;"">+</p>","null","fixation","","","","","","","","","","","","","","","","","","","","","","",""
"","","","","","html-slider-response","168","1451934","0.0-21.0-0.18","73196fa0-37a7-4c4f-80ca-6a3adc5e3062","1000","
                  <p style=""text-align: center;"">₪71
                                                <br>45%</p>
                  <p id=""wtp"" style=""text-align:center; margin-top: 0px; margin-bottom: 0px; font-size: 40px"";>&ensp;</p>","-","viewing","0","26","2B,16A","","","","","","","","","","","","","","","","","","","",""
"","","","","","html-slider-response","169","1455606","0.0-21.0-1.18","73196fa0-37a7-4c4f-80ca-6a3adc5e3062","3671","
                  <p style=""text-align: center;"">₪71
                                                <br>45%</p>
                  <p id=""wtp"" style=""text-align:center; margin-top: 0px; margin-bottom: 0px; font-size: 40px"";>מוכנים לשלם: <span id=""c_p_y""></span></p>","40","evaluation","18","26","2B,16A","45","71","40","","","","","","","","","","","","","","","","",""
"","","","","","html-keyboard-response","170","1456564","0.0-21.0-2.18","73196fa0-37a7-4c4f-80ca-6a3adc5e3062","null","<p style=""text-align: center;"">+</p>","null","fixation","","","","","","","","","","","","","","","","","","","","","","",""
"","","","","","html-slider-response","171","1457578","0.0-21.0-0.19","73196fa0-37a7-4c4f-80ca-6a3adc5e3062","1000","
                  <p style=""text-align: center;"">₪39
                                                <br>65%</p>
                  <p id=""wtp"" style=""text-align:center; margin-top: 0px; margin-bottom: 0px; font-size: 40px"";>&ensp;</p>","-","viewing","0","16","1A,15A,26C","","","","","","","","","","","","","","","","","","","",""
"","","","","","html-slider-response","172","1459454","0.0-21.0-1.19","73196fa0-37a7-4c4f-80ca-6a3adc5e3062","1875","
                  <p style=""text-align: center;"">₪39
                                                <br>65%</p>
                  <p id=""wtp"" style=""text-align:center; margin-top: 0px; margin-bottom: 0px; font-size: 40px"";>מוכנים לשלם: <span id=""c_p_y""></span></p>","44","evaluation","56","16","1A,15A,26C","65","39","44","","","","","","","","","","","","","","","","",""
"","","","","","html-keyboard-response","173","1460012","0.0-21.0-2.19","73196fa0-37a7-4c4f-80ca-6a3adc5e3062","null","<p style=""text-align: center;"">+</p>","null","fixation","","","","","","","","","","","","","","","","","","","","","","",""
"","","","","","html-slider-response","174","1461016","0.0-21.0-0.20","73196fa0-37a7-4c4f-80ca-6a3adc5e3062","1000","
                  <p style=""text-align: center;"">₪36
                                                <br>75%</p>
                  <p id=""wtp"" style=""text-align:center; margin-top: 0px; margin-bottom: 0px; font-size: 40px"";>&ensp;</p>","-","viewing","0","14","4B,5A,13B,16B","","","","","","","","","","","","","","","","","","","",""
"","","","","","html-slider-response","175","1462758","0.0-21.0-1.20","73196fa0-37a7-4c4f-80ca-6a3adc5e3062","1741","
                  <p style=""text-align: center;"">₪36
                                                <br>75%</p>
                  <p id=""wtp"" style=""text-align:center; margin-top: 0px; margin-bottom: 0px; font-size: 40px"";>מוכנים לשלם: <span id=""c_p_y""></span></p>","11","evaluation","41","14","4B,5A,13B,16B","75","36","11","","","","","","","","","","","","","","","","",""
"","","","","","html-keyboard-response","176","1463424","0.0-21.0-2.20","73196fa0-37a7-4c4f-80ca-6a3adc5e3062","null","<p style=""text-align: center;"">+</p>","null","fixation","","","","","","","","","","","","","","","","","","","","","","",""
"","","","","","html-slider-response","177","1464428","0.0-21.0-0.21","73196fa0-37a7-4c4f-80ca-6a3adc5e3062","1000","
                  <p style=""text-align: center;"">₪79
                                                <br>65%</p>
                  <p id=""wtp"" style=""text-align:center; margin-top: 0px; margin-bottom: 0px; font-size: 40px"";>&ensp;</p>","-","viewing","0","31","8A","","","","","","","","","","","","","","","","","","","",""
"","","","","","html-slider-response","178","1466550","0.0-21.0-1.21","73196fa0-37a7-4c4f-80ca-6a3adc5e3062","2121","
                  <p style=""text-align: center;"">₪79
                                                <br>65%</p>
                  <p id=""wtp"" style=""text-align:center; margin-top: 0px; margin-bottom: 0px; font-size: 40px"";>מוכנים לשלם: <span id=""c_p_y""></span></p>","54","evaluation","42","31","8A","65","79","54","","","","","","","","","","","","","","","","",""
"","","","","","html-keyboard-response","179","1467882","0.0-21.0-2.21","73196fa0-37a7-4c4f-80ca-6a3adc5e3062","null","<p style=""text-align: center;"">+</p>","null","fixation","","","","","","","","","","","","","","","","","","","","","","",""
"","","","","","html-slider-response","180","1468891","0.0-21.0-0.22","73196fa0-37a7-4c4f-80ca-6a3adc5e3062","1000","
                  <p style=""text-align: center;"">₪58
                                                <br>30%</p>
                  <p id=""wtp"" style=""text-align:center; margin-top: 0px; margin-bottom: 0px; font-size: 40px"";>&ensp;</p>","-","viewing","0","19","13C,30A","","","","","","","","","","","","","","","","","","","",""
"","","","","","html-slider-response","181","1471958","0.0-21.0-1.22","73196fa0-37a7-4c4f-80ca-6a3adc5e3062","3066","
                  <p style=""text-align: center;"">₪58
                                                <br>30%</p>
                  <p id=""wtp"" style=""text-align:center; margin-top: 0px; margin-bottom: 0px; font-size: 40px"";>מוכנים לשלם: <span id=""c_p_y""></span></p>","27","evaluation","47","19","13C,30A","30","58","27","","","","","","","","","","","","","","","","",""
"","","","","","html-keyboard-response","182","1473399","0.0-21.0-2.22","73196fa0-37a7-4c4f-80ca-6a3adc5e3062","null","<p style=""text-align: center;"">+</p>","null","fixation","","","","","","","","","","","","","","","","","","","","","","",""
"","","","","","html-slider-response","183","1474412","0.0-21.0-0.23","73196fa0-37a7-4c4f-80ca-6a3adc5e3062","1000","
                  <p style=""text-align: center;"">₪61
                                                <br>45%</p>
                  <p id=""wtp"" style=""text-align:center; margin-top: 0px; margin-bottom: 0px; font-size: 40px"";>&ensp;</p>","-","viewing","0","22","10A,11A","","","","","","","","","","","","","","","","","","","",""
"","","","","","html-slider-response","184","1477782","0.0-21.0-1.23","73196fa0-37a7-4c4f-80ca-6a3adc5e3062","3370","
                  <p style=""text-align: center;"">₪61
                                                <br>45%</p>
                  <p id=""wtp"" style=""text-align:center; margin-top: 0px; margin-bottom: 0px; font-size: 40px"";>מוכנים לשלם: <span id=""c_p_y""></span></p>","25","evaluation","49","22","10A,11A","45","61","25","","","","","","","","","","","","","","","","",""
"","","","","","html-keyboard-response","185","1478519","0.0-21.0-2.23","73196fa0-37a7-4c4f-80ca-6a3adc5e3062","null","<p style=""text-align: center;"">+</p>","null","fixation","","","","","","","","","","","","","","","","","","","","","","",""
"","","","","","html-slider-response","186","1479534","0.0-21.0-0.24","73196fa0-37a7-4c4f-80ca-6a3adc5e3062","1000","
                  <p style=""text-align: center;"">₪43
                                                <br>60%</p>
                  <p id=""wtp"" style=""text-align:center; margin-top: 0px; margin-bottom: 0px; font-size: 40px"";>&ensp;</p>","-","viewing","0","17","2A,7A,9A,15B","","","","","","","","","","","","","","","","","","","",""
"","","","","","html-slider-response","187","1482798","0.0-21.0-1.24","73196fa0-37a7-4c4f-80ca-6a3adc5e3062","3264","
                  <p style=""text-align: center;"">₪43
                                                <br>60%</p>
                  <p id=""wtp"" style=""text-align:center; margin-top: 0px; margin-bottom: 0px; font-size: 40px"";>מוכנים לשלם: <span id=""c_p_y""></span></p>","31","evaluation","73","17","2A,7A,9A,15B","60","43","31","","","","","","","","","","","","","","","","",""
"","","","","","html-keyboard-response","188","1484148","0.0-21.0-2.24","73196fa0-37a7-4c4f-80ca-6a3adc5e3062","null","<p style=""text-align: center;"">+</p>","null","fixation","","","","","","","","","","","","","","","","","","","","","","",""
"","","","","","html-slider-response","189","1485157","0.0-21.0-0.25","73196fa0-37a7-4c4f-80ca-6a3adc5e3062","1000","
                  <p style=""text-align: center;"">₪11
                                                <br>20%</p>
                  <p id=""wtp"" style=""text-align:center; margin-top: 0px; margin-bottom: 0px; font-size: 40px"";>&ensp;</p>","-","viewing","0","4","12C,17C,23C,28C","","","","","","","","","","","","","","","","","","","",""
"","","","","","html-slider-response","190","1488190","0.0-21.0-1.25","73196fa0-37a7-4c4f-80ca-6a3adc5e3062","3033","
                  <p style=""text-align: center;"">₪11
                                                <br>20%</p>
                  <p id=""wtp"" style=""text-align:center; margin-top: 0px; margin-bottom: 0px; font-size: 40px"";>מוכנים לשלם: <span id=""c_p_y""></span></p>","2","evaluation","11","4","12C,17C,23C,28C","20","11","3","","","","","","","","","","","","","","","","",""
"","","","","","html-keyboard-response","191","1489287","0.0-21.0-2.25","73196fa0-37a7-4c4f-80ca-6a3adc5e3062","null","<p style=""text-align: center;"">+</p>","null","fixation","","","","","","","","","","","","","","","","","","","","","","",""
"","","","","","html-slider-response","192","1490289","0.0-21.0-0.26","73196fa0-37a7-4c4f-80ca-6a3adc5e3062","1000","
                  <p style=""text-align: center;"">₪36
                                                <br>70%</p>
                  <p id=""wtp"" style=""text-align:center; margin-top: 0px; margin-bottom: 0px; font-size: 40px"";>&ensp;</p>","-","viewing","0","13","3A,5C,10B","","","","","","","","","","","","","","","","","","","",""
"","","","","","html-slider-response","193","1493526","0.0-21.0-1.26","73196fa0-37a7-4c4f-80ca-6a3adc5e3062","3236","
                  <p style=""text-align: center;"">₪36
                                                <br>70%</p>
                  <p id=""wtp"" style=""text-align:center; margin-top: 0px; margin-bottom: 0px; font-size: 40px"";>מוכנים לשלם: <span id=""c_p_y""></span></p>","31","evaluation","11","13","3A,5C,10B","70","36","31","","","","","","","","","","","","","","","","",""
"","","","","","html-keyboard-response","194","1494188","0.0-21.0-2.26","73196fa0-37a7-4c4f-80ca-6a3adc5e3062","null","<p style=""text-align: center;"">+</p>","null","fixation","","","","","","","","","","","","","","","","","","","","","","",""
"","","","","","html-slider-response","195","1495199","0.0-21.0-0.27","73196fa0-37a7-4c4f-80ca-6a3adc5e3062","1000","
                  <p style=""text-align: center;"">₪58
                                                <br>45%</p>
                  <p id=""wtp"" style=""text-align:center; margin-top: 0px; margin-bottom: 0px; font-size: 40px"";>&ensp;</p>","-","viewing","0","21","11C,18C,25A","","","","","","","","","","","","","","","","","","","",""
"","","","","","html-slider-response","196","1499206","0.0-21.0-1.27","73196fa0-37a7-4c4f-80ca-6a3adc5e3062","null","
                  <p style=""text-align: center;"">₪58
                                                <br>45%</p>
                  <p id=""wtp"" style=""text-align:center; margin-top: 0px; margin-bottom: 0px; font-size: 40px"";>מוכנים לשלם: <span id=""c_p_y""></span></p>","null","evaluation","8","21","11C,18C,25A","45","58","30","","","","","","","","","","","","","","","","",""
"","","","","","html-keyboard-response","197","1500626","0.0-21.0-2.27","73196fa0-37a7-4c4f-80ca-6a3adc5e3062","null","<p style=""text-align: center;"">+</p>","null","fixation","","","","","","","","","","","","","","","","","","","","","","",""
"","","","","","html-slider-response","198","1501638","0.0-21.0-0.28","73196fa0-37a7-4c4f-80ca-6a3adc5e3062","1000","
                  <p style=""text-align: center;"">₪4
                                                <br>75%</p>
                  <p id=""wtp"" style=""text-align:center; margin-top: 0px; margin-bottom: 0px; font-size: 40px"";>&ensp;</p>","-","viewing","0","3","12B,20B,23B,27C,29C","","","","","","","","","","","","","","","","","","","",""
"","","","","","html-slider-response","199","1504223","0.0-21.0-1.28","73196fa0-37a7-4c4f-80ca-6a3adc5e3062","2584","
                  <p style=""text-align: center;"">₪4
                                                <br>75%</p>
                  <p id=""wtp"" style=""text-align:center; margin-top: 0px; margin-bottom: 0px; font-size: 40px"";>מוכנים לשלם: <span id=""c_p_y""></span></p>","2","evaluation","72","3","12B,20B,23B,27C,29C","75","4","3","","","","","","","","","","","","","","","","",""
"","","","","","html-keyboard-response","200","1505513","0.0-21.0-2.28","73196fa0-37a7-4c4f-80ca-6a3adc5e3062","null","<p style=""text-align: center;"">+</p>","null","fixation","","","","","","","","","","","","","","","","","","","","","","",""
"","","","","","html-slider-response","201","1506526","0.0-21.0-0.29","73196fa0-37a7-4c4f-80ca-6a3adc5e3062","1000","
                  <p style=""text-align: center;"">₪64
                                                <br>25%</p>
                  <p id=""wtp"" style=""text-align:center; margin-top: 0px; margin-bottom: 0px; font-size: 40px"";>&ensp;</p>","-","viewing","0","24","6A,21A","","","","","","","","","","","","","","","","","","","",""
"","","","","","html-slider-response","202","1510422","0.0-21.0-1.29","73196fa0-37a7-4c4f-80ca-6a3adc5e3062","3895","
                  <p style=""text-align: center;"">₪64
                                                <br>25%</p>
                  <p id=""wtp"" style=""text-align:center; margin-top: 0px; margin-bottom: 0px; font-size: 40px"";>מוכנים לשלם: <span id=""c_p_y""></span></p>","11","evaluation","4","24","6A,21A","25","64","12","","","","","","","","","","","","","","","","",""
"","","","","","html-keyboard-response","203","1511182","0.0-21.0-2.29","73196fa0-37a7-4c4f-80ca-6a3adc5e3062","null","<p style=""text-align: center;"">+</p>","null","fixation","","","","","","","","","","","","","","","","","","","","","","",""
"","","","","","html-slider-response","204","1512199","0.0-21.0-0.30","73196fa0-37a7-4c4f-80ca-6a3adc5e3062","1000","
                  <p style=""text-align: center;"">₪11
                                                <br>25%</p>
                  <p id=""wtp"" style=""text-align:center; margin-top: 0px; margin-bottom: 0px; font-size: 40px"";>&ensp;</p>","-","viewing","0","5","12A,27B,28B,30B","","","","","","","","","","","","","","","","","","","",""
"","","","","","html-slider-response","205","1514318","0.0-21.0-1.30","73196fa0-37a7-4c4f-80ca-6a3adc5e3062","2118","
                  <p style=""text-align: center;"">₪11
                                                <br>25%</p>
                  <p id=""wtp"" style=""text-align:center; margin-top: 0px; margin-bottom: 0px; font-size: 40px"";>מוכנים לשלם: <span id=""c_p_y""></span></p>","2","evaluation","55","5","12A,27B,28B,30B","25","11","3","","","","","","","","","","","","","","","","",""
"","","","","","html-keyboard-response","206","1515492","0.0-21.0-2.30","73196fa0-37a7-4c4f-80ca-6a3adc5e3062","null","<p style=""text-align: center;"">+</p>","null","fixation","","","","","","","","","","","","","","","","","","","","","","",""
"","","","","","html-keyboard-response","207","1516503","0.0-22.0","73196fa0-37a7-4c4f-80ca-6a3adc5e3062","null","<p style=""text-align: center;"">+</p>","null","fixation","","","","","","","","","","","","","","","","","","","","","","",""
"","","","","","html-keyboard-response","208","1517358","0.0-23.0","73196fa0-37a7-4c4f-80ca-6a3adc5e3062","null","<p>הפסקה.
          <br>לחצו כדי להמשיך.</p>","1","scan_wait","","","","","","","","","","","","","","","","","","","","","","",""
"","","","","","html-keyboard-response","209","1518372","0.0-24.0","73196fa0-37a7-4c4f-80ca-6a3adc5e3062","null","<p style=""text-align: center;"">+</p>","null","fixation","","","","","","","","","","","","","","","","","","","","","","",""
"","","","","","html-slider-response","210","1519375","0.0-25.0-0.0","73196fa0-37a7-4c4f-80ca-6a3adc5e3062","1000","
                  <p style=""text-align: center;"">₪71
                                                <br>75%</p>
                  <p id=""wtp"" style=""text-align:center; margin-top: 0px; margin-bottom: 0px; font-size: 40px"";>&ensp;</p>","-","viewing","0","28","8B","","","","","","","","","","","","","","","","","","","",""
"","","","","","html-slider-response","211","1521974","0.0-25.0-1.0","73196fa0-37a7-4c4f-80ca-6a3adc5e3062","2598","
                  <p style=""text-align: center;"">₪71
                                                <br>75%</p>
                  <p id=""wtp"" style=""text-align:center; margin-top: 0px; margin-bottom: 0px; font-size: 40px"";>מוכנים לשלם: <span id=""c_p_y""></span></p>","56","evaluation","9","28","8B","75","71","56","","","","","","","","","","","","","","","","",""
"","","","","","html-keyboard-response","212","1523072","0.0-25.0-2.0","73196fa0-37a7-4c4f-80ca-6a3adc5e3062","null","<p style=""text-align: center;"">+</p>","null","fixation","","","","","","","","","","","","","","","","","","","","","","",""
"","","","","","html-slider-response","213","1524079","0.0-25.0-0.1","73196fa0-37a7-4c4f-80ca-6a3adc5e3062","1000","
                  <p style=""text-align: center;"">₪36
                                                <br>70%</p>
                  <p id=""wtp"" style=""text-align:center; margin-top: 0px; margin-bottom: 0px; font-size: 40px"";>&ensp;</p>","-","viewing","0","13","3A,5C,10B","","","","","","","","","","","","","","","","","","","",""
"","","","","","html-slider-response","214","1527414","0.0-25.0-1.1","73196fa0-37a7-4c4f-80ca-6a3adc5e3062","3334","
                  <p style=""text-align: center;"">₪36
                                                <br>70%</p>
                  <p id=""wtp"" style=""text-align:center; margin-top: 0px; margin-bottom: 0px; font-size: 40px"";>מוכנים לשלם: <span id=""c_p_y""></span></p>","36","evaluation","15","13","3A,5C,10B","70","36","36","","","","","","","","","","","","","","","","",""
"","","","","","html-keyboard-response","215","1528557","0.0-25.0-2.1","73196fa0-37a7-4c4f-80ca-6a3adc5e3062","null","<p style=""text-align: center;"">+</p>","null","fixation","","","","","","","","","","","","","","","","","","","","","","",""
"","","","","","html-slider-response","216","1529566","0.0-25.0-0.2","73196fa0-37a7-4c4f-80ca-6a3adc5e3062","1000","
                  <p style=""text-align: center;"">₪79
                                                <br>65%</p>
                  <p id=""wtp"" style=""text-align:center; margin-top: 0px; margin-bottom: 0px; font-size: 40px"";>&ensp;</p>","-","viewing","0","31","8A","","","","","","","","","","","","","","","","","","","",""
"","","","","","html-slider-response","217","1531998","0.0-25.0-1.2","73196fa0-37a7-4c4f-80ca-6a3adc5e3062","2431","
                  <p style=""text-align: center;"">₪79
                                                <br>65%</p>
                  <p id=""wtp"" style=""text-align:center; margin-top: 0px; margin-bottom: 0px; font-size: 40px"";>מוכנים לשלם: <span id=""c_p_y""></span></p>","60","evaluation","69","31","8A","65","79","60","","","","","","","","","","","","","","","","",""
"","","","","","html-keyboard-response","218","1533316","0.0-25.0-2.2","73196fa0-37a7-4c4f-80ca-6a3adc5e3062","null","<p style=""text-align: center;"">+</p>","null","fixation","","","","","","","","","","","","","","","","","","","","","","",""
"","","","","","html-slider-response","219","1534322","0.0-25.0-0.3","73196fa0-37a7-4c4f-80ca-6a3adc5e3062","1000","
                  <p style=""text-align: center;"">₪39
                                                <br>60%</p>
                  <p id=""wtp"" style=""text-align:center; margin-top: 0px; margin-bottom: 0px; font-size: 40px"";>&ensp;</p>","-","viewing","0","15","9C,25B","","","","","","","","","","","","","","","","","","","",""
"","","","","","html-slider-response","220","1537302","0.0-25.0-1.3","73196fa0-37a7-4c4f-80ca-6a3adc5e3062","2979","
                  <p style=""text-align: center;"">₪39
                                                <br>60%</p>
                  <p id=""wtp"" style=""text-align:center; margin-top: 0px; margin-bottom: 0px; font-size: 40px"";>מוכנים לשלם: <span id=""c_p_y""></span></p>","29","evaluation","8","15","9C,25B","60","39","30","","","","","","","","","","","","","","","","",""
"","","","","","html-keyboard-response","221","1538277","0.0-25.0-2.3","73196fa0-37a7-4c4f-80ca-6a3adc5e3062","null","<p style=""text-align: center;"">+</p>","null","fixation","","","","","","","","","","","","","","","","","","","","","","",""
"","","","","","html-slider-response","222","1539278","0.0-25.0-0.4","73196fa0-37a7-4c4f-80ca-6a3adc5e3062","1000","
                  <p style=""text-align: center;"">₪11
                                                <br>75%</p>
                  <p id=""wtp"" style=""text-align:center; margin-top: 0px; margin-bottom: 0px; font-size: 40px"";>&ensp;</p>","-","viewing","0","7","6B,18B,22C,24C,29A","","","","","","","","","","","","","","","","","","","",""
"","","","","","html-slider-response","223","1541518","0.0-25.0-1.4","73196fa0-37a7-4c4f-80ca-6a3adc5e3062","2239","
                  <p style=""text-align: center;"">₪11
                                                <br>75%</p>
                  <p id=""wtp"" style=""text-align:center; margin-top: 0px; margin-bottom: 0px; font-size: 40px"";>מוכנים לשלם: <span id=""c_p_y""></span></p>","10","evaluation","54","7","6B,18B,22C,24C,29A","75","11","10","","","","","","","","","","","","","","","","",""
"","","","","","html-keyboard-response","224","1542717","0.0-25.0-2.4","73196fa0-37a7-4c4f-80ca-6a3adc5e3062","null","<p style=""text-align: center;"">+</p>","null","fixation","","","","","","","","","","","","","","","","","","","","","","",""
"","","","","","html-slider-response","225","1543731","0.0-25.0-0.5","73196fa0-37a7-4c4f-80ca-6a3adc5e3062","1000","
                  <p style=""text-align: center;"">₪11
                                                <br>20%</p>
                  <p id=""wtp"" style=""text-align:center; margin-top: 0px; margin-bottom: 0px; font-size: 40px"";>&ensp;</p>","-","viewing","0","4","12C,17C,23C,28C","","","","","","","","","","","","","","","","","","","",""
"","","","","","html-slider-response","226","1544790","0.0-25.0-1.5","73196fa0-37a7-4c4f-80ca-6a3adc5e3062","1058","
                  <p style=""text-align: center;"">₪11
                                                <br>20%</p>
                  <p id=""wtp"" style=""text-align:center; margin-top: 0px; margin-bottom: 0px; font-size: 40px"";>מוכנים לשלם: <span id=""c_p_y""></span></p>","0","evaluation","37","4","12C,17C,23C,28C","20","11","0","","","","","","","","","","","","","","","","",""
"","","","","","html-keyboard-response","227","1545550","0.0-25.0-2.5","73196fa0-37a7-4c4f-80ca-6a3adc5e3062","null","<p style=""text-align: center;"">+</p>","null","fixation","","","","","","","","","","","","","","","","","","","","","","",""
"","","","","","html-slider-response","228","1546551","0.0-25.0-0.6","73196fa0-37a7-4c4f-80ca-6a3adc5e3062","1000","
                  <p style=""text-align: center;"">₪71
                                                <br>55%</p>
                  <p id=""wtp"" style=""text-align:center; margin-top: 0px; margin-bottom: 0px; font-size: 40px"";>&ensp;</p>","-","viewing","0","27","5B,18A","","","","","","","","","","","","","","","","","","","",""
"","","","","","html-slider-response","229","1549230","0.0-25.0-1.6","73196fa0-37a7-4c4f-80ca-6a3adc5e3062","2678","
                  <p style=""text-align: center;"">₪71
                                                <br>55%</p>
                  <p id=""wtp"" style=""text-align:center; margin-top: 0px; margin-bottom: 0px; font-size: 40px"";>מוכנים לשלם: <span id=""c_p_y""></span></p>","47","evaluation","11","27","5B,18A","55","71","47","","","","","","","","","","","","","","","","",""
"","","","","","html-keyboard-response","230","1550469","0.0-25.0-2.6","73196fa0-37a7-4c4f-80ca-6a3adc5e3062","null","<p style=""text-align: center;"">+</p>","null","fixation","","","","","","","","","","","","","","","","","","","","","","",""
"","","","","","html-slider-response","231","1551478","0.0-25.0-0.7","73196fa0-37a7-4c4f-80ca-6a3adc5e3062","1000","
                  <p style=""text-align: center;"">₪36
                                                <br>75%</p>
                  <p id=""wtp"" style=""text-align:center; margin-top: 0px; margin-bottom: 0px; font-size: 40px"";>&ensp;</p>","-","viewing","0","14","4B,5A,13B,16B","","","","","","","","","","","","","","","","","","","",""
"","","","","","html-slider-response","232","1553254","0.0-25.0-1.7","73196fa0-37a7-4c4f-80ca-6a3adc5e3062","1775","
                  <p style=""text-align: center;"">₪36
                                                <br>75%</p>
                  <p id=""wtp"" style=""text-align:center; margin-top: 0px; margin-bottom: 0px; font-size: 40px"";>מוכנים לשלם: <span id=""c_p_y""></span></p>","31","evaluation","40","14","4B,5A,13B,16B","75","36","31","","","","","","","","","","","","","","","","",""
"","","","","","html-keyboard-response","233","1554369","0.0-25.0-2.7","73196fa0-37a7-4c4f-80ca-6a3adc5e3062","null","<p style=""text-align: center;"">+</p>","null","fixation","","","","","","","","","","","","","","","","","","","","","","",""
"","","","","","html-slider-response","234","1555376","0.0-25.0-0.8","73196fa0-37a7-4c4f-80ca-6a3adc5e3062","1000","
                  <p style=""text-align: center;"">₪64
                                                <br>50%</p>
                  <p id=""wtp"" style=""text-align:center; margin-top: 0px; margin-bottom: 0px; font-size: 40px"";>&ensp;</p>","-","viewing","0","25","1B,3B,4A","","","","","","","","","","","","","","","","","","","",""
"","","","","","html-slider-response","235","1558886","0.0-25.0-1.8","73196fa0-37a7-4c4f-80ca-6a3adc5e3062","3510","
                  <p style=""text-align: center;"">₪64
                                                <br>50%</p>
                  <p id=""wtp"" style=""text-align:center; margin-top: 0px; margin-bottom: 0px; font-size: 40px"";>מוכנים לשלם: <span id=""c_p_y""></span></p>","40","evaluation","3","25","1B,3B,4A","50","64","40","","","","","","","","","","","","","","","","",""
"","","","","","html-keyboard-response","236","1559397","0.0-25.0-2.8","73196fa0-37a7-4c4f-80ca-6a3adc5e3062","null","<p style=""text-align: center;"">+</p>","null","fixation","","","","","","","","","","","","","","","","","","","","","","",""
"","","","","","html-slider-response","237","1560414","0.0-25.0-0.9","73196fa0-37a7-4c4f-80ca-6a3adc5e3062","1000","
                  <p style=""text-align: center;"">₪11
                                                <br>45%</p>
                  <p id=""wtp"" style=""text-align:center; margin-top: 0px; margin-bottom: 0px; font-size: 40px"";>&ensp;</p>","-","viewing","0","6","14B,21C,25C","","","","","","","","","","","","","","","","","","","",""
"","","","","","html-slider-response","238","1562566","0.0-25.0-1.9","73196fa0-37a7-4c4f-80ca-6a3adc5e3062","2151","
                  <p style=""text-align: center;"">₪11
                                                <br>45%</p>
                  <p id=""wtp"" style=""text-align:center; margin-top: 0px; margin-bottom: 0px; font-size: 40px"";>מוכנים לשלם: <span id=""c_p_y""></span></p>","8","evaluation","49","6","14B,21C,25C","45","11","8","","","","","","","","","","","","","","","","",""
"","","","","","html-keyboard-response","239","1563256","0.0-25.0-2.9","73196fa0-37a7-4c4f-80ca-6a3adc5e3062","null","<p style=""text-align: center;"">+</p>","null","fixation","","","","","","","","","","","","","","","","","","","","","","",""
"","","","","","html-slider-response","240","1564268","0.0-25.0-0.10","73196fa0-37a7-4c4f-80ca-6a3adc5e3062","1000","
                  <p style=""text-align: center;"">₪64
                                                <br>25%</p>
                  <p id=""wtp"" style=""text-align:center; margin-top: 0px; margin-bottom: 0px; font-size: 40px"";>&ensp;</p>","-","viewing","0","24","6A,21A","","","","","","","","","","","","","","","","","","","",""
"","","","","","html-slider-response","241","1567790","0.0-25.0-1.10","73196fa0-37a7-4c4f-80ca-6a3adc5e3062","3521","
                  <p style=""text-align: center;"">₪64
                                                <br>25%</p>
                  <p id=""wtp"" style=""text-align:center; margin-top: 0px; margin-bottom: 0px; font-size: 40px"";>מוכנים לשלם: <span id=""c_p_y""></span></p>","10","evaluation","44","24","6A,21A","25","64","10","","","","","","","","","","","","","","","","",""
"","","","","","html-keyboard-response","242","1568509","0.0-25.0-2.10","73196fa0-37a7-4c4f-80ca-6a3adc5e3062","null","<p style=""text-align: center;"">+</p>","null","fixation","","","","","","","","","","","","","","","","","","","","","","",""
"","","","","","html-slider-response","243","1569524","0.0-25.0-0.11","73196fa0-37a7-4c4f-80ca-6a3adc5e3062","1000","
                  <p style=""text-align: center;"">₪61
                                                <br>55%</p>
                  <p id=""wtp"" style=""text-align:center; margin-top: 0px; margin-bottom: 0px; font-size: 40px"";>&ensp;</p>","-","viewing","0","23","7B,26B","","","","","","","","","","","","","","","","","","","",""
"","","","","","html-slider-response","244","1572862","0.0-25.0-1.11","73196fa0-37a7-4c4f-80ca-6a3adc5e3062","3338","
                  <p style=""text-align: center;"">₪61
                                                <br>55%</p>
                  <p id=""wtp"" style=""text-align:center; margin-top: 0px; margin-bottom: 0px; font-size: 40px"";>מוכנים לשלם: <span id=""c_p_y""></span></p>","49","evaluation","44","23","7B,26B","55","61","49","","","","","","","","","","","","","","","","",""
"","","","","","html-keyboard-response","245","1573409","0.0-25.0-2.11","73196fa0-37a7-4c4f-80ca-6a3adc5e3062","null","<p style=""text-align: center;"">+</p>","null","fixation","","","","","","","","","","","","","","","","","","","","","","",""
"","","","","","html-slider-response","246","1574413","0.0-25.0-0.12","73196fa0-37a7-4c4f-80ca-6a3adc5e3062","1000","
                  <p style=""text-align: center;"">₪79
                                                <br>40%</p>
                  <p id=""wtp"" style=""text-align:center; margin-top: 0px; margin-bottom: 0px; font-size: 40px"";>&ensp;</p>","-","viewing","0","30","9B","","","","","","","","","","","","","","","","","","","",""
"","","","","","html-slider-response","247","1576702","0.0-25.0-1.12","73196fa0-37a7-4c4f-80ca-6a3adc5e3062","2288","
                  <p style=""text-align: center;"">₪79
                                                <br>40%</p>
                  <p id=""wtp"" style=""text-align:center; margin-top: 0px; margin-bottom: 0px; font-size: 40px"";>מוכנים לשלם: <span id=""c_p_y""></span></p>","45","evaluation","66","30","9B","40","79","45","","","","","","","","","","","","","","","","",""
"","","","","","html-keyboard-response","248","1577997","0.0-25.0-2.12","73196fa0-37a7-4c4f-80ca-6a3adc5e3062","null","<p style=""text-align: center;"">+</p>","null","fixation","","","","","","","","","","","","","","","","","","","","","","",""
"","","","","","html-slider-response","249","1579000","0.0-25.0-0.13","73196fa0-37a7-4c4f-80ca-6a3adc5e3062","1000","
                  <p style=""text-align: center;"">₪4
