"success","timeout","failed_images","failed_audio","failed_video","trial_type","trial_index","time_elapsed","internal_node_id","subject_id","rt","stimulus","response","part","slider_start","ID","set_ID","prob","amount","last_location","actual_choice","actual_EV","binary_id","trinary_id","catch","A_key","D_key","choice_prob","choice_amount","potential_prize_prob","potential_prize_amount","won_prize","total_prize","remaining_budget","accuracy"
"true","false","[]","[]","[]","preload","0","10","0.0-0.0","664ded3d-fe75-41d7-8a08-2596a5bf2484","","","","","","","","","","","","","","","","","","","","","","","","",""
"","","","","","html-keyboard-response","1","11558","0.0-1.0","664ded3d-fe75-41d7-8a08-2596a5bf2484","null","
          <h1>שלום וברוכים הבאים!</h1>
          <p>לפניכם ניסוי בקבלת החלטות עם שני חלקים.
          <br><br>לחצו על העכבר כדי להמשיך.</p>","0","example","","","","","","","","","","","","","","","","","","","","",""
"","","","","","html-keyboard-response","2","24278","0.0-2.0","664ded3d-fe75-41d7-8a08-2596a5bf2484","null","
        <h1>חלק 1</h1>
        <p>בקרוב יוצגו בפניכם הגרלות.
        <br>עליכם לבחור את המחיר המירבי שתהיו מוכנים לשלם כדי להשתתף בהגרלה שתוצג.
        <br>יש לכם תקציב של ₪80 לכל הגרלה. 
        <br>נסו להעריך כל הגרלה בנפרד ולחשוב כמה היא שווה עבורכם, ₪80 זמינים לכל הגרלה בנפרד.
        <br><br>לחצו על העכבר כדי להמשיך.</p>","1","instructions","","","","","","","","","","","","","","","","","","","","",""
"","","","","","html-keyboard-response","3","30150","0.0-3.0","664ded3d-fe75-41d7-8a08-2596a5bf2484","null","
        <p>בסוף הניסוי, המחשב יבחר את אחת ההגרלות ויקבע מחיר לכרטיס עבורה. 
        <br>במידה והמחיר שבחרתם נמוך מהמחיר שנבחר על ידי המחשב, לא תשתתפו בהגרלה ותשארו עם מלוא התקציב.
        <br>במידה והמחיר שבחרתם גבוה מהמחיר שנבחר על ידי המחשב, תשלמו את המחיר שנקבע ותשתתפו בהגרלה.
        <br><br>לחצו על העכבר כדי להמשיך.</p>","1","instructions","","","","","","","","","","","","","","","","","","","","",""
"","","","","","html-slider-response","4","83182","0.0-4.0","664ded3d-fe75-41d7-8a08-2596a5bf2484","52925","
        <p style=""font-size: 42px;"">נתחיל עם דוגמא: 
        <br>ההגרלה מטה מציעה 65% סיכוי לזכות ב-₪40 
        <br>&emsp;&emsp;&emsp;&emsp;&emsp;&emsp;&emsp;&emsp;&ensp;35% סיכוי לזכות ב-₪0.
        <br><br>מה המחיר המירבי שתהיו מוכנים לשלם על כרטיס להגרלה זו בין 0 ל-₪80?
        <br>הזיזו את העכבר על פני המלבן ולחצו כדי לבצע בחירה.</p>
        
        <p style=""text-align: center;"">₪40<br>65%</p>

        <p id=""wtp"" style=""text-align:center; margin-top: 0px; margin-bottom: 0px; font-size: 40px"";>מוכנים לשלם: <span id=""c_p_y""></span></p>","24","example","42","","","","","","","","","","","","","","","","","","","",""
"","","","","","html-keyboard-response","5","94518","0.0-5.0","664ded3d-fe75-41d7-8a08-2596a5bf2484","null","<p>יפה מאוד!
                <br> בחרתם שתהיו מוכנים לשלם ₪24 כדי להשתתף בהגרלה:
                <br><p style=""text-align: center;"">₪40<br>65%</p>
                <p>נשמע נכון?
                <br>נניח שהגרלה זו נבחרה בסוף הניסוי.
                <br>כעת המחשב יקבע מחיר עבורה באקראי.
                <br>לחצו על העכבר להמשך.</p>","1","example","","","","","","","","","","","","","","","","","","","","",""
"","","","","","html-keyboard-response","6","102358","0.0-6.0","664ded3d-fe75-41d7-8a08-2596a5bf2484","null","<p>המחשב קבע מחיר: ₪31
                <br>ואתם בחרתם לשלם לכל היותר: ₪24
                <br><br>מכיוון שהמחיר שבחרתם נמוך מהמחיר שנקבע, לא תתשתתפו בהגרלה.
                <br>במקרה כזה, בסוף הניסוי תקבלו את כל התקציב ההתחלתי של ₪80.
                <br><br>לחצו על העכבר להמשך.</p>","1","example","","","","","","","","","","","","","","","","","","","","",""
"","","","","","html-slider-response","7","115918","0.0-7.0","664ded3d-fe75-41d7-8a08-2596a5bf2484","13299","<p style=""font-size: 42px;"">הנה עוד דוגמא:
                <br>ההגרלה מטה מציעה 35% סיכוי לזכות ב-₪18 
                <br>&emsp;&emsp;&emsp;&emsp;&emsp;&emsp;&emsp;&emsp;&ensp;65% סיכוי לזכות ב-₪0.</p>
        
                <p style=""text-align: center;"">₪18<br>35%</p>
                <p id=""wtp"" style=""text-align:center; margin-top: 0px; margin-bottom: 0px; font-size: 40px"";>מוכנים לשלם: <span id=""c_p_y""></span></p>","10","example","46","","","","","","","","","","","","","","","","","","","",""
"","","","","","html-keyboard-response","8","117366","0.0-8.0","664ded3d-fe75-41d7-8a08-2596a5bf2484","null","<p>הייתם מוכנים לשלם  ₪10 כדי להשתתף בהגרלה:
                <p style=""text-align: center;"">₪18<br>35%</p>
                <p>כעת נניח שהמחשב בחר את ההגרלה הזו בסוף הניסוי, וקבע עבורה מחיר.
                <br><br>לחצו על העכבר כדי להמשיך.</p>","1","instructions","","","","","","","","","","","","","","","","","","","","",""
"","","","","","html-keyboard-response","9","129334","0.0-9.0","664ded3d-fe75-41d7-8a08-2596a5bf2484","null","<p>המחשב קבע מחיר להגרלה: ₪4<br>ואתם בחרתם לשלם לכל היותר: ₪10
                <br><br>כעת המחיר שנקבע נמוך מזה שבחרתם, אז תשלמו את המחיר שקבע המחשב (₪4) ותשתתפו בהגרלה.
                <br>במקרה כזה, תסיימו את הניסוי עם תקציב של ₪76 ועם סיכוי לזכות ב-₪18 נוספים מההגרלה.
                <br>כלומר, תוכלו לקבל ₪76 אם לא תזכו בהגרלה, או ₪94 אם תזכו בהגרלה.
                <br><br>לחצו על העכבר להמשך.</p>","1","example","","","","","","","","","","","","","","","","","","","","",""
"","","","","","html-keyboard-response","10","139846","0.0-10.0","664ded3d-fe75-41d7-8a08-2596a5bf2484","null","<p>במהלך הניסוי, קודם תראו את ההגרלה ורק לאחר מכן תוכלו לבחור.
                <p>כמו כן, יהיו לכם מספר שניות מוגבל להגיב.
                <p>בואו ננסה זאת עם ההגרלה הקודמת.
                <br>לחצו על העכבר כדי להמשיך.</p>","1","instructions","","","","","","","","","","","","","","","","","","","","",""
"","","","","","html-slider-response","11","141119","0.0-11.0","664ded3d-fe75-41d7-8a08-2596a5bf2484","1000","
                    <p style=""text-align: center;"">₪18<br>35%</p>
                    <p id=""wtp"" style=""text-align:center; margin-top: 0px; margin-bottom: 0px; font-size: 40px"";>&ensp;</p>","36","instructions","0","","","","","","","","","","","","","","","","","","","",""
"","","","","","html-slider-response","12","145388","0.0-12.0","664ded3d-fe75-41d7-8a08-2596a5bf2484","null","
                    <p style=""text-align: center;"">₪18<br>35%</p>
                    <p id=""wtp"" style=""text-align:center; margin-top: 0px; margin-bottom: 0px; font-size: 40px"";>מוכנים לשלם: <span id=""c_p_y""></span></p>","null","instructions","28","","","","","","","","","","","","","","","","","","","",""
"","","","","","html-keyboard-response","13","150542","0.0-13.0","664ded3d-fe75-41d7-8a08-2596a5bf2484","null","<p>לא הגבתם בזמן המוקצב לתגובה. 
                <br>נסו להגיב מהר יותר בפעם הבאה.
                <br><br>לחצו על העכבר כדי להמשיך.</p>","1","instructions","","","","","","","","","","","","","","","","","","","","",""
"","","","","","html-slider-response","14","152382","0.0-14.0-0.0","664ded3d-fe75-41d7-8a08-2596a5bf2484","1584","
                    <p style=""text-align: center;"">₪40<br>65%</p>
                    <p id=""wtp"" style=""text-align:center; margin-top: 0px; margin-bottom: 0px; font-size: 40px"";>מוכנים לשלם: <span id=""c_p_y""></span></p>","6","instructions","42","","","","","","","","","","","","","","","","","","","",""
"","","","","","html-keyboard-response","15","154310","0.0-14.0-1.0","664ded3d-fe75-41d7-8a08-2596a5bf2484","null","<p>יפה. הפעם בחרתם לשלם לכל היותר ₪6.
                <br><br>לחצו על העכבר כדי להמשיך.</p>","1","instructions","","","","","","","","","","","","","","","","","","","","",""
"","","","","","html-keyboard-response","16","156182","0.0-15.0","664ded3d-fe75-41d7-8a08-2596a5bf2484","null","<p>כעת נתחיל את הניסוי.
                <br><br>אתם תראו הגרלות ותתבקשו לבחור כמה תהיו מוכנים לשלם כדי להשתתף בהן.
                <br>יש לכם תקציב של ₪80 עבור כל הגרלה.
                <br>בסוף הניסוי הגרלה אחת תבחר באקראי ותשוחק.
                <br><br>לחצו על העכבר כדי להתחיל את הניסוי.</p>","1","instructions","","","","","","","","","","","","","","","","","","","","",""
"","","","","","html-keyboard-response","17","157447","0.0-16.0","664ded3d-fe75-41d7-8a08-2596a5bf2484","null","<p style=""text-align: center;"">+</p>","null","fixation","","","","","","","","","","","","","","","","","","","","",""
"","","","","","html-slider-response","18","158449","0.0-17.0-0.0","664ded3d-fe75-41d7-8a08-2596a5bf2484","1000","
                  <p style=""text-align: center;"">₪43
                                                <br>75%</p>
                  <p id=""wtp"" style=""text-align:center; margin-top: 0px; margin-bottom: 0px; font-size: 40px"";>&ensp;</p>","-","viewing","0","18","11B,19B,24A,26A","","","","","","","","","","","","","","","","","",""
"","","","","","html-slider-response","19","160614","0.0-17.0-1.0","664ded3d-fe75-41d7-8a08-2596a5bf2484","2164","
                  <p style=""text-align: center;"">₪43
                                                <br>75%</p>
                  <p id=""wtp"" style=""text-align:center; margin-top: 0px; margin-bottom: 0px; font-size: 40px"";>מוכנים לשלם: <span id=""c_p_y""></span></p>","29","evaluation","30","18","11B,19B,24A,26A","75","43","29","","","","","","","","","","","","","","",""
"","","","","","html-keyboard-response","20","161255","0.0-17.0-2.0","664ded3d-fe75-41d7-8a08-2596a5bf2484","null","<p style=""text-align: center;"">+</p>","null","fixation","","","","","","","","","","","","","","","","","","","","",""
"","","","","","html-slider-response","21","162258","0.0-17.0-0.1","664ded3d-fe75-41d7-8a08-2596a5bf2484","1000","
                  <p style=""text-align: center;"">₪11
                                                <br>25%</p>
                  <p id=""wtp"" style=""text-align:center; margin-top: 0px; margin-bottom: 0px; font-size: 40px"";>&ensp;</p>","-","viewing","0","5","12A,27B,28B,30B","","","","","","","","","","","","","","","","","",""
"","","","","","html-slider-response","22","165710","0.0-17.0-1.1","664ded3d-fe75-41d7-8a08-2596a5bf2484","3450","
                  <p style=""text-align: center;"">₪11
                                                <br>25%</p>
                  <p id=""wtp"" style=""text-align:center; margin-top: 0px; margin-bottom: 0px; font-size: 40px"";>מוכנים לשלם: <span id=""c_p_y""></span></p>","7","evaluation","62","5","12A,27B,28B,30B","25","11","7","","","","","","","","","","","","","","",""
"","","","","","html-keyboard-response","23","166958","0.0-17.0-2.1","664ded3d-fe75-41d7-8a08-2596a5bf2484","null","<p style=""text-align: center;"">+</p>","null","fixation","","","","","","","","","","","","","","","","","","","","",""
"","","","","","html-slider-response","24","167965","0.0-17.0-0.2","664ded3d-fe75-41d7-8a08-2596a5bf2484","1000","
                  <p style=""text-align: center;"">₪18
                                                <br>25%</p>
                  <p id=""wtp"" style=""text-align:center; margin-top: 0px; margin-bottom: 0px; font-size: 40px"";>&ensp;</p>","-","viewing","0","9","14A,23A","","","","","","","","","","","","","","","","","",""
"","","","","","html-slider-response","25","171976","0.0-17.0-1.2","664ded3d-fe75-41d7-8a08-2596a5bf2484","null","
                  <p style=""text-align: center;"">₪18
                                                <br>25%</p>
                  <p id=""wtp"" style=""text-align:center; margin-top: 0px; margin-bottom: 0px; font-size: 40px"";>מוכנים לשלם: <span id=""c_p_y""></span></p>","null","evaluation","0","9","14A,23A","25","18","7","","","","","","","","","","","","","","",""
"","","","","","html-keyboard-response","26","173431","0.0-17.0-2.2","664ded3d-fe75-41d7-8a08-2596a5bf2484","null","<p style=""text-align: center;"">+</p>","null","fixation","","","","","","","","","","","","","","","","","","","","",""
"","","","","","html-slider-response","27","174444","0.0-17.0-0.3","664ded3d-fe75-41d7-8a08-2596a5bf2484","1000","
                  <p style=""text-align: center;"">₪39
                                                <br>60%</p>
                  <p id=""wtp"" style=""text-align:center; margin-top: 0px; margin-bottom: 0px; font-size: 40px"";>&ensp;</p>","-","viewing","0","15","9C,25B","","","","","","","","","","","","","","","","","",""
"","","","","","html-slider-response","28","177598","0.0-17.0-1.3","664ded3d-fe75-41d7-8a08-2596a5bf2484","3152","
                  <p style=""text-align: center;"">₪39
                                                <br>60%</p>
                  <p id=""wtp"" style=""text-align:center; margin-top: 0px; margin-bottom: 0px; font-size: 40px"";>מוכנים לשלם: <span id=""c_p_y""></span></p>","29","evaluation","57","15","9C,25B","60","39","29","","","","","","","","","","","","","","",""
"","","","","","html-keyboard-response","29","178555","0.0-17.0-2.3","664ded3d-fe75-41d7-8a08-2596a5bf2484","null","<p style=""text-align: center;"">+</p>","null","fixation","","","","","","","","","","","","","","","","","","","","",""
"","","","","","html-slider-response","30","179561","0.0-17.0-0.4","664ded3d-fe75-41d7-8a08-2596a5bf2484","1000","
                  <p style=""text-align: center;"">₪36
                                                <br>70%</p>
                  <p id=""wtp"" style=""text-align:center; margin-top: 0px; margin-bottom: 0px; font-size: 40px"";>&ensp;</p>","-","viewing","0","13","3A,5C,10B","","","","","","","","","","","","","","","","","",""
"","","","","","html-slider-response","31","183054","0.0-17.0-1.4","664ded3d-fe75-41d7-8a08-2596a5bf2484","3492","
                  <p style=""text-align: center;"">₪36
                                                <br>70%</p>
                  <p id=""wtp"" style=""text-align:center; margin-top: 0px; margin-bottom: 0px; font-size: 40px"";>מוכנים לשלם: <span id=""c_p_y""></span></p>","33","evaluation","2","13","3A,5C,10B","70","36","33","","","","","","","","","","","","","","",""
"","","","","","html-keyboard-response","32","184232","0.0-17.0-2.4","664ded3d-fe75-41d7-8a08-2596a5bf2484","null","<p style=""text-align: center;"">+</p>","null","fixation","","","","","","","","","","","","","","","","","","","","",""
"","","","","","html-slider-response","33","185246","0.0-17.0-0.5","664ded3d-fe75-41d7-8a08-2596a5bf2484","1000","
                  <p style=""text-align: center;"">₪58
                                                <br>40%</p>
                  <p id=""wtp"" style=""text-align:center; margin-top: 0px; margin-bottom: 0px; font-size: 40px"";>&ensp;</p>","-","viewing","0","20","10C,13A,19C,21B","","","","","","","","","","","","","","","","","",""
"","","","","","html-slider-response","34","188038","0.0-17.0-1.5","664ded3d-fe75-41d7-8a08-2596a5bf2484","2791","
                  <p style=""text-align: center;"">₪58
                                                <br>40%</p>
                  <p id=""wtp"" style=""text-align:center; margin-top: 0px; margin-bottom: 0px; font-size: 40px"";>מוכנים לשלם: <span id=""c_p_y""></span></p>","13","evaluation","43","20","10C,13A,19C,21B","40","58","14","","","","","","","","","","","","","","",""
"","","","","","html-keyboard-response","35","188926","0.0-17.0-2.5","664ded3d-fe75-41d7-8a08-2596a5bf2484","null","<p style=""text-align: center;"">+</p>","null","fixation","","","","","","","","","","","","","","","","","","","","",""
"","","","","","html-slider-response","36","189934","0.0-17.0-0.6","664ded3d-fe75-41d7-8a08-2596a5bf2484","1000","
                  <p style=""text-align: center;"">₪4
                                                <br>25%</p>
                  <p id=""wtp"" style=""text-align:center; margin-top: 0px; margin-bottom: 0px; font-size: 40px"";>&ensp;</p>","-","viewing","0","1","6C,29B,30C","","","","","","","","","","","","","","","","","",""
"","","","","","html-slider-response","37","193942","0.0-17.0-1.6","664ded3d-fe75-41d7-8a08-2596a5bf2484","null","
                  <p style=""text-align: center;"">₪4
                                                <br>25%</p>
                  <p id=""wtp"" style=""text-align:center; margin-top: 0px; margin-bottom: 0px; font-size: 40px"";>מוכנים לשלם: <span id=""c_p_y""></span></p>","null","evaluation","42","1","6C,29B,30C","25","4","1","","","","","","","","","","","","","","",""
"","","","","","html-keyboard-response","38","194556","0.0-17.0-2.6","664ded3d-fe75-41d7-8a08-2596a5bf2484","null","<p style=""text-align: center;"">+</p>","null","fixation","","","","","","","","","","","","","","","","","","","","",""
"","","","","","html-slider-response","39","195558","0.0-17.0-0.7","664ded3d-fe75-41d7-8a08-2596a5bf2484","1000","
                  <p style=""text-align: center;"">₪11
                                                <br>20%</p>
                  <p id=""wtp"" style=""text-align:center; margin-top: 0px; margin-bottom: 0px; font-size: 40px"";>&ensp;</p>","-","viewing","0","4","12C,17C,23C,28C","","","","","","","","","","","","","","","","","",""
"","","","","","html-slider-response","40","198078","0.0-17.0-1.7","664ded3d-fe75-41d7-8a08-2596a5bf2484","2518","
                  <p style=""text-align: center;"">₪11
                                                <br>20%</p>
                  <p id=""wtp"" style=""text-align:center; margin-top: 0px; margin-bottom: 0px; font-size: 40px"";>מוכנים לשלם: <span id=""c_p_y""></span></p>","6","evaluation","33","4","12C,17C,23C,28C","20","11","7","","","","","","","","","","","","","","",""
"","","","","","html-keyboard-response","41","198689","0.0-17.0-2.7","664ded3d-fe75-41d7-8a08-2596a5bf2484","null","<p style=""text-align: center;"">+</p>","null","fixation","","","","","","","","","","","","","","","","","","","","",""
"","","","","","html-slider-response","42","199702","0.0-17.0-0.8","664ded3d-fe75-41d7-8a08-2596a5bf2484","1000","
                  <p style=""text-align: center;"">₪61
                                                <br>45%</p>
                  <p id=""wtp"" style=""text-align:center; margin-top: 0px; margin-bottom: 0px; font-size: 40px"";>&ensp;</p>","-","viewing","0","22","10A,11A","","","","","","","","","","","","","","","","","",""
"","","","","","html-slider-response","43","202862","0.0-17.0-1.8","664ded3d-fe75-41d7-8a08-2596a5bf2484","3159","
                  <p style=""text-align: center;"">₪61
                                                <br>45%</p>
                  <p id=""wtp"" style=""text-align:center; margin-top: 0px; margin-bottom: 0px; font-size: 40px"";>מוכנים לשלם: <span id=""c_p_y""></span></p>","8","evaluation","56","22","10A,11A","45","61","9","","","","","","","","","","","","","","",""
"","","","","","html-keyboard-response","44","204155","0.0-17.0-2.8","664ded3d-fe75-41d7-8a08-2596a5bf2484","null","<p style=""text-align: center;"">+</p>","null","fixation","","","","","","","","","","","","","","","","","","","","",""
"","","","","","html-slider-response","45","205156","0.0-17.0-0.9","664ded3d-fe75-41d7-8a08-2596a5bf2484","1000","
                  <p style=""text-align: center;"">₪11
                                                <br>75%</p>
                  <p id=""wtp"" style=""text-align:center; margin-top: 0px; margin-bottom: 0px; font-size: 40px"";>&ensp;</p>","-","viewing","0","7","6B,18B,22C,24C,29A","","","","","","","","","","","","","","","","","",""
"","","","","","html-slider-response","46","207862","0.0-17.0-1.9","664ded3d-fe75-41d7-8a08-2596a5bf2484","2704","
                  <p style=""text-align: center;"">₪11
                                                <br>75%</p>
                  <p id=""wtp"" style=""text-align:center; margin-top: 0px; margin-bottom: 0px; font-size: 40px"";>מוכנים לשלם: <span id=""c_p_y""></span></p>","9","evaluation","55","7","6B,18B,22C,24C,29A","75","11","9","","","","","","","","","","","","","","",""
"","","","","","html-keyboard-response","47","209193","0.0-17.0-2.9","664ded3d-fe75-41d7-8a08-2596a5bf2484","null","<p style=""text-align: center;"">+</p>","null","fixation","","","","","","","","","","","","","","","","","","","","",""
"","","","","","html-slider-response","48","210195","0.0-17.0-0.10","664ded3d-fe75-41d7-8a08-2596a5bf2484","1000","
                  <p style=""text-align: center;"">₪64
                                                <br>25%</p>
                  <p id=""wtp"" style=""text-align:center; margin-top: 0px; margin-bottom: 0px; font-size: 40px"";>&ensp;</p>","-","viewing","0","24","6A,21A","","","","","","","","","","","","","","","","","",""
"","","","","","html-slider-response","49","214207","0.0-17.0-1.10","664ded3d-fe75-41d7-8a08-2596a5bf2484","null","
                  <p style=""text-align: center;"">₪64
                                                <br>25%</p>
                  <p id=""wtp"" style=""text-align:center; margin-top: 0px; margin-bottom: 0px; font-size: 40px"";>מוכנים לשלם: <span id=""c_p_y""></span></p>","null","evaluation","48","24","6A,21A","25","64","12","","","","","","","","","","","","","","",""
"","","","","","html-keyboard-response","50","215419","0.0-17.0-2.10","664ded3d-fe75-41d7-8a08-2596a5bf2484","null","<p style=""text-align: center;"">+</p>","null","fixation","","","","","","","","","","","","","","","","","","","","",""
"","","","","","html-slider-response","51","216432","0.0-17.0-0.11","664ded3d-fe75-41d7-8a08-2596a5bf2484","1000","
                  <p style=""text-align: center;"">₪71
                                                <br>55%</p>
                  <p id=""wtp"" style=""text-align:center; margin-top: 0px; margin-bottom: 0px; font-size: 40px"";>&ensp;</p>","-","viewing","0","27","5B,18A","","","","","","","","","","","","","","","","","",""
"","","","","","html-slider-response","52","219350","0.0-17.0-1.11","664ded3d-fe75-41d7-8a08-2596a5bf2484","2916","
                  <p style=""text-align: center;"">₪71
                                                <br>55%</p>
                  <p id=""wtp"" style=""text-align:center; margin-top: 0px; margin-bottom: 0px; font-size: 40px"";>מוכנים לשלם: <span id=""c_p_y""></span></p>","49","evaluation","59","27","5B,18A","55","71","49","","","","","","","","","","","","","","",""
"","","","","","html-keyboard-response","53","220848","0.0-17.0-2.11","664ded3d-fe75-41d7-8a08-2596a5bf2484","null","<p style=""text-align: center;"">+</p>","null","fixation","","","","","","","","","","","","","","","","","","","","",""
"","","","","","html-slider-response","54","221851","0.0-17.0-0.12","664ded3d-fe75-41d7-8a08-2596a5bf2484","1000","
                  <p style=""text-align: center;"">₪79
                                                <br>40%</p>
                  <p id=""wtp"" style=""text-align:center; margin-top: 0px; margin-bottom: 0px; font-size: 40px"";>&ensp;</p>","-","viewing","0","30","9B","","","","","","","","","","","","","","","","","",""
"","","","","","html-slider-response","55","224918","0.0-17.0-1.12","664ded3d-fe75-41d7-8a08-2596a5bf2484","3066","
                  <p style=""text-align: center;"">₪79
                                                <br>40%</p>
                  <p id=""wtp"" style=""text-align:center; margin-top: 0px; margin-bottom: 0px; font-size: 40px"";>מוכנים לשלם: <span id=""c_p_y""></span></p>","27","evaluation","78","30","9B","40","79","27","","","","","","","","","","","","","","",""
"","","","","","html-keyboard-response","56","226064","0.0-17.0-2.12","664ded3d-fe75-41d7-8a08-2596a5bf2484","null","<p style=""text-align: center;"">+</p>","null","fixation","","","","","","","","","","","","","","","","","","","","",""
"","","","","","html-slider-response","57","227075","0.0-17.0-0.13","664ded3d-fe75-41d7-8a08-2596a5bf2484","1000","
                  <p style=""text-align: center;"">₪11
                                                <br>45%</p>
                  <p id=""wtp"" style=""text-align:center; margin-top: 0px; margin-bottom: 0px; font-size: 40px"";>&ensp;</p>","-","viewing","0","6","14B,21C,25C","","","","","","","","","","","","","","","","","",""
"","","","","","html-slider-response","58","230166","0.0-17.0-1.13","664ded3d-fe75-41d7-8a08-2596a5bf2484","3089","
                  <p style=""text-align: center;"">₪11
                                                <br>45%</p>
                  <p id=""wtp"" style=""text-align:center; margin-top: 0px; margin-bottom: 0px; font-size: 40px"";>מוכנים לשלם: <span id=""c_p_y""></span></p>","8","evaluation","10","6","14B,21C,25C","45","11","9","","","","","","","","","","","","","","",""
"","","","","","html-keyboard-response","59","230921","0.0-17.0-2.13","664ded3d-fe75-41d7-8a08-2596a5bf2484","null","<p style=""text-align: center;"">+</p>","null","fixation","","","","","","","","","","","","","","","","","","","","",""
"","","","","","html-slider-response","60","231927","0.0-17.0-0.14","664ded3d-fe75-41d7-8a08-2596a5bf2484","1000","
                  <p style=""text-align: center;"">₪4
                                                <br>50%</p>
                  <p id=""wtp"" style=""text-align:center; margin-top: 0px; margin-bottom: 0px; font-size: 40px"";>&ensp;</p>","-","viewing","0","2","4C,17B","","","","","","","","","","","","","","","","","",""
"","","","","","html-slider-response","61","235166","0.0-17.0-1.14","664ded3d-fe75-41d7-8a08-2596a5bf2484","3238","
                  <p style=""text-align: center;"">₪4
                                                <br>50%</p>
                  <p id=""wtp"" style=""text-align:center; margin-top: 0px; margin-bottom: 0px; font-size: 40px"";>מוכנים לשלם: <span id=""c_p_y""></span></p>","3","evaluation","24","2","4C,17B","50","4","4","","","","","","","","","","","","","","",""
"","","","","","html-keyboard-response","62","235991","0.0-17.0-2.14","664ded3d-fe75-41d7-8a08-2596a5bf2484","null","<p style=""text-align: center;"">+</p>","null","fixation","","","","","","","","","","","","","","","","","","","","",""
"","","","","","html-slider-response","63","236994","0.0-17.0-0.15","664ded3d-fe75-41d7-8a08-2596a5bf2484","1000","
                  <p style=""text-align: center;"">₪71
                                                <br>75%</p>
                  <p id=""wtp"" style=""text-align:center; margin-top: 0px; margin-bottom: 0px; font-size: 40px"";>&ensp;</p>","-","viewing","0","28","8B","","","","","","","","","","","","","","","","","",""
"","","","","","html-slider-response","64","240694","0.0-17.0-1.15","664ded3d-fe75-41d7-8a08-2596a5bf2484","3699","
                  <p style=""text-align: center;"">₪71
                                                <br>75%</p>
                  <p id=""wtp"" style=""text-align:center; margin-top: 0px; margin-bottom: 0px; font-size: 40px"";>מוכנים לשלם: <span id=""c_p_y""></span></p>","52","evaluation","43","28","8B","75","71","51","","","","","","","","","","","","","","",""
"","","","","","html-keyboard-response","65","241438","0.0-17.0-2.15","664ded3d-fe75-41d7-8a08-2596a5bf2484","null","<p style=""text-align: center;"">+</p>","null","fixation","","","","","","","","","","","","","","","","","","","","",""
"","","","","","html-slider-response","66","242440","0.0-17.0-0.16","664ded3d-fe75-41d7-8a08-2596a5bf2484","1000","
                  <p style=""text-align: center;"">₪76
                                                <br>65%</p>
                  <p id=""wtp"" style=""text-align:center; margin-top: 0px; margin-bottom: 0px; font-size: 40px"";>&ensp;</p>","-","viewing","0","29","8C,19A,24B","","","","","","","","","","","","","","","","","",""
"","","","","","html-slider-response","67","244894","0.0-17.0-1.16","664ded3d-fe75-41d7-8a08-2596a5bf2484","2453","
                  <p style=""text-align: center;"">₪76
                                                <br>65%</p>
                  <p id=""wtp"" style=""text-align:center; margin-top: 0px; margin-bottom: 0px; font-size: 40px"";>מוכנים לשלם: <span id=""c_p_y""></span></p>","59","evaluation","54","29","8C,19A,24B","65","76","59","","","","","","","","","","","","","","",""
"","","","","","html-keyboard-response","68","245663","0.0-17.0-2.16","664ded3d-fe75-41d7-8a08-2596a5bf2484","null","<p style=""text-align: center;"">+</p>","null","fixation","","","","","","","","","","","","","","","","","","","","",""
"","","","","","html-slider-response","69","246666","0.0-17.0-0.17","664ded3d-fe75-41d7-8a08-2596a5bf2484","1000","
                  <p style=""text-align: center;"">₪18
                                                <br>50%</p>
                  <p id=""wtp"" style=""text-align:center; margin-top: 0px; margin-bottom: 0px; font-size: 40px"";>&ensp;</p>","-","viewing","0","10","2C,16C,22B,28A","","","","","","","","","","","","","","","","","",""
"","","","","","html-slider-response","70","248782","0.0-17.0-1.17","664ded3d-fe75-41d7-8a08-2596a5bf2484","2115","
                  <p style=""text-align: center;"">₪18
                                                <br>50%</p>
                  <p id=""wtp"" style=""text-align:center; margin-top: 0px; margin-bottom: 0px; font-size: 40px"";>מוכנים לשלם: <span id=""c_p_y""></span></p>","8","evaluation","50","10","2C,16C,22B,28A","50","18","9","","","","","","","","","","","","","","",""
"","","","","","html-keyboard-response","71","249640","0.0-17.0-2.17","664ded3d-fe75-41d7-8a08-2596a5bf2484","null","<p style=""text-align: center;"">+</p>","null","fixation","","","","","","","","","","","","","","","","","","","","",""
"","","","","","html-slider-response","72","250642","0.0-17.0-0.18","664ded3d-fe75-41d7-8a08-2596a5bf2484","1000","
                  <p style=""text-align: center;"">₪61
                                                <br>55%</p>
                  <p id=""wtp"" style=""text-align:center; margin-top: 0px; margin-bottom: 0px; font-size: 40px"";>&ensp;</p>","-","viewing","0","23","7B,26B","","","","","","","","","","","","","","","","","",""
"","","","","","html-slider-response","73","253750","0.0-17.0-1.18","664ded3d-fe75-41d7-8a08-2596a5bf2484","3106","
                  <p style=""text-align: center;"">₪61
                                                <br>55%</p>
                  <p id=""wtp"" style=""text-align:center; margin-top: 0px; margin-bottom: 0px; font-size: 40px"";>מוכנים לשלם: <span id=""c_p_y""></span></p>","8","evaluation","9","23","7B,26B","55","61","9","","","","","","","","","","","","","","",""
"","","","","","html-keyboard-response","74","254380","0.0-17.0-2.18","664ded3d-fe75-41d7-8a08-2596a5bf2484","null","<p style=""text-align: center;"">+</p>","null","fixation","","","","","","","","","","","","","","","","","","","","",""
"","","","","","html-slider-response","75","255382","0.0-17.0-0.19","664ded3d-fe75-41d7-8a08-2596a5bf2484","1000","
                  <p style=""text-align: center;"">₪36
                                                <br>60%</p>
                  <p id=""wtp"" style=""text-align:center; margin-top: 0px; margin-bottom: 0px; font-size: 40px"";>&ensp;</p>","-","viewing","0","12","1C,7C,15C","","","","","","","","","","","","","","","","","",""
"","","","","","html-slider-response","76","257318","0.0-17.0-1.19","664ded3d-fe75-41d7-8a08-2596a5bf2484","1935","
                  <p style=""text-align: center;"">₪36
                                                <br>60%</p>
                  <p id=""wtp"" style=""text-align:center; margin-top: 0px; margin-bottom: 0px; font-size: 40px"";>מוכנים לשלם: <span id=""c_p_y""></span></p>","27","evaluation","33","12","1C,7C,15C","60","36","28","","","","","","","","","","","","","","",""
"","","","","","html-keyboard-response","77","258774","0.0-17.0-2.19","664ded3d-fe75-41d7-8a08-2596a5bf2484","null","<p style=""text-align: center;"">+</p>","null","fixation","","","","","","","","","","","","","","","","","","","","",""
"","","","","","html-slider-response","78","259786","0.0-17.0-0.20","664ded3d-fe75-41d7-8a08-2596a5bf2484","1000","
                  <p style=""text-align: center;"">₪79
                                                <br>65%</p>
                  <p id=""wtp"" style=""text-align:center; margin-top: 0px; margin-bottom: 0px; font-size: 40px"";>&ensp;</p>","-","viewing","0","31","8A","","","","","","","","","","","","","","","","","",""
"","","","","","html-slider-response","79","262663","0.0-17.0-1.20","664ded3d-fe75-41d7-8a08-2596a5bf2484","2876","
                  <p style=""text-align: center;"">₪79
                                                <br>65%</p>
                  <p id=""wtp"" style=""text-align:center; margin-top: 0px; margin-bottom: 0px; font-size: 40px"";>מוכנים לשלם: <span id=""c_p_y""></span></p>","70","evaluation","67","31","8A","65","79","70","","","","","","","","","","","","","","",""
"","","","","","html-keyboard-response","80","263991","0.0-17.0-2.20","664ded3d-fe75-41d7-8a08-2596a5bf2484","null","<p style=""text-align: center;"">+</p>","null","fixation","","","","","","","","","","","","","","","","","","","","",""
"","","","","","html-slider-response","81","264997","0.0-17.0-0.21","664ded3d-fe75-41d7-8a08-2596a5bf2484","1000","
                  <p style=""text-align: center;"">₪58
                                                <br>45%</p>
                  <p id=""wtp"" style=""text-align:center; margin-top: 0px; margin-bottom: 0px; font-size: 40px"";>&ensp;</p>","-","viewing","0","21","11C,18C,25A","","","","","","","","","","","","","","","","","",""
"","","","","","html-slider-response","82","268031","0.0-17.0-1.21","664ded3d-fe75-41d7-8a08-2596a5bf2484","3032","
                  <p style=""text-align: center;"">₪58
                                                <br>45%</p>
                  <p id=""wtp"" style=""text-align:center; margin-top: 0px; margin-bottom: 0px; font-size: 40px"";>מוכנים לשלם: <span id=""c_p_y""></span></p>","33","evaluation","39","21","11C,18C,25A","45","58","33","","","","","","","","","","","","","","",""
"","","","","","html-keyboard-response","83","269383","0.0-17.0-2.21","664ded3d-fe75-41d7-8a08-2596a5bf2484","null","<p style=""text-align: center;"">+</p>","null","fixation","","","","","","","","","","","","","","","","","","","","",""
"","","","","","html-slider-response","84","270394","0.0-17.0-0.22","664ded3d-fe75-41d7-8a08-2596a5bf2484","1000","
                  <p style=""text-align: center;"">₪36
                                                <br>30%</p>
                  <p id=""wtp"" style=""text-align:center; margin-top: 0px; margin-bottom: 0px; font-size: 40px"";>&ensp;</p>","-","viewing","0","11","3C,20A,22A","","","","","","","","","","","","","","","","","",""
"","","","","","html-slider-response","85","273935","0.0-17.0-1.22","664ded3d-fe75-41d7-8a08-2596a5bf2484","3540","
                  <p style=""text-align: center;"">₪36
                                                <br>30%</p>
                  <p id=""wtp"" style=""text-align:center; margin-top: 0px; margin-bottom: 0px; font-size: 40px"";>מוכנים לשלם: <span id=""c_p_y""></span></p>","26","evaluation","68","11","3C,20A,22A","30","36","26","","","","","","","","","","","","","","",""
"","","","","","html-keyboard-response","86","275404","0.0-17.0-2.22","664ded3d-fe75-41d7-8a08-2596a5bf2484","null","<p style=""text-align: center;"">+</p>","null","fixation","","","","","","","","","","","","","","","","","","","","",""
"","","","","","html-slider-response","87","276407","0.0-17.0-0.23","664ded3d-fe75-41d7-8a08-2596a5bf2484","1000","
                  <p style=""text-align: center;"">₪39
                                                <br>65%</p>
                  <p id=""wtp"" style=""text-align:center; margin-top: 0px; margin-bottom: 0px; font-size: 40px"";>&ensp;</p>","-","viewing","0","16","1A,15A,26C","","","","","","","","","","","","","","","","","",""
"","","","","","html-slider-response","88","280412","0.0-17.0-1.23","664ded3d-fe75-41d7-8a08-2596a5bf2484","null","
                  <p style=""text-align: center;"">₪39
                                                <br>65%</p>
                  <p id=""wtp"" style=""text-align:center; margin-top: 0px; margin-bottom: 0px; font-size: 40px"";>מוכנים לשלם: <span id=""c_p_y""></span></p>","null","evaluation","39","16","1A,15A,26C","65","39","38","","","","","","","","","","","","","","",""
"","","","","","html-keyboard-response","89","281251","0.0-17.0-2.23","664ded3d-fe75-41d7-8a08-2596a5bf2484","null","<p style=""text-align: center;"">+</p>","null","fixation","","","","","","","","","","","","","","","","","","","","",""
"","","","","","html-slider-response","90","282264","0.0-17.0-0.24","664ded3d-fe75-41d7-8a08-2596a5bf2484","1000","
                  <p style=""text-align: center;"">₪16
                                                <br>20%</p>
                  <p id=""wtp"" style=""text-align:center; margin-top: 0px; margin-bottom: 0px; font-size: 40px"";>&ensp;</p>","-","viewing","0","8","14C,17A,20C,27A","","","","","","","","","","","","","","","","","",""
"","","","","","html-slider-response","91","284895","0.0-17.0-1.24","664ded3d-fe75-41d7-8a08-2596a5bf2484","2629","
                  <p style=""text-align: center;"">₪16
                                                <br>20%</p>
                  <p id=""wtp"" style=""text-align:center; margin-top: 0px; margin-bottom: 0px; font-size: 40px"";>מוכנים לשלם: <span id=""c_p_y""></span></p>","7","evaluation","76","8","14C,17A,20C,27A","20","16","7","","","","","","","","","","","","","","",""
"","","","","","html-keyboard-response","92","285835","0.0-17.0-2.24","664ded3d-fe75-41d7-8a08-2596a5bf2484","null","<p style=""text-align: center;"">+</p>","null","fixation","","","","","","","","","","","","","","","","","","","","",""
"","","","","","html-slider-response","93","286846","0.0-17.0-0.25","664ded3d-fe75-41d7-8a08-2596a5bf2484","1000","
                  <p style=""text-align: center;"">₪36
                                                <br>75%</p>
                  <p id=""wtp"" style=""text-align:center; margin-top: 0px; margin-bottom: 0px; font-size: 40px"";>&ensp;</p>","-","viewing","0","14","4B,5A,13B,16B","","","","","","","","","","","","","","","","","",""
"","","","","","html-slider-response","94","289239","0.0-17.0-1.25","664ded3d-fe75-41d7-8a08-2596a5bf2484","2392","
                  <p style=""text-align: center;"">₪36
                                                <br>75%</p>
                  <p id=""wtp"" style=""text-align:center; margin-top: 0px; margin-bottom: 0px; font-size: 40px"";>מוכנים לשלם: <span id=""c_p_y""></span></p>","22","evaluation","53","14","4B,5A,13B,16B","75","36","22","","","","","","","","","","","","","","",""
"","","","","","html-keyboard-response","95","290655","0.0-17.0-2.25","664ded3d-fe75-41d7-8a08-2596a5bf2484","null","<p style=""text-align: center;"">+</p>","null","fixation","","","","","","","","","","","","","","","","","","","","",""
"","","","","","html-slider-response","96","291656","0.0-17.0-0.26","664ded3d-fe75-41d7-8a08-2596a5bf2484","1000","
                  <p style=""text-align: center;"">₪43
                                                <br>60%</p>
                  <p id=""wtp"" style=""text-align:center; margin-top: 0px; margin-bottom: 0px; font-size: 40px"";>&ensp;</p>","-","viewing","0","17","2A,7A,9A,15B","","","","","","","","","","","","","","","","","",""
"","","","","","html-slider-response","97","294695","0.0-17.0-1.26","664ded3d-fe75-41d7-8a08-2596a5bf2484","3038","
                  <p style=""text-align: center;"">₪43
                                                <br>60%</p>
                  <p id=""wtp"" style=""text-align:center; margin-top: 0px; margin-bottom: 0px; font-size: 40px"";>מוכנים לשלם: <span id=""c_p_y""></span></p>","27","evaluation","22","17","2A,7A,9A,15B","60","43","27","","","","","","","","","","","","","","",""
"","","","","","html-keyboard-response","98","295611","0.0-17.0-2.26","664ded3d-fe75-41d7-8a08-2596a5bf2484","null","<p style=""text-align: center;"">+</p>","null","fixation","","","","","","","","","","","","","","","","","","","","",""
"","","","","","html-slider-response","99","296626","0.0-17.0-0.27","664ded3d-fe75-41d7-8a08-2596a5bf2484","1000","
                  <p style=""text-align: center;"">₪58
                                                <br>30%</p>
                  <p id=""wtp"" style=""text-align:center; margin-top: 0px; margin-bottom: 0px; font-size: 40px"";>&ensp;</p>","-","viewing","0","19","13C,30A","","","","","","","","","","","","","","","","","",""
"","","","","","html-slider-response","100","299958","0.0-17.0-1.27","664ded3d-fe75-41d7-8a08-2596a5bf2484","3331","
                  <p style=""text-align: center;"">₪58
                                                <br>30%</p>
                  <p id=""wtp"" style=""text-align:center; margin-top: 0px; margin-bottom: 0px; font-size: 40px"";>מוכנים לשלם: <span id=""c_p_y""></span></p>","24","evaluation","2","19","13C,30A","30","58","24","","","","","","","","","","","","","","",""
"","","","","","html-keyboard-response","101","301094","0.0-17.0-2.27","664ded3d-fe75-41d7-8a08-2596a5bf2484","null","<p style=""text-align: center;"">+</p>","null","fixation","","","","","","","","","","","","","","","","","","","","",""
"","","","","","html-slider-response","102","302096","0.0-17.0-0.28","664ded3d-fe75-41d7-8a08-2596a5bf2484","1000","
                  <p style=""text-align: center;"">₪4
                                                <br>75%</p>
                  <p id=""wtp"" style=""text-align:center; margin-top: 0px; margin-bottom: 0px; font-size: 40px"";>&ensp;</p>","-","viewing","0","3","12B,20B,23B,27C,29C","","","","","","","","","","","","","","","","","",""
"","","","","","html-slider-response","103","304311","0.0-17.0-1.28","664ded3d-fe75-41d7-8a08-2596a5bf2484","2213","
                  <p style=""text-align: center;"">₪4
                                                <br>75%</p>
                  <p id=""wtp"" style=""text-align:center; margin-top: 0px; margin-bottom: 0px; font-size: 40px"";>מוכנים לשלם: <span id=""c_p_y""></span></p>","2","evaluation","75","3","12B,20B,23B,27C,29C","75","4","2","","","","","","","","","","","","","","",""
"","","","","","html-keyboard-response","104","305785","0.0-17.0-2.28","664ded3d-fe75-41d7-8a08-2596a5bf2484","null","<p style=""text-align: center;"">+</p>","null","fixation","","","","","","","","","","","","","","","","","","","","",""
"","","","","","html-slider-response","105","306799","0.0-17.0-0.29","664ded3d-fe75-41d7-8a08-2596a5bf2484","1000","
                  <p style=""text-align: center;"">₪71
                                                <br>45%</p>
                  <p id=""wtp"" style=""text-align:center; margin-top: 0px; margin-bottom: 0px; font-size: 40px"";>&ensp;</p>","-","viewing","0","26","2B,16A","","","","","","","","","","","","","","","","","",""
"","","","","","html-slider-response","106","308711","0.0-17.0-1.29","664ded3d-fe75-41d7-8a08-2596a5bf2484","1911","
                  <p style=""text-align: center;"">₪71
                                                <br>45%</p>
                  <p id=""wtp"" style=""text-align:center; margin-top: 0px; margin-bottom: 0px; font-size: 40px"";>מוכנים לשלם: <span id=""c_p_y""></span></p>","26","evaluation","34","26","2B,16A","45","71","26","","","","","","","","","","","","","","",""
"","","","","","html-keyboard-response","107","309636","0.0-17.0-2.29","664ded3d-fe75-41d7-8a08-2596a5bf2484","null","<p style=""text-align: center;"">+</p>","null","fixation","","","","","","","","","","","","","","","","","","","","",""
"","","","","","html-slider-response","108","310643","0.0-17.0-0.30","664ded3d-fe75-41d7-8a08-2596a5bf2484","1000","
                  <p style=""text-align: center;"">₪64
                                                <br>50%</p>
                  <p id=""wtp"" style=""text-align:center; margin-top: 0px; margin-bottom: 0px; font-size: 40px"";>&ensp;</p>","-","viewing","0","25","1B,3B,4A","","","","","","","","","","","","","","","","","",""
"","","","","","html-slider-response","109","313559","0.0-17.0-1.30","664ded3d-fe75-41d7-8a08-2596a5bf2484","2915","
                  <p style=""text-align: center;"">₪64
                                                <br>50%</p>
                  <p id=""wtp"" style=""text-align:center; margin-top: 0px; margin-bottom: 0px; font-size: 40px"";>מוכנים לשלם: <span id=""c_p_y""></span></p>","32","evaluation","7","25","1B,3B,4A","50","64","32","","","","","","","","","","","","","","",""
"","","","","","html-keyboard-response","110","314737","0.0-17.0-2.30","664ded3d-fe75-41d7-8a08-2596a5bf2484","null","<p style=""text-align: center;"">+</p>","null","fixation","","","","","","","","","","","","","","","","","","","","",""
"","","","","","html-keyboard-response","111","315742","0.0-18.0","664ded3d-fe75-41d7-8a08-2596a5bf2484","null","<p style=""text-align: center;"">+</p>","null","fixation","","","","","","","","","","","","","","","","","","","","",""
"","","","","","html-keyboard-response","112","317910","0.0-19.0","664ded3d-fe75-41d7-8a08-2596a5bf2484","null","<p>הפסקה.
          <br>לחצו כדי להמשיך.</p>","1","scan_wait","","","","","","","","","","","","","","","","","","","","",""
"","","","","","html-keyboard-response","113","318921","0.0-20.0","664ded3d-fe75-41d7-8a08-2596a5bf2484","null","<p style=""text-align: center;"">+</p>","null","fixation","","","","","","","","","","","","","","","","","","","","",""
"","","","","","html-slider-response","114","319925","0.0-21.0-0.0","664ded3d-fe75-41d7-8a08-2596a5bf2484","1000","
                  <p style=""text-align: center;"">₪64
                                                <br>50%</p>
                  <p id=""wtp"" style=""text-align:center; margin-top: 0px; margin-bottom: 0px; font-size: 40px"";>&ensp;</p>","-","viewing","0","25","1B,3B,4A","","","","","","","","","","","","","","","","","",""
"","","","","","html-slider-response","115","323671","0.0-21.0-1.0","664ded3d-fe75-41d7-8a08-2596a5bf2484","3745","
                  <p style=""text-align: center;"">₪64
                                                <br>50%</p>
                  <p id=""wtp"" style=""text-align:center; margin-top: 0px; margin-bottom: 0px; font-size: 40px"";>מוכנים לשלם: <span id=""c_p_y""></span></p>","32","evaluation","71","25","1B,3B,4A","50","64","32","","","","","","","","","","","","","","",""
"","","","","","html-keyboard-response","116","324964","0.0-21.0-2.0","664ded3d-fe75-41d7-8a08-2596a5bf2484","null","<p style=""text-align: center;"">+</p>","null","fixation","","","","","","","","","","","","","","","","","","","","",""
"","","","","","html-slider-response","117","325974","0.0-21.0-0.1","664ded3d-fe75-41d7-8a08-2596a5bf2484","1000","
                  <p style=""text-align: center;"">₪61
                                                <br>55%</p>
                  <p id=""wtp"" style=""text-align:center; margin-top: 0px; margin-bottom: 0px; font-size: 40px"";>&ensp;</p>","-","viewing","0","23","7B,26B","","","","","","","","","","","","","","","","","",""
"","","","","","html-slider-response","118","328975","0.0-21.0-1.1","664ded3d-fe75-41d7-8a08-2596a5bf2484","2999","
                  <p style=""text-align: center;"">₪61
                                                <br>55%</p>
                  <p id=""wtp"" style=""text-align:center; margin-top: 0px; margin-bottom: 0px; font-size: 40px"";>מוכנים לשלם: <span id=""c_p_y""></span></p>","28","evaluation","32","23","7B,26B","55","61","28","","","","","","","","","","","","","","",""
"","","","","","html-keyboard-response","119","330283","0.0-21.0-2.1","664ded3d-fe75-41d7-8a08-2596a5bf2484","null","<p style=""text-align: center;"">+</p>","null","fixation","","","","","","","","","","","","","","","","","","","","",""
"","","","","","html-slider-response","120","331290","0.0-21.0-0.2","664ded3d-fe75-41d7-8a08-2596a5bf2484","1000","
                  <p style=""text-align: center;"">₪76
                                                <br>65%</p>
                  <p id=""wtp"" style=""text-align:center; margin-top: 0px; margin-bottom: 0px; font-size: 40px"";>&ensp;</p>","-","viewing","0","29","8C,19A,24B","","","","","","","","","","","","","","","","","",""
"","","","","","html-slider-response","121","334007","0.0-21.0-1.2","664ded3d-fe75-41d7-8a08-2596a5bf2484","2716","
                  <p style=""text-align: center;"">₪76
                                                <br>65%</p>
                  <p id=""wtp"" style=""text-align:center; margin-top: 0px; margin-bottom: 0px; font-size: 40px"";>מוכנים לשלם: <span id=""c_p_y""></span></p>","56","evaluation","56","29","8C,19A,24B","65","76","56","","","","","","","","","","","","","","",""
"","","","","","html-keyboard-response","122","335050","0.0-21.0-2.2","664ded3d-fe75-41d7-8a08-2596a5bf2484","null","<p style=""text-align: center;"">+</p>","null","fixation","","","","","","","","","","","","","","","","","","","","",""
"","","","","","html-slider-response","123","336052","0.0-21.0-0.3","664ded3d-fe75-41d7-8a08-2596a5bf2484","1000","
                  <p style=""text-align: center;"">₪4
                                                <br>75%</p>
                  <p id=""wtp"" style=""text-align:center; margin-top: 0px; margin-bottom: 0px; font-size: 40px"";>&ensp;</p>","-","viewing","0","3","12B,20B,23B,27C,29C","","","","","","","","","","","","","","","","","",""
"","","","","","html-slider-response","124","338279","0.0-21.0-1.3","664ded3d-fe75-41d7-8a08-2596a5bf2484","2224","
                  <p style=""text-align: center;"">₪4
                                                <br>75%</p>
                  <p id=""wtp"" style=""text-align:center; margin-top: 0px; margin-bottom: 0px; font-size: 40px"";>מוכנים לשלם: <span id=""c_p_y""></span></p>","4","evaluation","39","3","12B,20B,23B,27C,29C","75","4","5","","","","","","","","","","","","","","",""
"","","","","","html-keyboard-response","125","338942","0.0-21.0-2.3","664ded3d-fe75-41d7-8a08-2596a5bf2484","null","<p style=""text-align: center;"">+</p>","null","fixation","","","","","","","","","","","","","","","","","","","","",""
"","","","","","html-slider-response","126","339946","0.0-21.0-0.4","664ded3d-fe75-41d7-8a08-2596a5bf2484","1000","
                  <p style=""text-align: center;"">₪43
                                                <br>75%</p>
                  <p id=""wtp"" style=""text-align:center; margin-top: 0px; margin-bottom: 0px; font-size: 40px"";>&ensp;</p>","-","viewing","0","18","11B,19B,24A,26A","","","","","","","","","","","","","","","","","",""
"","","","","","html-slider-response","127","343599","0.0-21.0-1.4","664ded3d-fe75-41d7-8a08-2596a5bf2484","3652","
                  <p style=""text-align: center;"">₪43
                                                <br>75%</p>
                  <p id=""wtp"" style=""text-align:center; margin-top: 0px; margin-bottom: 0px; font-size: 40px"";>מוכנים לשלם: <span id=""c_p_y""></span></p>","29","evaluation","21","18","11B,19B,24A,26A","75","43","29","","","","","","","","","","","","","","",""
"","","","","","html-keyboard-response","128","344323","0.0-21.0-2.4","664ded3d-fe75-41d7-8a08-2596a5bf2484","null","<p style=""text-align: center;"">+</p>","null","fixation","","","","","","","","","","","","","","","","","","","","",""
"","","","","","html-slider-response","129","345325","0.0-21.0-0.5","664ded3d-fe75-41d7-8a08-2596a5bf2484","1000","
                  <p style=""text-align: center;"">₪58
                                                <br>45%</p>
                  <p id=""wtp"" style=""text-align:center; margin-top: 0px; margin-bottom: 0px; font-size: 40px"";>&ensp;</p>","-","viewing","0","21","11C,18C,25A","","","","","","","","","","","","","","","","","",""
"","","","","","html-slider-response","130","348231","0.0-21.0-1.5","664ded3d-fe75-41d7-8a08-2596a5bf2484","2903","
                  <p style=""text-align: center;"">₪58
                                                <br>45%</p>
                  <p id=""wtp"" style=""text-align:center; margin-top: 0px; margin-bottom: 0px; font-size: 40px"";>מוכנים לשלם: <span id=""c_p_y""></span></p>","30","evaluation","77","21","11C,18C,25A","45","58","30","","","","","","","","","","","","","","",""
"","","","","","html-keyboard-response","131","349343","0.0-21.0-2.5","664ded3d-fe75-41d7-8a08-2596a5bf2484","null","<p style=""text-align: center;"">+</p>","null","fixation","","","","","","","","","","","","","","","","","","","","",""
"","","","","","html-slider-response","132","350356","0.0-21.0-0.6","664ded3d-fe75-41d7-8a08-2596a5bf2484","1000","
                  <p style=""text-align: center;"">₪58
                                                <br>40%</p>
                  <p id=""wtp"" style=""text-align:center; margin-top: 0px; margin-bottom: 0px; font-size: 40px"";>&ensp;</p>","-","viewing","0","20","10C,13A,19C,21B","","","","","","","","","","","","","","","","","",""
"","","","","","html-slider-response","133","353359","0.0-21.0-1.6","664ded3d-fe75-41d7-8a08-2596a5bf2484","3001","
                  <p style=""text-align: center;"">₪58
                                                <br>40%</p>
                  <p id=""wtp"" style=""text-align:center; margin-top: 0px; margin-bottom: 0px; font-size: 40px"";>מוכנים לשלם: <span id=""c_p_y""></span></p>","32","evaluation","62","20","10C,13A,19C,21B","40","58","32","","","","","","","","","","","","","","",""
"","","","","","html-keyboard-response","134","354135","0.0-21.0-2.6","664ded3d-fe75-41d7-8a08-2596a5bf2484","null","<p style=""text-align: center;"">+</p>","null","fixation","","","","","","","","","","","","","","","","","","","","",""
"","","","","","html-slider-response","135","355137","0.0-21.0-0.7","664ded3d-fe75-41d7-8a08-2596a5bf2484","1000","
                  <p style=""text-align: center;"">₪36
                                                <br>30%</p>
                  <p id=""wtp"" style=""text-align:center; margin-top: 0px; margin-bottom: 0px; font-size: 40px"";>&ensp;</p>","-","viewing","0","11","3C,20A,22A","","","","","","","","","","","","","","","","","",""
"","","","","","html-slider-response","136","358407","0.0-21.0-1.7","664ded3d-fe75-41d7-8a08-2596a5bf2484","3268","
                  <p style=""text-align: center;"">₪36
                                                <br>30%</p>
                  <p id=""wtp"" style=""text-align:center; margin-top: 0px; margin-bottom: 0px; font-size: 40px"";>מוכנים לשלם: <span id=""c_p_y""></span></p>","12","evaluation","10","11","3C,20A,22A","30","36","12","","","","","","","","","","","","","","",""
"","","","","","html-keyboard-response","137","359204","0.0-21.0-2.7","664ded3d-fe75-41d7-8a08-2596a5bf2484","null","<p style=""text-align: center;"">+</p>","null","fixation","","","","","","","","","","","","","","","","","","","","",""
"","","","","","html-slider-response","138","360208","0.0-21.0-0.8","664ded3d-fe75-41d7-8a08-2596a5bf2484","1000","
                  <p style=""text-align: center;"">₪4
                                                <br>50%</p>
                  <p id=""wtp"" style=""text-align:center; margin-top: 0px; margin-bottom: 0px; font-size: 40px"";>&ensp;</p>","-","viewing","0","2","4C,17B","","","","","","","","","","","","","","","","","",""
"","","","","","html-slider-response","139","362167","0.0-21.0-1.8","664ded3d-fe75-41d7-8a08-2596a5bf2484","1957","
                  <p style=""text-align: center;"">₪4
                                                <br>50%</p>
                  <p id=""wtp"" style=""text-align:center; margin-top: 0px; margin-bottom: 0px; font-size: 40px"";>מוכנים לשלם: <span id=""c_p_y""></span></p>","2","evaluation","49","2","4C,17B","50","4","2","","","","","","","","","","","","","","",""
"","","","","","html-keyboard-response","140","363005","0.0-21.0-2.8","664ded3d-fe75-41d7-8a08-2596a5bf2484","null","<p style=""text-align: center;"">+</p>","null","fixation","","","","","","","","","","","","","","","","","","","","",""
"","","","","","html-slider-response","141","364010","0.0-21.0-0.9","664ded3d-fe75-41d7-8a08-2596a5bf2484","1000","
                  <p style=""text-align: center;"">₪36
                                                <br>75%</p>
                  <p id=""wtp"" style=""text-align:center; margin-top: 0px; margin-bottom: 0px; font-size: 40px"";>&ensp;</p>","-","viewing","0","14","4B,5A,13B,16B","","","","","","","","","","","","","","","","","",""
"","","","","","html-slider-response","142","367479","0.0-21.0-1.9","664ded3d-fe75-41d7-8a08-2596a5bf2484","3468","
                  <p style=""text-align: center;"">₪36
                                                <br>75%</p>
                  <p id=""wtp"" style=""text-align:center; margin-top: 0px; margin-bottom: 0px; font-size: 40px"";>מוכנים לשלם: <span id=""c_p_y""></span></p>","26","evaluation","2","14","4B,5A,13B,16B","75","36","26","","","","","","","","","","","","","","",""
"","","","","","html-keyboard-response","143","368021","0.0-21.0-2.9","664ded3d-fe75-41d7-8a08-2596a5bf2484","null","<p style=""text-align: center;"">+</p>","null","fixation","","","","","","","","","","","","","","","","","","","","",""
"","","","","","html-slider-response","144","369026","0.0-21.0-0.10","664ded3d-fe75-41d7-8a08-2596a5bf2484","1000","
                  <p style=""text-align: center;"">₪11
                                                <br>45%</p>
                  <p id=""wtp"" style=""text-align:center; margin-top: 0px; margin-bottom: 0px; font-size: 40px"";>&ensp;</p>","-","viewing","0","6","14B,21C,25C","","","","","","","","","","","","","","","","","",""
"","","","","","html-slider-response","145","371623","0.0-21.0-1.10","664ded3d-fe75-41d7-8a08-2596a5bf2484","2595","
                  <p style=""text-align: center;"">₪11
                                                <br>45%</p>
                  <p id=""wtp"" style=""text-align:center; margin-top: 0px; margin-bottom: 0px; font-size: 40px"";>מוכנים לשלם: <span id=""c_p_y""></span></p>","3","evaluation","44","6","14B,21C,25C","45","11","3","","","","","","","","","","","","","","",""
"","","","","","html-keyboard-response","146","373074","0.0-21.0-2.10","664ded3d-fe75-41d7-8a08-2596a5bf2484","null","<p style=""text-align: center;"">+</p>","null","fixation","","","","","","","","","","","","","","","","","","","","",""
"","","","","","html-slider-response","147","374081","0.0-21.0-0.11","664ded3d-fe75-41d7-8a08-2596a5bf2484","1000","
                  <p style=""text-align: center;"">₪64
                                                <br>25%</p>
                  <p id=""wtp"" style=""text-align:center; margin-top: 0px; margin-bottom: 0px; font-size: 40px"";>&ensp;</p>","-","viewing","0","24","6A,21A","","","","","","","","","","","","","","","","","",""
"","","","","","html-slider-response","148","377599","0.0-21.0-1.11","664ded3d-fe75-41d7-8a08-2596a5bf2484","3517","
                  <p style=""text-align: center;"">₪64
                                                <br>25%</p>
                  <p id=""wtp"" style=""text-align:center; margin-top: 0px; margin-bottom: 0px; font-size: 40px"";>מוכנים לשלם: <span id=""c_p_y""></span></p>","30","evaluation","19","24","6A,21A","25","64","30","","","","","","","","","","","","","","",""
"","","","","","html-keyboard-response","149","378363","0.0-21.0-2.11","664ded3d-fe75-41d7-8a08-2596a5bf2484","null","<p style=""text-align: center;"">+</p>","null","fixation","","","","","","","","","","","","","","","","","","","","",""
"","","","","","html-slider-response","150","379375","0.0-21.0-0.12","664ded3d-fe75-41d7-8a08-2596a5bf2484","1000","
                  <p style=""text-align: center;"">₪79
                                                <br>65%</p>
                  <p id=""wtp"" style=""text-align:center; margin-top: 0px; margin-bottom: 0px; font-size: 40px"";>&ensp;</p>","-","viewing","0","31","8A","","","","","","","","","","","","","","","","","",""
"","","","","","html-slider-response","151","383377","0.0-21.0-1.12","664ded3d-fe75-41d7-8a08-2596a5bf2484","null","
                  <p style=""text-align: center;"">₪79
                                                <br>65%</p>
                  <p id=""wtp"" style=""text-align:center; margin-top: 0px; margin-bottom: 0px; font-size: 40px"";>מוכנים לשלם: <span id=""c_p_y""></span></p>","null","evaluation","44","31","8A","65","79","48","","","","","","","","","","","","","","",""
"","","","","","html-keyboard-response","152","384670","0.0-21.0-2.12","664ded3d-fe75-41d7-8a08-2596a5bf2484","null","<p style=""text-align: center;"">+</p>","null","fixation","","","","","","","","","","","","","","","","","","","","",""
"","","","","","html-slider-response","153","385674","0.0-21.0-0.13","664ded3d-fe75-41d7-8a08-2596a5bf2484","1000","
                  <p style=""text-align: center;"">₪58
                                                <br>30%</p>
                  <p id=""wtp"" style=""text-align:center; margin-top: 0px; margin-bottom: 0px; font-size: 40px"";>&ensp;</p>","-","viewing","0","19","13C,30A","","","","","","","","","","","","","","","","","",""
"","","","","","html-slider-response","154","387846","0.0-21.0-1.13","664ded3d-fe75-41d7-8a08-2596a5bf2484","2171","
                  <p style=""text-align: center;"">₪58
                                                <br>30%</p>
                  <p id=""wtp"" style=""text-align:center; margin-top: 0px; margin-bottom: 0px; font-size: 40px"";>מוכנים לשלם: <span id=""c_p_y""></span></p>","21","evaluation","1","19","13C,30A","30","58","21","","","","","","","","","","","","","","",""
"","","","","","html-keyboard-response","155","388990","0.0-21.0-2.13","664ded3d-fe75-41d7-8a08-2596a5bf2484","null","<p style=""text-align: center;"">+</p>","null","fixation","","","","","","","","","","","","","","","","","","","","",""
"","","","","","html-slider-response","156","389992","0.0-21.0-0.14","664ded3d-fe75-41d7-8a08-2596a5bf2484","1000","
                  <p style=""text-align: center;"">₪79
                                                <br>40%</p>
                  <p id=""wtp"" style=""text-align:center; margin-top: 0px; margin-bottom: 0px; font-size: 40px"";>&ensp;</p>","-","viewing","0","30","9B","","","","","","","","","","","","","","","","","",""
"","","","","","html-slider-response","157","393054","0.0-21.0-1.14","664ded3d-fe75-41d7-8a08-2596a5bf2484","3061","
                  <p style=""text-align: center;"">₪79
                                                <br>40%</p>
                  <p id=""wtp"" style=""text-align:center; margin-top: 0px; margin-bottom: 0px; font-size: 40px"";>מוכנים לשלם: <span id=""c_p_y""></span></p>","34","evaluation","54","30","9B","40","79","34","","","","","","","","","","","","","","",""
"","","","","","html-keyboard-response","158","393572","0.0-21.0-2.14","664ded3d-fe75-41d7-8a08-2596a5bf2484","null","<p style=""text-align: center;"">+</p>","null","fixation","","","","","","","","","","","","","","","","","","","","",""
"","","","","","html-slider-response","159","394574","0.0-21.0-0.15","664ded3d-fe75-41d7-8a08-2596a5bf2484","1000","
                  <p style=""text-align: center;"">₪71
                                                <br>55%</p>
                  <p id=""wtp"" style=""text-align:center; margin-top: 0px; margin-bottom: 0px; font-size: 40px"";>&ensp;</p>","-","viewing","0","27","5B,18A","","","","","","","","","","","","","","","","","",""
"","","","","","html-slider-response","160","397454","0.0-21.0-1.15","664ded3d-fe75-41d7-8a08-2596a5bf2484","2880","
                  <p style=""text-align: center;"">₪71
                                                <br>55%</p>
                  <p id=""wtp"" style=""text-align:center; margin-top: 0px; margin-bottom: 0px; font-size: 40px"";>מוכנים לשלם: <span id=""c_p_y""></span></p>","34","evaluation","31","27","5B,18A","55","71","35","","","","","","","","","","","","","","",""
"","","","","","html-keyboard-response","161","398822","0.0-21.0-2.15","664ded3d-fe75-41d7-8a08-2596a5bf2484","null","<p style=""text-align: center;"">+</p>","null","fixation","","","","","","","","","","","","","","","","","","","","",""
"","","","","","html-slider-response","162","399837","0.0-21.0-0.16","664ded3d-fe75-41d7-8a08-2596a5bf2484","1000","
                  <p style=""text-align: center;"">₪71
                                                <br>75%</p>
                  <p id=""wtp"" style=""text-align:center; margin-top: 0px; margin-bottom: 0px; font-size: 40px"";>&ensp;</p>","-","viewing","0","28","8B","","","","","","","","","","","","","","","","","",""
"","","","","","html-slider-response","163","402406","0.0-21.0-1.16","664ded3d-fe75-41d7-8a08-2596a5bf2484","2568","
                  <p style=""text-align: center;"">₪71
                                                <br>75%</p>
                  <p id=""wtp"" style=""text-align:center; margin-top: 0px; margin-bottom: 0px; font-size: 40px"";>מוכנים לשלם: <span id=""c_p_y""></span></p>","54","evaluation","25","28","8B","75","71","54","","","","","","","","","","","","","","",""
"","","","","","html-keyboard-response","164","403624","0.0-21.0-2.16","664ded3d-fe75-41d7-8a08-2596a5bf2484","null","<p style=""text-align: center;"">+</p>","null","fixation","","","","","","","","","","","","","","","","","","","","",""
"","","","","","html-slider-response","165","404629","0.0-21.0-0.17","664ded3d-fe75-41d7-8a08-2596a5bf2484","1000","
                  <p style=""text-align: center;"">₪43
                                                <br>60%</p>
                  <p id=""wtp"" style=""text-align:center; margin-top: 0px; margin-bottom: 0px; font-size: 40px"";>&ensp;</p>","-","viewing","0","17","2A,7A,9A,15B","","","","","","","","","","","","","","","","","",""
"","","","","","html-slider-response","166","405710","0.0-21.0-1.17","664ded3d-fe75-41d7-8a08-2596a5bf2484","1080","
                  <p style=""text-align: center;"">₪43
                                                <br>60%</p>
                  <p id=""wtp"" style=""text-align:center; margin-top: 0px; margin-bottom: 0px; font-size: 40px"";>מוכנים לשלם: <span id=""c_p_y""></span></p>","29","evaluation","67","17","2A,7A,9A,15B","60","43","29","","","","","","","","","","","","","","",""
"","","","","","html-keyboard-response","167","406694","0.0-21.0-2.17","664ded3d-fe75-41d7-8a08-2596a5bf2484","null","<p style=""text-align: center;"">+</p>","null","fixation","","","","","","","","","","","","","","","","","","","","",""
"","","","","","html-slider-response","168","407696","0.0-21.0-0.18","664ded3d-fe75-41d7-8a08-2596a5bf2484","1000","
                  <p style=""text-align: center;"">₪18
                                                <br>25%</p>
                  <p id=""wtp"" style=""text-align:center; margin-top: 0px; margin-bottom: 0px; font-size: 40px"";>&ensp;</p>","-","viewing","0","9","14A,23A","","","","","","","","","","","","","","","","","",""
"","","","","","html-slider-response","169","411709","0.0-21.0-1.18","664ded3d-fe75-41d7-8a08-2596a5bf2484","null","
                  <p style=""text-align: center;"">₪18
                                                <br>25%</p>
                  <p id=""wtp"" style=""text-align:center; margin-top: 0px; margin-bottom: 0px; font-size: 40px"";>מוכנים לשלם: <span id=""c_p_y""></span></p>","null","evaluation","77","9","14A,23A","25","18","6","","","","","","","","","","","","","","",""
"","","","","","html-keyboard-response","170","412552","0.0-21.0-2.18","664ded3d-fe75-41d7-8a08-2596a5bf2484","null","<p style=""text-align: center;"">+</p>","null","fixation","","","","","","","","","","","","","","","","","","","","",""
"","","","","","html-slider-response","171","413554","0.0-21.0-0.19","664ded3d-fe75-41d7-8a08-2596a5bf2484","1000","
                  <p style=""text-align: center;"">₪11
                                                <br>20%</p>
                  <p id=""wtp"" style=""text-align:center; margin-top: 0px; margin-bottom: 0px; font-size: 40px"";>&ensp;</p>","-","viewing","0","4","12C,17C,23C,28C","","","","","","","","","","","","","","","","","",""
"","","","","","html-slider-response","172","417118","0.0-21.0-1.19","664ded3d-fe75-41d7-8a08-2596a5bf2484","3563","
                  <p style=""text-align: center;"">₪11
                                                <br>20%</p>
                  <p id=""wtp"" style=""text-align:center; margin-top: 0px; margin-bottom: 0px; font-size: 40px"";>מוכנים לשלם: <span id=""c_p_y""></span></p>","0","evaluation","66","4","12C,17C,23C,28C","20","11","1","","","","","","","","","","","","","","",""
"","","","","","html-keyboard-response","173","417730","0.0-21.0-2.19","664ded3d-fe75-41d7-8a08-2596a5bf2484","null","<p style=""text-align: center;"">+</p>","null","fixation","","","","","","","","","","","","","","","","","","","","",""
"","","","","","html-slider-response","174","418744","0.0-21.0-0.20","664ded3d-fe75-41d7-8a08-2596a5bf2484","1000","
                  <p style=""text-align: center;"">₪11
                                                <br>75%</p>
                  <p id=""wtp"" style=""text-align:center; margin-top: 0px; margin-bottom: 0px; font-size: 40px"";>&ensp;</p>","-","viewing","0","7","6B,18B,22C,24C,29A","","","","","","","","","","","","","","","","","",""
"","","","","","html-slider-response","175","421646","0.0-21.0-1.20","664ded3d-fe75-41d7-8a08-2596a5bf2484","2902","
                  <p style=""text-align: center;"">₪11
                                                <br>75%</p>
                  <p id=""wtp"" style=""text-align:center; margin-top: 0px; margin-bottom: 0px; font-size: 40px"";>מוכנים לשלם: <span id=""c_p_y""></span></p>","5","evaluation","18","7","6B,18B,22C,24C,29A","75","11","6","","","","","","","","","","","","","","",""
"","","","","","html-keyboard-response","176","422896","0.0-21.0-2.20","664ded3d-fe75-41d7-8a08-2596a5bf2484","null","<p style=""text-align: center;"">+</p>","null","fixation","","","","","","","","","","","","","","","","","","","","",""
"","","","","","html-slider-response","177","423899","0.0-21.0-0.21","664ded3d-fe75-41d7-8a08-2596a5bf2484","1000","
                  <p style=""text-align: center;"">₪61
                                                <br>45%</p>
                  <p id=""wtp"" style=""text-align:center; margin-top: 0px; margin-bottom: 0px; font-size: 40px"";>&ensp;</p>","-","viewing","0","22","10A,11A","","","","","","","","","","","","","","","","","",""
"","","","","","html-slider-response","178","427182","0.0-21.0-1.21","664ded3d-fe75-41d7-8a08-2596a5bf2484","3282","
                  <p style=""text-align: center;"">₪61
                                                <br>45%</p>
                  <p id=""wtp"" style=""text-align:center; margin-top: 0px; margin-bottom: 0px; font-size: 40px"";>מוכנים לשלם: <span id=""c_p_y""></span></p>","24","evaluation","50","22","10A,11A","45","61","24","","","","","","","","","","","","","","",""
"","","","","","html-keyboard-response","179","427817","0.0-21.0-2.21","664ded3d-fe75-41d7-8a08-2596a5bf2484","null","<p style=""text-align: center;"">+</p>","null","fixation","","","","","","","","","","","","","","","","","","","","",""
"","","","","","html-slider-response","180","428819","0.0-21.0-0.22","664ded3d-fe75-41d7-8a08-2596a5bf2484","1000","
                  <p style=""text-align: center;"">₪18
                                                <br>50%</p>
                  <p id=""wtp"" style=""text-align:center; margin-top: 0px; margin-bottom: 0px; font-size: 40px"";>&ensp;</p>","-","viewing","0","10","2C,16C,22B,28A","","","","","","","","","","","","","","","","","",""
"","","","","","html-slider-response","181","431678","0.0-21.0-1.22","664ded3d-fe75-41d7-8a08-2596a5bf2484","2858","
                  <p style=""text-align: center;"">₪18
                                                <br>50%</p>
                  <p id=""wtp"" style=""text-align:center; margin-top: 0px; margin-bottom: 0px; font-size: 40px"";>מוכנים לשלם: <span id=""c_p_y""></span></p>","9","evaluation","1","10","2C,16C,22B,28A","50","18","9","","","","","","","","","","","","","","",""
"","","","","","html-keyboard-response","182","432523","0.0-21.0-2.22","664ded3d-fe75-41d7-8a08-2596a5bf2484","null","<p style=""text-align: center;"">+</p>","null","fixation","","","","","","","","","","","","","","","","","","","","",""
"","","","","","html-slider-response","183","433524","0.0-21.0-0.23","664ded3d-fe75-41d7-8a08-2596a5bf2484","1000","
                  <p style=""text-align: center;"">₪36
                                                <br>60%</p>
                  <p id=""wtp"" style=""text-align:center; margin-top: 0px; margin-bottom: 0px; font-size: 40px"";>&ensp;</p>","-","viewing","0","12","1C,7C,15C","","","","","","","","","","","","","","","","","",""
"","","","","","html-slider-response","184","436166","0.0-21.0-1.23","664ded3d-fe75-41d7-8a08-2596a5bf2484","2640","
                  <p style=""text-align: center;"">₪36
                                                <br>60%</p>
                  <p id=""wtp"" style=""text-align:center; margin-top: 0px; margin-bottom: 0px; font-size: 40px"";>מוכנים לשלם: <span id=""c_p_y""></span></p>","22","evaluation","64","12","1C,7C,15C","60","36","22","","","","","","","","","","","","","","",""
"","","","","","html-keyboard-response","185","437218","0.0-21.0-2.23","664ded3d-fe75-41d7-8a08-2596a5bf2484","null","<p style=""text-align: center;"">+</p>","null","fixation","","","","","","","","","","","","","","","","","","","","",""
"","","","","","html-slider-response","186","438231","0.0-21.0-0.24","664ded3d-fe75-41d7-8a08-2596a5bf2484","1000","
                  <p style=""text-align: center;"">₪71
                                                <br>45%</p>
                  <p id=""wtp"" style=""text-align:center; margin-top: 0px; margin-bottom: 0px; font-size: 40px"";>&ensp;</p>","-","viewing","0","26","2B,16A","","","","","","","","","","","","","","","","","",""
"","","","","","html-slider-response","187","441199","0.0-21.0-1.24","664ded3d-fe75-41d7-8a08-2596a5bf2484","2966","
                  <p style=""text-align: center;"">₪71
                                                <br>45%</p>
                  <p id=""wtp"" style=""text-align:center; margin-top: 0px; margin-bottom: 0px; font-size: 40px"";>מוכנים לשלם: <span id=""c_p_y""></span></p>","46","evaluation","65","26","2B,16A","45","71","46","","","","","","","","","","","","","","",""
"","","","","","html-keyboard-response","188","442293","0.0-21.0-2.24","664ded3d-fe75-41d7-8a08-2596a5bf2484","null","<p style=""text-align: center;"">+</p>","null","fixation","","","","","","","","","","","","","","","","","","","","",""
"","","","","","html-slider-response","189","443309","0.0-21.0-0.25","664ded3d-fe75-41d7-8a08-2596a5bf2484","1000","
                  <p style=""text-align: center;"">₪39
                                                <br>60%</p>
                  <p id=""wtp"" style=""text-align:center; margin-top: 0px; margin-bottom: 0px; font-size: 40px"";>&ensp;</p>","-","viewing","0","15","9C,25B","","","","","","","","","","","","","","","","","",""
"","","","","","html-slider-response","190","446063","0.0-21.0-1.25","664ded3d-fe75-41d7-8a08-2596a5bf2484","2753","
                  <p style=""text-align: center;"">₪39
                                                <br>60%</p>
                  <p id=""wtp"" style=""text-align:center; margin-top: 0px; margin-bottom: 0px; font-size: 40px"";>מוכנים לשלם: <span id=""c_p_y""></span></p>","21","evaluation","80","15","9C,25B","60","39","21","","","","","","","","","","","","","","",""
"","","","","","html-keyboard-response","191","446565","0.0-21.0-2.25","664ded3d-fe75-41d7-8a08-2596a5bf2484","null","<p style=""text-align: center;"">+</p>","null","fixation","","","","","","","","","","","","","","","","","","","","",""
"","","","","","html-slider-response","192","447567","0.0-21.0-0.26","664ded3d-fe75-41d7-8a08-2596a5bf2484","1000","
                  <p style=""text-align: center;"">₪16
                                                <br>20%</p>
                  <p id=""wtp"" style=""text-align:center; margin-top: 0px; margin-bottom: 0px; font-size: 40px"";>&ensp;</p>","-","viewing","0","8","14C,17A,20C,27A","","","","","","","","","","","","","","","","","",""
"","","","","","html-slider-response","193","449191","0.0-21.0-1.26","664ded3d-fe75-41d7-8a08-2596a5bf2484","1623","
                  <p style=""text-align: center;"">₪16
                                                <br>20%</p>
                  <p id=""wtp"" style=""text-align:center; margin-top: 0px; margin-bottom: 0px; font-size: 40px"";>מוכנים לשלם: <span id=""c_p_y""></span></p>","3","evaluation","20","8","14C,17A,20C,27A","20","16","4","","","","","","","","","","","","","","",""
"","","","","","html-keyboard-response","194","449939","0.0-21.0-2.26","664ded3d-fe75-41d7-8a08-2596a5bf2484","null","<p style=""text-align: center;"">+</p>","null","fixation","","","","","","","","","","","","","","","","","","","","",""
"","","","","","html-slider-response","195","450941","0.0-21.0-0.27","664ded3d-fe75-41d7-8a08-2596a5bf2484","1000","
                  <p style=""text-align: center;"">₪36
                                                <br>70%</p>
                  <p id=""wtp"" style=""text-align:center; margin-top: 0px; margin-bottom: 0px; font-size: 40px"";>&ensp;</p>","-","viewing","0","13","3A,5C,10B","","","","","","","","","","","","","","","","","",""
"","","","","","html-slider-response","196","454423","0.0-21.0-1.27","664ded3d-fe75-41d7-8a08-2596a5bf2484","3481","
                  <p style=""text-align: center;"">₪36
                                                <br>70%</p>
                  <p id=""wtp"" style=""text-align:center; margin-top: 0px; margin-bottom: 0px; font-size: 40px"";>מוכנים לשלם: <span id=""c_p_y""></span></p>","23","evaluation","18","13","3A,5C,10B","70","36","23","","","","","","","","","","","","","","",""
"","","","","","html-keyboard-response","197","455191","0.0-21.0-2.27","664ded3d-fe75-41d7-8a08-2596a5bf2484","null","<p style=""text-align: center;"">+</p>","null","fixation","","","","","","","","","","","","","","","","","","","","",""
"","","","","","html-slider-response","198","456208","0.0-21.0-0.28","664ded3d-fe75-41d7-8a08-2596a5bf2484","1000","
                  <p style=""text-align: center;"">₪4
                                                <br>25%</p>
                  <p id=""wtp"" style=""text-align:center; margin-top: 0px; margin-bottom: 0px; font-size: 40px"";>&ensp;</p>","-","viewing","0","1","6C,29B,30C","","","","","","","","","","","","","","","","","",""
"","","","","","html-slider-response","199","459551","0.0-21.0-1.28","664ded3d-fe75-41d7-8a08-2596a5bf2484","3341","
                  <p style=""text-align: center;"">₪4
                                                <br>25%</p>
                  <p id=""wtp"" style=""text-align:center; margin-top: 0px; margin-bottom: 0px; font-size: 40px"";>מוכנים לשלם: <span id=""c_p_y""></span></p>","2","evaluation","77","1","6C,29B,30C","25","4","2","","","","","","","","","","","","","","",""
"","","","","","html-keyboard-response","200","460277","0.0-21.0-2.28","664ded3d-fe75-41d7-8a08-2596a5bf2484","null","<p style=""text-align: center;"">+</p>","null","fixation","","","","","","","","","","","","","","","","","","","","",""
"","","","","","html-slider-response","201","461280","0.0-21.0-0.29","664ded3d-fe75-41d7-8a08-2596a5bf2484","1000","
                  <p style=""text-align: center;"">₪39
                                                <br>65%</p>
                  <p id=""wtp"" style=""text-align:center; margin-top: 0px; margin-bottom: 0px; font-size: 40px"";>&ensp;</p>","-","viewing","0","16","1A,15A,26C","","","","","","","","","","","","","","","","","",""
"","","","","","html-slider-response","202","464815","0.0-21.0-1.29","664ded3d-fe75-41d7-8a08-2596a5bf2484","3533","
                  <p style=""text-align: center;"">₪39
                                                <br>65%</p>
                  <p id=""wtp"" style=""text-align:center; margin-top: 0px; margin-bottom: 0px; font-size: 40px"";>מוכנים לשלם: <span id=""c_p_y""></span></p>","30","evaluation","13","16","1A,15A,26C","65","39","30","","","","","","","","","","","","","","",""
"","","","","","html-keyboard-response","203","465624","0.0-21.0-2.29","664ded3d-fe75-41d7-8a08-2596a5bf2484","null","<p style=""text-align: center;"">+</p>","null","fixation","","","","","","","","","","","","","","","","","","","","",""
"","","","","","html-slider-response","204","466642","0.0-21.0-0.30","664ded3d-fe75-41d7-8a08-2596a5bf2484","1000","
                  <p style=""text-align: center;"">₪11
                                                <br>25%</p>
                  <p id=""wtp"" style=""text-align:center; margin-top: 0px; margin-bottom: 0px; font-size: 40px"";>&ensp;</p>","-","viewing","0","5","12A,27B,28B,30B","","","","","","","","","","","","","","","","","",""
"","","","","","html-slider-response","205","468302","0.0-21.0-1.30","664ded3d-fe75-41d7-8a08-2596a5bf2484","1659","
                  <p style=""text-align: center;"">₪11
                                                <br>25%</p>
                  <p id=""wtp"" style=""text-align:center; margin-top: 0px; margin-bottom: 0px; font-size: 40px"";>מוכנים לשלם: <span id=""c_p_y""></span></p>","1","evaluation","6","5","12A,27B,28B,30B","25","11","2","","","","","","","","","","","","","","",""
"","","","","","html-keyboard-response","206","469576","0.0-21.0-2.30","664ded3d-fe75-41d7-8a08-2596a5bf2484","null","<p style=""text-align: center;"">+</p>","null","fixation","","","","","","","","","","","","","","","","","","","","",""
"","","","","","html-keyboard-response","207","470580","0.0-22.0","664ded3d-fe75-41d7-8a08-2596a5bf2484","null","<p style=""text-align: center;"">+</p>","null","fixation","","","","","","","","","","","","","","","","","","","","",""
"","","","","","html-keyboard-response","208","471455","0.0-23.0","664ded3d-fe75-41d7-8a08-2596a5bf2484","null","<p>הפסקה.
          <br>לחצו כדי להמשיך.</p>","1","scan_wait","","","","","","","","","","","","","","","","","","","","",""
"","","","","","html-keyboard-response","209","472455","0.0-24.0","664ded3d-fe75-41d7-8a08-2596a5bf2484","null","<p style=""text-align: center;"">+</p>","null","fixation","","","","","","","","","","","","","","","","","","","","",""
"","","","","","html-slider-response","210","473456","0.0-25.0-0.0","664ded3d-fe75-41d7-8a08-2596a5bf2484","1000","
                  <p style=""text-align: center;"">₪58
                                                <br>45%</p>
                  <p id=""wtp"" style=""text-align:center; margin-top: 0px; margin-bottom: 0px; font-size: 40px"";>&ensp;</p>","-","viewing","0","21","11C,18C,25A","","","","","","","","","","","","","","","","","",""
"","","","","","html-slider-response","211","475543","0.0-25.0-1.0","664ded3d-fe75-41d7-8a08-2596a5bf2484","2085","
                  <p style=""text-align: center;"">₪58
                                                <br>45%</p>
                  <p id=""wtp"" style=""text-align:center; margin-top: 0px; margin-bottom: 0px; font-size: 40px"";>מוכנים לשלם: <span id=""c_p_y""></span></p>","24","evaluation","11","21","11C,18C,25A","45","58","24","","","","","","","","","","","","","","",""
"","","","","","html-keyboard-response","212","476665","0.0-25.0-2.0","664ded3d-fe75-41d7-8a08-2596a5bf2484","null","<p style=""text-align: center;"">+</p>","null","fixation","","","","","","","","","","","","","","","","","","","","",""
"","","","","","html-slider-response","213","477667","0.0-25.0-0.1","664ded3d-fe75-41d7-8a08-2596a5bf2484","1000","
                  <p style=""text-align: center;"">₪58
                                                <br>40%</p>
                  <p id=""wtp"" style=""text-align:center; margin-top: 0px; margin-bottom: 0px; font-size: 40px"";>&ensp;</p>","-","viewing","0","20","10C,13A,19C,21B","","","","","","","","","","","","","","","","","",""
"","","","","","html-slider-response","214","480231","0.0-25.0-1.1","664ded3d-fe75-41d7-8a08-2596a5bf2484","2563","
                  <p style=""text-align: center;"">₪58
                                                <br>40%</p>
                  <p id=""wtp"" style=""text-align:center; margin-top: 0px; margin-bottom: 0px; font-size: 40px"";>מוכנים לשלם: <span id=""c_p_y""></span></p>","17","evaluation","5","20","10C,13A,19C,21B","40","58","18","","","","","","","","","","","","","","",""
"","","","","","html-keyboard-response","215","481374","0.0-25.0-2.1","664ded3d-fe75-41d7-8a08-2596a5bf2484","null","<p style=""text-align: center;"">+</p>","null","fixation","","","","","","","","","","","","","","","","","","","","",""
"","","","","","html-slider-response","216","482376","0.0-25.0-0.2","664ded3d-fe75-41d7-8a08-2596a5bf2484","1000","
                  <p style=""text-align: center;"">₪64
                                                <br>25%</p>
                  <p id=""wtp"" style=""text-align:center; margin-top: 0px; margin-bottom: 0px; font-size: 40px"";>&ensp;</p>","-","viewing","0","24","6A,21A","","","","","","","","","","","","","","","","","",""
"","","","","","html-slider-response","217","485263","0.0-25.0-1.2","664ded3d-fe75-41d7-8a08-2596a5bf2484","2886","
                  <p style=""text-align: center;"">₪64
                                                <br>25%</p>
                  <p id=""wtp"" style=""text-align:center; margin-top: 0px; margin-bottom: 0px; font-size: 40px"";>מוכנים לשלם: <span id=""c_p_y""></span></p>","18","evaluation","22","24","6A,21A","25","64","19","","","","","","","","","","","","","","",""
"","","","","","html-keyboard-response","218","486447","0.0-25.0-2.2","664ded3d-fe75-41d7-8a08-2596a5bf2484","null","<p style=""text-align: center;"">+</p>","null","fixation","","","","","","","","","","","","","","","","","","","","",""
"","","","","","html-slider-response","219","487459","0.0-25.0-0.3","664ded3d-fe75-41d7-8a08-2596a5bf2484","1000","
                  <p style=""text-align: center;"">₪39
                                                <br>60%</p>
                  <p id=""wtp"" style=""text-align:center; margin-top: 0px; margin-bottom: 0px; font-size: 40px"";>&ensp;</p>","-","viewing","0","15","9C,25B","","","","","","","","","","","","","","","","","",""
"","","","","","html-slider-response","220","491463","0.0-25.0-1.3","664ded3d-fe75-41d7-8a08-2596a5bf2484","null","
                  <p style=""text-align: center;"">₪39
                                                <br>60%</p>
                  <p id=""wtp"" style=""text-align:center; margin-top: 0px; margin-bottom: 0px; font-size: 40px"";>מוכנים לשלם: <span id=""c_p_y""></span></p>","null","evaluation","56","15","9C,25B","60","39","21","","","","","","","","","","","","","","",""
"","","","","","html-keyboard-response","221","492084","0.0-25.0-2.3","664ded3d-fe75-41d7-8a08-2596a5bf2484","null","<p style=""text-align: center;"">+</p>","null","fixation","","","","","","","","","","","","","","","","","","","","",""
"","","","","","html-slider-response","222","493088","0.0-25.0-0.4","664ded3d-fe75-41d7-8a08-2596a5bf2484","1000","
                  <p style=""text-align: center;"">₪36
                                                <br>70%</p>
                  <p id=""wtp"" style=""text-align:center; margin-top: 0px; margin-bottom: 0px; font-size: 40px"";>&ensp;</p>","-","viewing","0","13","3A,5C,10B","","","","","","","","","","","","","","","","","",""
"","","","","","html-slider-response","223","496143","0.0-25.0-1.4","664ded3d-fe75-41d7-8a08-2596a5bf2484","3053","
                  <p style=""text-align: center;"">₪36
                                                <br>70%</p>
                  <p id=""wtp"" style=""text-align:center; margin-top: 0px; margin-bottom: 0px; font-size: 40px"";>מוכנים לשלם: <span id=""c_p_y""></span></p>","17","evaluation","70","13","3A,5C,10B","70","36","18","","","","","","","","","","","","","","",""
"","","","","","html-keyboard-response","224","497208","0.0-25.0-2.4","664ded3d-fe75-41d7-8a08-2596a5bf2484","null","<p style=""text-align: center;"">+</p>","null","fixation","","","","","","","","","","","","","","","","","","","","",""
"","","","","","html-slider-response","225","498211","0.0-25.0-0.5","664ded3d-fe75-41d7-8a08-2596a5bf2484","1000","
                  <p style=""text-align: center;"">₪64
                                                <br>50%</p>
                  <p id=""wtp"" style=""text-align:center; margin-top: 0px; margin-bottom: 0px; font-size: 40px"";>&ensp;</p>","-","viewing","0","25","1B,3B,4A","","","","","","","","","","","","","","","","","",""
"","","","","","html-slider-response","226","500135","0.0-25.0-1.5","664ded3d-fe75-41d7-8a08-2596a5bf2484","1922","
                  <p style=""text-align: center;"">₪64
                                                <br>50%</p>
                  <p id=""wtp"" style=""text-align:center; margin-top: 0px; margin-bottom: 0px; font-size: 40px"";>מוכנים לשלם: <span id=""c_p_y""></span></p>","32","evaluation","70","25","1B,3B,4A","50","64","32","","","","","","","","","","","","","","",""
"","","","","","html-keyboard-response","227","500843","0.0-25.0-2.5","664ded3d-fe75-41d7-8a08-2596a5bf2484","null","<p style=""text-align: center;"">+</p>","null","fixation","","","","","","","","","","","","","","","","","","","","",""
"","","","","","html-slider-response","228","501855","0.0-25.0-0.6","664ded3d-fe75-41d7-8a08-2596a5bf2484","1000","
                  <p style=""text-align: center;"">₪71
                                                <br>55%</p>
                  <p id=""wtp"" style=""text-align:center; margin-top: 0px; margin-bottom: 0px; font-size: 40px"";>&ensp;</p>","-","viewing","0","27","5B,18A","","","","","","","","","","","","","","","","","",""
"","","","","","html-slider-response","229","503159","0.0-25.0-1.6","664ded3d-fe75-41d7-8a08-2596a5bf2484","1301","
                  <p style=""text-align: center;"">₪71
                                                <br>55%</p>
                  <p id=""wtp"" style=""text-align:center; margin-top: 0px; margin-bottom: 0px; font-size: 40px"";>מוכנים לשלם: <span id=""c_p_y""></span></p>","30","evaluation","38","27","5B,18A","55","71","30","","","","","","","","","","","","","","",""
"","","","","","html-keyboard-response","230","504469","0.0-25.0-2.6","664ded3d-fe75-41d7-8a08-2596a5bf2484","null","<p style=""text-align: center;"">+</p>","null","fixation","","","","","","","","","","","","","","","","","","","","",""
"","","","","","html-slider-response","231","505471","0.0-25.0-0.7","664ded3d-fe75-41d7-8a08-2596a5bf2484","1000","
                  <p style=""text-align: center;"">₪4
                                                <br>75%</p>
                  <p id=""wtp"" style=""text-align:center; margin-top: 0px; margin-bottom: 0px; font-size: 40px"";>&ensp;</p>","-","viewing","0","3","12B,20B,23B,27C,29C","","","","","","","","","","","","","","","","","",""
"","","","","","html-slider-response","232","509127","0.0-25.0-1.7","664ded3d-fe75-41d7-8a08-2596a5bf2484","3654","
                  <p style=""text-align: center;"">₪4
                                                <br>75%</p>
                  <p id=""wtp"" style=""text-align:center; margin-top: 0px; margin-bottom: 0px; font-size: 40px"";>מוכנים לשלם: <span id=""c_p_y""></span></p>","2","evaluation","38","3","12B,20B,23B,27C,29C","75","4","3","","","","","","","","","","","","","","",""
"","","","","","html-keyboard-response","233","510003","0.0-25.0-2.7","664ded3d-fe75-41d7-8a08-2596a5bf2484","null","<p style=""text-align: center;"">+</p>","null","fixation","","","","","","","","","","","","","","","","","","","","",""
"","","","","","html-slider-response","234","511014","0.0-25.0-0.8","664ded3d-fe75-41d7-8a08-2596a5bf2484","1000","
                  <p style=""text-align: center;"">₪36
                                                <br>30%</p>
                  <p id=""wtp"" style=""text-align:center; margin-top: 0px; margin-bottom: 0px; font-size: 40px"";>&ensp;</p>","-","viewing","0","11","3C,20A,22A","","","","","","","","","","","","","","","","","",""
"","","","","","html-slider-response","235","513647","0.0-25.0-1.8","664ded3d-fe75-41d7-8a08-2596a5bf2484","2631","
                  <p style=""text-align: center;"">₪36
                                                <br>30%</p>
                  <p id=""wtp"" style=""text-align:center; margin-top: 0px; margin-bottom: 0px; font-size: 40px"";>מוכנים לשלם: <span id=""c_p_y""></span></p>","17","evaluation","16","11","3C,20A,22A","30","36","18","","","","","","","","","","","","","","",""
"","","","","","html-keyboard-response","236","514718","0.0-25.0-2.8","664ded3d-fe75-41d7-8a08-2596a5bf2484","null","<p style=""text-align: center;"">+</p>","null","fixation","","","","","","","","","","","","","","","","","","","","",""
"","","","","","html-slider-response","237","515722","0.0-25.0-0.9","664ded3d-fe75-41d7-8a08-2596a5bf2484","1000","
                  <p style=""text-align: center;"">₪71
                                                <br>75%</p>
                  <p id=""wtp"" style=""text-align:center; margin-top: 0px; margin-bottom: 0px; font-size: 40px"";>&ensp;</p>","-","viewing","0","28","8B","","","","","","","","","","","","","","","","","",""
"","","","","","html-slider-response","238","517719","0.0-25.0-1.9","664ded3d-fe75-41d7-8a08-2596a5bf2484","1995","
                  <p style=""text-align: center;"">₪71
                                                <br>75%</p>
                  <p id=""wtp"" style=""text-align:center; margin-top: 0px; margin-bottom: 0px; font-size: 40px"";>מוכנים לשלם: <span id=""c_p_y""></span></p>","39","evaluation","74","28","8B","75","71","39","","","","","","","","","","","","","","",""
"","","","","","html-keyboard-response","239","518681","0.0-25.0-2.9","664ded3d-fe75-41d7-8a08-2596a5bf2484","null","<p style=""text-align: center;"">+</p>","null","fixation","","","","","","","","","","","","","","","","","","","","",""
"","","","","","html-slider-response","240","519688","0.0-25.0-0.10","664ded3d-fe75-41d7-8a08-2596a5bf2484","1000","
                  <p style=""text-align: center;"">₪36
                                                <br>60%</p>
                  <p id=""wtp"" style=""text-align:center; margin-top: 0px; margin-bottom: 0px; font-size: 40px"";>&ensp;</p>","-","viewing","0","12","1C,7C,15C","","","","","","","","","","","","","","","","","",""
"","","","","","html-slider-response","241","522391","0.0-25.0-1.10","664ded3d-fe75-41d7-8a08-2596a5bf2484","2701","
                  <p style=""text-align: center;"">₪36
                                                <br>60%</p>
                  <p id=""wtp"" style=""text-align:center; margin-top: 0px; margin-bottom: 0px; font-size: 40px"";>מוכנים לשלם: <span id=""c_p_y""></span></p>","26","evaluation","21","12","1C,7C,15C","60","36","27","","","","","","","","","","","","","","",""
"","","","","","html-keyboard-response","242","523797","0.0-25.0-2.10","664ded3d-fe75-41d7-8a08-2596a5bf2484","null","<p style=""text-align: center;"">+</p>","null","fixation","","","","","","","","","","","","","","","","","","","","",""
"","","","","","html-slider-response","243","524803","0.0-25.0-0.11","664ded3d-fe75-41d7-8a08-2596a5bf2484","1000","
                  <p style=""text-align: center;"">₪11
                                                <br>20%</p>
                  <p id=""wtp"" style=""text-align:center; margin-top: 0px; margin-bottom: 0px; font-size: 40px"";>&ensp;</p>","-","viewing","0","4","12C,17C,23C,28C","","","","","","","","","","","","","","","","","",""
"","","","","","html-slider-response","244","528487","0.0-25.0-1.11","664ded3d-fe75-41d7-8a08-2596a5bf2484","3682","
                  <p style=""text-align: center;"">₪11
                                                <br>20%</p>
                  <p id=""wtp"" style=""text-align:center; margin-top: 0px; margin-bottom: 0px; font-size: 40px"";>מוכנים לשלם: <span id=""c_p_y""></span></p>","2","evaluation","75","4","12C,17C,23C,28C","20","11","3","","","","","","","","","","","","","","",""
"","","","","","html-keyboard-response","245","529343","0.0-25.0-2.11","664ded3d-fe75-41d7-8a08-2596a5bf2484","null","<p style=""text-align: center;"">+</p>","null","fixation","","","","","","","","","","","","","","","","","","","","",""
"","","","","","html-slider-response","246","530347","0.0-25.0-0.12","664ded3d-fe75-41d7-8a08-2596a5bf2484","1000","
                  <p style=""text-align: center;"">₪43
                                                <br>60%</p>
                  <p id=""wtp"" style=""text-align:center; margin-top: 0px; margin-bottom: 0px; font-size: 40px"";>&ensp;</p>","-","viewing","0","17","2A,7A,9A,15B","","","","","","","","","","","","","","","","","",""
"","","","","","html-slider-response","247","533095","0.0-25.0-1.12","664ded3d-fe75-41d7-8a08-2596a5bf2484","2746","
                  <p style=""text-align: center;"">₪43
                                                <br>60%</p>
                  <p id=""wtp"" style=""text-align:center; margin-top: 0px; margin-bottom: 0px; font-size: 40px"";>מוכנים לשלם: <span id=""c_p_y""></span></p>","26","evaluation","79","17","2A,7A,9A,15B","60","43","26","","","","","","","","","","","","","","",""
"","","","","","html-keyboard-response","248","533954","0.0-25.0-2.12","664ded3d-fe75-41d7-8a08-2596a5bf2484","null","<p style=""text-align: center;"">+</p>","null","fixation","","","","","","","","","","","","","","","","","","","","",""
"","","","","","html-slider-response","249","534970","0.0-25.0-0.13","664ded3d-fe75-41d7-8a08-2596a5bf2484","1000","
                  <p style=""text-align: center;"">₪16
                                                <br>20%</p>
                  <p id=""wtp"" style=""text-align:center; margin-top: 0px; margin-bottom: 0px; font-size: 40px"";>&ensp;</p>","-","viewing","0","8","14C,17A,20C,27A","","","","","","","","","","","","","","","","","",""
"","","","","","html-slider-response","250","536375","0.0-25.0-1.13","664ded3d-fe75-41d7-8a08-2596a5bf2484","1403","
                  <p style=""text-align: center;"">₪16
                                                <br>20%</p>
                  <p id=""wtp"" style=""text-align:center; margin-top: 0px; margin-bottom: 0px; font-size: 40px"";>מוכנים לשלם: <span id=""c_p_y""></span></p>","4","evaluation","10","8","14C,17A,20C,27A","20","16","4","","","","","","","","","","","","","","",""
"","","","","","html-keyboard-response","251","537403","0.0-25.0-2.13","664ded3d-fe75-41d7-8a08-2596a5bf2484","null","<p style=""text-align: center;"">+</p>","null","fixation","","","","","","","","","","","","","","","","","","","","",""
"","","","","","html-slider-response","252","538409","0.0-25.0-0.14","664ded3d-fe75-41d7-8a08-2596a5bf2484","1000","
                  <p style=""text-align: center;"">₪76
                                                <br>65%</p>
                  <p id=""wtp"" style=""text-align:center; margin-top: 0px; margin-bottom: 0px; font-size: 40px"";>&ensp;</p>","-","viewing","0","29","8C,19A,24B","","","","","","","","","","","","","","","","","",""
