"success","timeout","failed_images","failed_audio","failed_video","trial_type","trial_index","time_elapsed","internal_node_id","subject_id","rt","stimulus","response","part","slider_start","ID","set_ID","prob","amount","last_location","actual_choice","actual_EV","binary_id","trinary_id","catch","direction","A_key","S_key","D_key","choice_prob","choice_amount","potential_prize_prob","potential_prize_amount","won_prize","total_prize","accuracy"
"true","false","[]","[]","[]","preload","0","15","0.0-0.0","50052cbf-eedb-4b9a-bc19-fe6cde12d8bc","","","","","","","","","","","","","","","","","","","","","","","","","",""
"","","","","","html-keyboard-response","1","40949","0.0-1.0","50052cbf-eedb-4b9a-bc19-fe6cde12d8bc","null","
          <h1>שלום וברוכים הבאים!</h1>
          <p>לפניכם ניסוי בקבלת החלטות עם שני חלקים.
          <br><br>לחצו על העכבר כדי להמשיך.</p>","0","example","","","","","","","","","","","","","","","","","","","","","",""
"","","","","","html-keyboard-response","2","51934","0.0-2.0","50052cbf-eedb-4b9a-bc19-fe6cde12d8bc","null","
        <h1>חלק 1</h1>
        <p>בקרוב יוצגו בפניכם הגרלות.
        <br>עליכם לבחור את המחיר המירבי שתהיו מוכנים לשלם כדי להשתתף בהגרלה שתוצג.
        <br>יש לכם תקציב של ₪80 לכל הגרלה. 
        <br>נסו להעריך כל הגרלה בנפרד ולחשוב כמה היא שווה עבורכם, ₪80 זמינים לכל הגרלה בנפרד.
        <br><br>לחצו על העכבר כדי להמשיך.</p>","1","instructions","","","","","","","","","","","","","","","","","","","","","",""
"","","","","","html-keyboard-response","3","66253","0.0-3.0","50052cbf-eedb-4b9a-bc19-fe6cde12d8bc","null","
        <p>בסוף הניסוי, המחשב יבחר את אחת ההגרלות ויקבע מחיר לכרטיס עבורה. 
        <br>במידה והמחיר שבחרתם נמוך מהמחיר שנבחר על ידי המחשב, לא תשתתפו בהגרלה ותשארו עם מלוא התקציב.
        <br>במידה והמחיר שבחרתם גבוה מהמחיר שנבחר על ידי המחשב, תשלמו את המחיר שנקבע ותשתתפו בהגרלה.
        <br><br>לחצו על העכבר כדי להמשיך.</p>","1","instructions","","","","","","","","","","","","","","","","","","","","","",""
"","","","","","html-slider-response","4","87254","0.0-4.0","50052cbf-eedb-4b9a-bc19-fe6cde12d8bc","20885","
        <p style=""font-size: 42px;"">נתחיל עם דוגמא: 
        <br>ההגרלה מטה מציעה 65% סיכוי לזכות ב-₪40 
        <br>&emsp;&emsp;&emsp;&emsp;&emsp;&emsp;&emsp;&emsp;&ensp;35% סיכוי לזכות ב-₪0.
        <br><br>מה המחיר המירבי שתהיו מוכנים לשלם על כרטיס להגרלה זו בין 0 ל-₪80?
        <br>הזיזו את העכבר על פני המלבן ולחצו כדי לבצע בחירה.</p>
        
        <p style=""text-align: center;"">₪40<br>65%</p>

        <p id=""wtp"" style=""text-align:center; margin-top: 0px; margin-bottom: 0px; font-size: 40px"";>מוכנים לשלם: <span id=""c_p_y""></span></p>","30","example","23","","","","","","","","","","","","","","","","","","","","",""
"","","","","","html-keyboard-response","5","92557","0.0-5.0","50052cbf-eedb-4b9a-bc19-fe6cde12d8bc","null","<p>יפה מאוד!
                <br> בחרתם שתהיו מוכנים לשלם ₪30 כדי להשתתף בהגרלה:
                <br><p style=""text-align: center;"">₪40<br>65%</p>
                <p>נשמע נכון?
                <br>נניח שהגרלה זו נבחרה בסוף הניסוי.
                <br>כעת המחשב יקבע מחיר עבורה באקראי.
                <br>לחצו על העכבר להמשך.</p>","1","example","","","","","","","","","","","","","","","","","","","","","",""
"","","","","","html-keyboard-response","6","101989","0.0-6.0","50052cbf-eedb-4b9a-bc19-fe6cde12d8bc","null","<p>המחשב קבע מחיר: ₪63
                <br>ואתם בחרתם לשלם לכל היותר: ₪30
                <br><br>מכיוון שהמחיר שבחרתם נמוך מהמחיר שנקבע, לא תתשתתפו בהגרלה.
                <br>במקרה כזה, בסוף הניסוי תקבלו את כל התקציב ההתחלתי של ₪80.
                <br><br>לחצו על העכבר להמשך.</p>","1","example","","","","","","","","","","","","","","","","","","","","","",""
"","","","","","html-slider-response","7","109462","0.0-7.0","50052cbf-eedb-4b9a-bc19-fe6cde12d8bc","7206","<p style=""font-size: 42px;"">הנה עוד דוגמא:
                <br>ההגרלה מטה מציעה 35% סיכוי לזכות ב-₪18 
                <br>&emsp;&emsp;&emsp;&emsp;&emsp;&emsp;&emsp;&emsp;&ensp;65% סיכוי לזכות ב-₪0.</p>
        
                <p style=""text-align: center;"">₪18<br>35%</p>
                <p id=""wtp"" style=""text-align:center; margin-top: 0px; margin-bottom: 0px; font-size: 40px"";>מוכנים לשלם: <span id=""c_p_y""></span></p>","71","example","68","","","","","","","","","","","","","","","","","","","","",""
"","","","","","html-keyboard-response","8","115221","0.0-8.0","50052cbf-eedb-4b9a-bc19-fe6cde12d8bc","null","<p>הייתם מוכנים לשלם  ₪71 כדי להשתתף בהגרלה:
                <p style=""text-align: center;"">₪18<br>35%</p>
                <p>כעת נניח שהמחשב בחר את ההגרלה הזו בסוף הניסוי, וקבע עבורה מחיר.
                <br><br>לחצו על העכבר כדי להמשיך.</p>","1","instructions","","","","","","","","","","","","","","","","","","","","","",""
"","","","","","html-keyboard-response","9","130085","0.0-9.0","50052cbf-eedb-4b9a-bc19-fe6cde12d8bc","null","<p>המחשב קבע מחיר להגרלה: ₪19<br>ואתם בחרתם לשלם לכל היותר: ₪71
                <br><br>כעת המחיר שנקבע נמוך מזה שבחרתם, אז תשלמו את המחיר שקבע המחשב (₪19) ותשתתפו בהגרלה.
                <br>במקרה כזה, תסיימו את הניסוי עם תקציב של ₪61 ועם סיכוי לזכות ב-₪18 נוספים מההגרלה.
                <br>כלומר, תוכלו לקבל ₪61 אם לא תזכו בהגרלה, או ₪79 אם תזכו בהגרלה.
                <br><br>לחצו על העכבר להמשך.</p>","1","example","","","","","","","","","","","","","","","","","","","","","",""
"","","","","","html-keyboard-response","10","143125","0.0-10.0","50052cbf-eedb-4b9a-bc19-fe6cde12d8bc","null","<p>במהלך הניסוי, קודם תראו את ההגרלה ורק לאחר מכן תוכלו לבחור.
                <p>כמו כן, יהיו לכם מספר שניות מוגבל להגיב.
                <p>בואו ננסה זאת עם ההגרלה הקודמת.
                <br>לחצו על העכבר כדי להמשיך.</p>","1","instructions","","","","","","","","","","","","","","","","","","","","","",""
"","","","","","html-slider-response","11","144392","0.0-11.0","50052cbf-eedb-4b9a-bc19-fe6cde12d8bc","1000","
                    <p style=""text-align: center;"">₪18<br>35%</p>
                    <p id=""wtp"" style=""text-align:center; margin-top: 0px; margin-bottom: 0px; font-size: 40px"";>&ensp;</p>","45","instructions","0","","","","","","","","","","","","","","","","","","","","",""
"","","","","","html-slider-response","12","148659","0.0-12.0","50052cbf-eedb-4b9a-bc19-fe6cde12d8bc","null","
                    <p style=""text-align: center;"">₪18<br>35%</p>
                    <p id=""wtp"" style=""text-align:center; margin-top: 0px; margin-bottom: 0px; font-size: 40px"";>מוכנים לשלם: <span id=""c_p_y""></span></p>","null","instructions","49","","","","","","","","","","","","","","","","","","","","",""
"","","","","","html-keyboard-response","13","149078","0.0-13.0","50052cbf-eedb-4b9a-bc19-fe6cde12d8bc","null","<p>לא הגבתם בזמן המוקצב לתגובה. 
                <br>נסו להגיב מהר יותר בפעם הבאה.
                <br><br>לחצו על העכבר כדי להמשיך.</p>","1","instructions","","","","","","","","","","","","","","","","","","","","","",""
"","","","","","html-slider-response","14","152693","0.0-14.0-0.0","50052cbf-eedb-4b9a-bc19-fe6cde12d8bc","3364","
                    <p style=""text-align: center;"">₪40<br>65%</p>
                    <p id=""wtp"" style=""text-align:center; margin-top: 0px; margin-bottom: 0px; font-size: 40px"";>מוכנים לשלם: <span id=""c_p_y""></span></p>","37","instructions","65","","","","","","","","","","","","","","","","","","","","",""
"","","","","","html-keyboard-response","15","155318","0.0-14.0-1.0","50052cbf-eedb-4b9a-bc19-fe6cde12d8bc","null","<p>יפה. הפעם בחרתם לשלם לכל היותר ₪37.
                <br><br>לחצו על העכבר כדי להמשיך.</p>","1","instructions","","","","","","","","","","","","","","","","","","","","","",""
"","","","","","html-keyboard-response","16","158693","0.0-15.0","50052cbf-eedb-4b9a-bc19-fe6cde12d8bc","null","<p>כעת נתחיל את הניסוי.
                <br><br>אתם תראו הגרלות ותתבקשו לבחור כמה תהיו מוכנים לשלם כדי להשתתף בהן.
                <br>יש לכם תקציב של ₪80 עבור כל הגרלה.
                <br>בסוף הניסוי הגרלה אחת תבחר באקראי ותשוחק.
                <br><br>לחצו על העכבר כדי להתחיל את הניסוי.</p>","1","instructions","","","","","","","","","","","","","","","","","","","","","",""
"","","","","","html-keyboard-response","17","159949","0.0-16.0","50052cbf-eedb-4b9a-bc19-fe6cde12d8bc","null","<p style=""text-align: center;"">+</p>","null","fixation","","","","","","","","","","","","","","","","","","","","","",""
"","","","","","html-slider-response","18","160959","0.0-17.0-0.0","50052cbf-eedb-4b9a-bc19-fe6cde12d8bc","1000","
                  <p style=""text-align: center;"">₪36
                                                <br>30%</p>
                  <p id=""wtp"" style=""text-align:center; margin-top: 0px; margin-bottom: 0px; font-size: 40px"";>&ensp;</p>","-","viewing","0","11","3C,20A,22A","","","","","","","","","","","","","","","","","","",""
"","","","","","html-slider-response","19","164038","0.0-17.0-1.0","50052cbf-eedb-4b9a-bc19-fe6cde12d8bc","3078","
                  <p style=""text-align: center;"">₪36
                                                <br>30%</p>
                  <p id=""wtp"" style=""text-align:center; margin-top: 0px; margin-bottom: 0px; font-size: 40px"";>מוכנים לשלם: <span id=""c_p_y""></span></p>","18","evaluation","61","11","3C,20A,22A","30","36","18","","","","","","","","","","","","","","","",""
"","","","","","html-keyboard-response","20","164863","0.0-17.0-2.0","50052cbf-eedb-4b9a-bc19-fe6cde12d8bc","null","<p style=""text-align: center;"">+</p>","null","fixation","","","","","","","","","","","","","","","","","","","","","",""
"","","","","","html-slider-response","21","165880","0.0-17.0-0.1","50052cbf-eedb-4b9a-bc19-fe6cde12d8bc","1000","
                  <p style=""text-align: center;"">₪79
                                                <br>65%</p>
                  <p id=""wtp"" style=""text-align:center; margin-top: 0px; margin-bottom: 0px; font-size: 40px"";>&ensp;</p>","-","viewing","0","31","8A","","","","","","","","","","","","","","","","","","",""
"","","","","","html-slider-response","22","169882","0.0-17.0-1.1","50052cbf-eedb-4b9a-bc19-fe6cde12d8bc","null","
                  <p style=""text-align: center;"">₪79
                                                <br>65%</p>
                  <p id=""wtp"" style=""text-align:center; margin-top: 0px; margin-bottom: 0px; font-size: 40px"";>מוכנים לשלם: <span id=""c_p_y""></span></p>","null","evaluation","34","31","8A","65","79","67","","","","","","","","","","","","","","","",""
"","","","","","html-keyboard-response","23","170556","0.0-17.0-2.1","50052cbf-eedb-4b9a-bc19-fe6cde12d8bc","null","<p style=""text-align: center;"">+</p>","null","fixation","","","","","","","","","","","","","","","","","","","","","",""
"","","","","","html-slider-response","24","171564","0.0-17.0-0.2","50052cbf-eedb-4b9a-bc19-fe6cde12d8bc","1000","
                  <p style=""text-align: center;"">₪18
                                                <br>25%</p>
                  <p id=""wtp"" style=""text-align:center; margin-top: 0px; margin-bottom: 0px; font-size: 40px"";>&ensp;</p>","-","viewing","0","9","14A,23A","","","","","","","","","","","","","","","","","","",""
"","","","","","html-slider-response","25","173789","0.0-17.0-1.2","50052cbf-eedb-4b9a-bc19-fe6cde12d8bc","2224","
                  <p style=""text-align: center;"">₪18
                                                <br>25%</p>
                  <p id=""wtp"" style=""text-align:center; margin-top: 0px; margin-bottom: 0px; font-size: 40px"";>מוכנים לשלם: <span id=""c_p_y""></span></p>","5","evaluation","23","9","14A,23A","25","18","5","","","","","","","","","","","","","","","",""
"","","","","","html-keyboard-response","26","174999","0.0-17.0-2.2","50052cbf-eedb-4b9a-bc19-fe6cde12d8bc","null","<p style=""text-align: center;"">+</p>","null","fixation","","","","","","","","","","","","","","","","","","","","","",""
"","","","","","html-slider-response","27","176001","0.0-17.0-0.3","50052cbf-eedb-4b9a-bc19-fe6cde12d8bc","1000","
                  <p style=""text-align: center;"">₪64
                                                <br>25%</p>
                  <p id=""wtp"" style=""text-align:center; margin-top: 0px; margin-bottom: 0px; font-size: 40px"";>&ensp;</p>","-","viewing","0","24","6A,21A","","","","","","","","","","","","","","","","","","",""
"","","","","","html-slider-response","28","178390","0.0-17.0-1.3","50052cbf-eedb-4b9a-bc19-fe6cde12d8bc","2387","
                  <p style=""text-align: center;"">₪64
                                                <br>25%</p>
                  <p id=""wtp"" style=""text-align:center; margin-top: 0px; margin-bottom: 0px; font-size: 40px"";>מוכנים לשלם: <span id=""c_p_y""></span></p>","50","evaluation","62","24","6A,21A","25","64","50","","","","","","","","","","","","","","","",""
"","","","","","html-keyboard-response","29","179563","0.0-17.0-2.3","50052cbf-eedb-4b9a-bc19-fe6cde12d8bc","null","<p style=""text-align: center;"">+</p>","null","fixation","","","","","","","","","","","","","","","","","","","","","",""
"","","","","","html-slider-response","30","180566","0.0-17.0-0.4","50052cbf-eedb-4b9a-bc19-fe6cde12d8bc","1000","
                  <p style=""text-align: center;"">₪4
                                                <br>50%</p>
                  <p id=""wtp"" style=""text-align:center; margin-top: 0px; margin-bottom: 0px; font-size: 40px"";>&ensp;</p>","-","viewing","0","2","4C,17B","","","","","","","","","","","","","","","","","","",""
"","","","","","html-slider-response","31","182686","0.0-17.0-1.4","50052cbf-eedb-4b9a-bc19-fe6cde12d8bc","2118","
                  <p style=""text-align: center;"">₪4
                                                <br>50%</p>
                  <p id=""wtp"" style=""text-align:center; margin-top: 0px; margin-bottom: 0px; font-size: 40px"";>מוכנים לשלם: <span id=""c_p_y""></span></p>","2","evaluation","69","2","4C,17B","50","4","2","","","","","","","","","","","","","","","",""
"","","","","","html-keyboard-response","32","183264","0.0-17.0-2.4","50052cbf-eedb-4b9a-bc19-fe6cde12d8bc","null","<p style=""text-align: center;"">+</p>","null","fixation","","","","","","","","","","","","","","","","","","","","","",""
"","","","","","html-slider-response","33","184279","0.0-17.0-0.5","50052cbf-eedb-4b9a-bc19-fe6cde12d8bc","1000","
                  <p style=""text-align: center;"">₪76
                                                <br>65%</p>
                  <p id=""wtp"" style=""text-align:center; margin-top: 0px; margin-bottom: 0px; font-size: 40px"";>&ensp;</p>","-","viewing","0","29","8C,19A,24B","","","","","","","","","","","","","","","","","","",""
"","","","","","html-slider-response","34","188046","0.0-17.0-1.5","50052cbf-eedb-4b9a-bc19-fe6cde12d8bc","3765","
                  <p style=""text-align: center;"">₪76
                                                <br>65%</p>
                  <p id=""wtp"" style=""text-align:center; margin-top: 0px; margin-bottom: 0px; font-size: 40px"";>מוכנים לשלם: <span id=""c_p_y""></span></p>","74","evaluation","23","29","8C,19A,24B","65","76","73","","","","","","","","","","","","","","","",""
"","","","","","html-keyboard-response","35","188775","0.0-17.0-2.5","50052cbf-eedb-4b9a-bc19-fe6cde12d8bc","null","<p style=""text-align: center;"">+</p>","null","fixation","","","","","","","","","","","","","","","","","","","","","",""
"","","","","","html-slider-response","36","189779","0.0-17.0-0.6","50052cbf-eedb-4b9a-bc19-fe6cde12d8bc","1000","
                  <p style=""text-align: center;"">₪71
                                                <br>55%</p>
                  <p id=""wtp"" style=""text-align:center; margin-top: 0px; margin-bottom: 0px; font-size: 40px"";>&ensp;</p>","-","viewing","0","27","5B,18A","","","","","","","","","","","","","","","","","","",""
"","","","","","html-slider-response","37","193782","0.0-17.0-1.6","50052cbf-eedb-4b9a-bc19-fe6cde12d8bc","null","
                  <p style=""text-align: center;"">₪71
                                                <br>55%</p>
                  <p id=""wtp"" style=""text-align:center; margin-top: 0px; margin-bottom: 0px; font-size: 40px"";>מוכנים לשלם: <span id=""c_p_y""></span></p>","null","evaluation","32","27","5B,18A","55","71","61","","","","","","","","","","","","","","","",""
"","","","","","html-keyboard-response","38","195247","0.0-17.0-2.6","50052cbf-eedb-4b9a-bc19-fe6cde12d8bc","null","<p style=""text-align: center;"">+</p>","null","fixation","","","","","","","","","","","","","","","","","","","","","",""
"","","","","","html-slider-response","39","196258","0.0-17.0-0.7","50052cbf-eedb-4b9a-bc19-fe6cde12d8bc","1000","
                  <p style=""text-align: center;"">₪58
                                                <br>45%</p>
                  <p id=""wtp"" style=""text-align:center; margin-top: 0px; margin-bottom: 0px; font-size: 40px"";>&ensp;</p>","-","viewing","0","21","11C,18C,25A","","","","","","","","","","","","","","","","","","",""
"","","","","","html-slider-response","40","197790","0.0-17.0-1.7","50052cbf-eedb-4b9a-bc19-fe6cde12d8bc","1530","
                  <p style=""text-align: center;"">₪58
                                                <br>45%</p>
                  <p id=""wtp"" style=""text-align:center; margin-top: 0px; margin-bottom: 0px; font-size: 40px"";>מוכנים לשלם: <span id=""c_p_y""></span></p>","42","evaluation","16","21","11C,18C,25A","45","58","42","","","","","","","","","","","","","","","",""
"","","","","","html-keyboard-response","41","198356","0.0-17.0-2.7","50052cbf-eedb-4b9a-bc19-fe6cde12d8bc","null","<p style=""text-align: center;"">+</p>","null","fixation","","","","","","","","","","","","","","","","","","","","","",""
"","","","","","html-slider-response","42","199358","0.0-17.0-0.8","50052cbf-eedb-4b9a-bc19-fe6cde12d8bc","1000","
                  <p style=""text-align: center;"">₪4
                                                <br>75%</p>
                  <p id=""wtp"" style=""text-align:center; margin-top: 0px; margin-bottom: 0px; font-size: 40px"";>&ensp;</p>","-","viewing","0","3","12B,20B,23B,27C,29C","","","","","","","","","","","","","","","","","","",""
"","","","","","html-slider-response","43","202318","0.0-17.0-1.8","50052cbf-eedb-4b9a-bc19-fe6cde12d8bc","2959","
                  <p style=""text-align: center;"">₪4
                                                <br>75%</p>
                  <p id=""wtp"" style=""text-align:center; margin-top: 0px; margin-bottom: 0px; font-size: 40px"";>מוכנים לשלם: <span id=""c_p_y""></span></p>","22","evaluation","57","3","12B,20B,23B,27C,29C","75","4","22","","","","","","","","","","","","","","","",""
"","","","","","html-keyboard-response","44","202943","0.0-17.0-2.8","50052cbf-eedb-4b9a-bc19-fe6cde12d8bc","null","<p style=""text-align: center;"">+</p>","null","fixation","","","","","","","","","","","","","","","","","","","","","",""
"","","","","","html-slider-response","45","203956","0.0-17.0-0.9","50052cbf-eedb-4b9a-bc19-fe6cde12d8bc","1000","
                  <p style=""text-align: center;"">₪43
                                                <br>75%</p>
                  <p id=""wtp"" style=""text-align:center; margin-top: 0px; margin-bottom: 0px; font-size: 40px"";>&ensp;</p>","-","viewing","0","18","11B,19B,24A,26A","","","","","","","","","","","","","","","","","","",""
"","","","","","html-slider-response","46","206782","0.0-17.0-1.9","50052cbf-eedb-4b9a-bc19-fe6cde12d8bc","2824","
                  <p style=""text-align: center;"">₪43
                                                <br>75%</p>
                  <p id=""wtp"" style=""text-align:center; margin-top: 0px; margin-bottom: 0px; font-size: 40px"";>מוכנים לשלם: <span id=""c_p_y""></span></p>","79","evaluation","76","18","11B,19B,24A,26A","75","43","78","","","","","","","","","","","","","","","",""
"","","","","","html-keyboard-response","47","207396","0.0-17.0-2.9","50052cbf-eedb-4b9a-bc19-fe6cde12d8bc","null","<p style=""text-align: center;"">+</p>","null","fixation","","","","","","","","","","","","","","","","","","","","","",""
"","","","","","html-slider-response","48","208411","0.0-17.0-0.10","50052cbf-eedb-4b9a-bc19-fe6cde12d8bc","1000","
                  <p style=""text-align: center;"">₪43
                                                <br>60%</p>
                  <p id=""wtp"" style=""text-align:center; margin-top: 0px; margin-bottom: 0px; font-size: 40px"";>&ensp;</p>","-","viewing","0","17","2A,7A,9A,15B","","","","","","","","","","","","","","","","","","",""
"","","","","","html-slider-response","49","209269","0.0-17.0-1.10","50052cbf-eedb-4b9a-bc19-fe6cde12d8bc","857","
                  <p style=""text-align: center;"">₪43
                                                <br>60%</p>
                  <p id=""wtp"" style=""text-align:center; margin-top: 0px; margin-bottom: 0px; font-size: 40px"";>מוכנים לשלם: <span id=""c_p_y""></span></p>","52","evaluation","75","17","2A,7A,9A,15B","60","43","51","","","","","","","","","","","","","","","",""
"","","","","","html-keyboard-response","50","210601","0.0-17.0-2.10","50052cbf-eedb-4b9a-bc19-fe6cde12d8bc","null","<p style=""text-align: center;"">+</p>","null","fixation","","","","","","","","","","","","","","","","","","","","","",""
"","","","","","html-slider-response","51","211609","0.0-17.0-0.11","50052cbf-eedb-4b9a-bc19-fe6cde12d8bc","1000","
                  <p style=""text-align: center;"">₪39
                                                <br>60%</p>
                  <p id=""wtp"" style=""text-align:center; margin-top: 0px; margin-bottom: 0px; font-size: 40px"";>&ensp;</p>","-","viewing","0","15","9C,25B","","","","","","","","","","","","","","","","","","",""
"","","","","","html-slider-response","52","212446","0.0-17.0-1.11","50052cbf-eedb-4b9a-bc19-fe6cde12d8bc","835","
                  <p style=""text-align: center;"">₪39
                                                <br>60%</p>
                  <p id=""wtp"" style=""text-align:center; margin-top: 0px; margin-bottom: 0px; font-size: 40px"";>מוכנים לשלם: <span id=""c_p_y""></span></p>","43","evaluation","58","15","9C,25B","60","39","43","","","","","","","","","","","","","","","",""
"","","","","","html-keyboard-response","53","213677","0.0-17.0-2.11","50052cbf-eedb-4b9a-bc19-fe6cde12d8bc","null","<p style=""text-align: center;"">+</p>","null","fixation","","","","","","","","","","","","","","","","","","","","","",""
"","","","","","html-slider-response","54","214685","0.0-17.0-0.12","50052cbf-eedb-4b9a-bc19-fe6cde12d8bc","1000","
                  <p style=""text-align: center;"">₪11
                                                <br>20%</p>
                  <p id=""wtp"" style=""text-align:center; margin-top: 0px; margin-bottom: 0px; font-size: 40px"";>&ensp;</p>","-","viewing","0","4","12C,17C,23C,28C","","","","","","","","","","","","","","","","","","",""
"","","","","","html-slider-response","55","215622","0.0-17.0-1.12","50052cbf-eedb-4b9a-bc19-fe6cde12d8bc","935","
                  <p style=""text-align: center;"">₪11
                                                <br>20%</p>
                  <p id=""wtp"" style=""text-align:center; margin-top: 0px; margin-bottom: 0px; font-size: 40px"";>מוכנים לשלם: <span id=""c_p_y""></span></p>","7","evaluation","5","4","12C,17C,23C,28C","20","11","8","","","","","","","","","","","","","","","",""
"","","","","","html-keyboard-response","56","216570","0.0-17.0-2.12","50052cbf-eedb-4b9a-bc19-fe6cde12d8bc","null","<p style=""text-align: center;"">+</p>","null","fixation","","","","","","","","","","","","","","","","","","","","","",""
"","","","","","html-slider-response","57","217582","0.0-17.0-0.13","50052cbf-eedb-4b9a-bc19-fe6cde12d8bc","1000","
                  <p style=""text-align: center;"">₪71
                                                <br>45%</p>
                  <p id=""wtp"" style=""text-align:center; margin-top: 0px; margin-bottom: 0px; font-size: 40px"";>&ensp;</p>","-","viewing","0","26","2B,16A","","","","","","","","","","","","","","","","","","",""
"","","","","","html-slider-response","58","218718","0.0-17.0-1.13","50052cbf-eedb-4b9a-bc19-fe6cde12d8bc","1134","
                  <p style=""text-align: center;"">₪71
                                                <br>45%</p>
                  <p id=""wtp"" style=""text-align:center; margin-top: 0px; margin-bottom: 0px; font-size: 40px"";>מוכנים לשלם: <span id=""c_p_y""></span></p>","52","evaluation","28","26","2B,16A","45","71","51","","","","","","","","","","","","","","","",""
"","","","","","html-keyboard-response","59","219446","0.0-17.0-2.13","50052cbf-eedb-4b9a-bc19-fe6cde12d8bc","null","<p style=""text-align: center;"">+</p>","null","fixation","","","","","","","","","","","","","","","","","","","","","",""
"","","","","","html-slider-response","60","220453","0.0-17.0-0.14","50052cbf-eedb-4b9a-bc19-fe6cde12d8bc","1000","
                  <p style=""text-align: center;"">₪58
                                                <br>40%</p>
                  <p id=""wtp"" style=""text-align:center; margin-top: 0px; margin-bottom: 0px; font-size: 40px"";>&ensp;</p>","-","viewing","0","20","10C,13A,19C,21B","","","","","","","","","","","","","","","","","","",""
"","","","","","html-slider-response","61","222229","0.0-17.0-1.14","50052cbf-eedb-4b9a-bc19-fe6cde12d8bc","1775","
                  <p style=""text-align: center;"">₪58
                                                <br>40%</p>
                  <p id=""wtp"" style=""text-align:center; margin-top: 0px; margin-bottom: 0px; font-size: 40px"";>מוכנים לשלם: <span id=""c_p_y""></span></p>","19","evaluation","44","20","10C,13A,19C,21B","40","58","19","","","","","","","","","","","","","","","",""
"","","","","","html-keyboard-response","62","222787","0.0-17.0-2.14","50052cbf-eedb-4b9a-bc19-fe6cde12d8bc","null","<p style=""text-align: center;"">+</p>","null","fixation","","","","","","","","","","","","","","","","","","","","","",""
"","","","","","html-slider-response","63","223791","0.0-17.0-0.15","50052cbf-eedb-4b9a-bc19-fe6cde12d8bc","1000","
                  <p style=""text-align: center;"">₪39
                                                <br>65%</p>
                  <p id=""wtp"" style=""text-align:center; margin-top: 0px; margin-bottom: 0px; font-size: 40px"";>&ensp;</p>","-","viewing","0","16","1A,15A,26C","","","","","","","","","","","","","","","","","","",""
"","","","","","html-slider-response","64","225166","0.0-17.0-1.15","50052cbf-eedb-4b9a-bc19-fe6cde12d8bc","1374","
                  <p style=""text-align: center;"">₪39
                                                <br>65%</p>
                  <p id=""wtp"" style=""text-align:center; margin-top: 0px; margin-bottom: 0px; font-size: 40px"";>מוכנים לשלם: <span id=""c_p_y""></span></p>","60","evaluation","20","16","1A,15A,26C","65","39","60","","","","","","","","","","","","","","","",""
"","","","","","html-keyboard-response","65","226460","0.0-17.0-2.15","50052cbf-eedb-4b9a-bc19-fe6cde12d8bc","null","<p style=""text-align: center;"">+</p>","null","fixation","","","","","","","","","","","","","","","","","","","","","",""
"","","","","","html-slider-response","66","227471","0.0-17.0-0.16","50052cbf-eedb-4b9a-bc19-fe6cde12d8bc","1000","
                  <p style=""text-align: center;"">₪11
                                                <br>45%</p>
                  <p id=""wtp"" style=""text-align:center; margin-top: 0px; margin-bottom: 0px; font-size: 40px"";>&ensp;</p>","-","viewing","0","6","14B,21C,25C","","","","","","","","","","","","","","","","","","",""
"","","","","","html-slider-response","67","228190","0.0-17.0-1.16","50052cbf-eedb-4b9a-bc19-fe6cde12d8bc","718","
                  <p style=""text-align: center;"">₪11
                                                <br>45%</p>
                  <p id=""wtp"" style=""text-align:center; margin-top: 0px; margin-bottom: 0px; font-size: 40px"";>מוכנים לשלם: <span id=""c_p_y""></span></p>","20","evaluation","73","6","14B,21C,25C","45","11","21","","","","","","","","","","","","","","","",""
"","","","","","html-keyboard-response","68","229342","0.0-17.0-2.16","50052cbf-eedb-4b9a-bc19-fe6cde12d8bc","null","<p style=""text-align: center;"">+</p>","null","fixation","","","","","","","","","","","","","","","","","","","","","",""
"","","","","","html-slider-response","69","230354","0.0-17.0-0.17","50052cbf-eedb-4b9a-bc19-fe6cde12d8bc","1000","
                  <p style=""text-align: center;"">₪36
                                                <br>60%</p>
                  <p id=""wtp"" style=""text-align:center; margin-top: 0px; margin-bottom: 0px; font-size: 40px"";>&ensp;</p>","-","viewing","0","12","1C,7C,15C","","","","","","","","","","","","","","","","","","",""
"","","","","","html-slider-response","70","231942","0.0-17.0-1.17","50052cbf-eedb-4b9a-bc19-fe6cde12d8bc","1587","
                  <p style=""text-align: center;"">₪36
                                                <br>60%</p>
                  <p id=""wtp"" style=""text-align:center; margin-top: 0px; margin-bottom: 0px; font-size: 40px"";>מוכנים לשלם: <span id=""c_p_y""></span></p>","51","evaluation","63","12","1C,7C,15C","60","36","51","","","","","","","","","","","","","","","",""
"","","","","","html-keyboard-response","71","233416","0.0-17.0-2.17","50052cbf-eedb-4b9a-bc19-fe6cde12d8bc","null","<p style=""text-align: center;"">+</p>","null","fixation","","","","","","","","","","","","","","","","","","","","","",""
"","","","","","html-slider-response","72","234419","0.0-17.0-0.18","50052cbf-eedb-4b9a-bc19-fe6cde12d8bc","1000","
                  <p style=""text-align: center;"">₪64
                                                <br>50%</p>
                  <p id=""wtp"" style=""text-align:center; margin-top: 0px; margin-bottom: 0px; font-size: 40px"";>&ensp;</p>","-","viewing","0","25","1B,3B,4A","","","","","","","","","","","","","","","","","","",""
"","","","","","html-slider-response","73","236414","0.0-17.0-1.18","50052cbf-eedb-4b9a-bc19-fe6cde12d8bc","1994","
                  <p style=""text-align: center;"">₪64
                                                <br>50%</p>
                  <p id=""wtp"" style=""text-align:center; margin-top: 0px; margin-bottom: 0px; font-size: 40px"";>מוכנים לשלם: <span id=""c_p_y""></span></p>","62","evaluation","8","25","1B,3B,4A","50","64","61","","","","","","","","","","","","","","","",""
"","","","","","html-keyboard-response","74","237416","0.0-17.0-2.18","50052cbf-eedb-4b9a-bc19-fe6cde12d8bc","null","<p style=""text-align: center;"">+</p>","null","fixation","","","","","","","","","","","","","","","","","","","","","",""
"","","","","","html-slider-response","75","238419","0.0-17.0-0.19","50052cbf-eedb-4b9a-bc19-fe6cde12d8bc","1000","
                  <p style=""text-align: center;"">₪16
                                                <br>20%</p>
                  <p id=""wtp"" style=""text-align:center; margin-top: 0px; margin-bottom: 0px; font-size: 40px"";>&ensp;</p>","-","viewing","0","8","14C,17A,20C,27A","","","","","","","","","","","","","","","","","","",""
"","","","","","html-slider-response","76","239158","0.0-17.0-1.19","50052cbf-eedb-4b9a-bc19-fe6cde12d8bc","737","
                  <p style=""text-align: center;"">₪16
                                                <br>20%</p>
                  <p id=""wtp"" style=""text-align:center; margin-top: 0px; margin-bottom: 0px; font-size: 40px"";>מוכנים לשלם: <span id=""c_p_y""></span></p>","16","evaluation","38","8","14C,17A,20C,27A","20","16","17","","","","","","","","","","","","","","","",""
"","","","","","html-keyboard-response","77","239734","0.0-17.0-2.19","50052cbf-eedb-4b9a-bc19-fe6cde12d8bc","null","<p style=""text-align: center;"">+</p>","null","fixation","","","","","","","","","","","","","","","","","","","","","",""
"","","","","","html-slider-response","78","240737","0.0-17.0-0.20","50052cbf-eedb-4b9a-bc19-fe6cde12d8bc","1000","
                  <p style=""text-align: center;"">₪36
                                                <br>70%</p>
                  <p id=""wtp"" style=""text-align:center; margin-top: 0px; margin-bottom: 0px; font-size: 40px"";>&ensp;</p>","-","viewing","0","13","3A,5C,10B","","","","","","","","","","","","","","","","","","",""
"","","","","","html-slider-response","79","241902","0.0-17.0-1.20","50052cbf-eedb-4b9a-bc19-fe6cde12d8bc","1163","
                  <p style=""text-align: center;"">₪36
                                                <br>70%</p>
                  <p id=""wtp"" style=""text-align:center; margin-top: 0px; margin-bottom: 0px; font-size: 40px"";>מוכנים לשלם: <span id=""c_p_y""></span></p>","65","evaluation","33","13","3A,5C,10B","70","36","64","","","","","","","","","","","","","","","",""
"","","","","","html-keyboard-response","80","242685","0.0-17.0-2.20","50052cbf-eedb-4b9a-bc19-fe6cde12d8bc","null","<p style=""text-align: center;"">+</p>","null","fixation","","","","","","","","","","","","","","","","","","","","","",""
"","","","","","html-slider-response","81","243687","0.0-17.0-0.21","50052cbf-eedb-4b9a-bc19-fe6cde12d8bc","1000","
                  <p style=""text-align: center;"">₪61
                                                <br>55%</p>
                  <p id=""wtp"" style=""text-align:center; margin-top: 0px; margin-bottom: 0px; font-size: 40px"";>&ensp;</p>","-","viewing","0","23","7B,26B","","","","","","","","","","","","","","","","","","",""
"","","","","","html-slider-response","82","245238","0.0-17.0-1.21","50052cbf-eedb-4b9a-bc19-fe6cde12d8bc","1549","
                  <p style=""text-align: center;"">₪61
                                                <br>55%</p>
                  <p id=""wtp"" style=""text-align:center; margin-top: 0px; margin-bottom: 0px; font-size: 40px"";>מוכנים לשלם: <span id=""c_p_y""></span></p>","45","evaluation","18","23","7B,26B","55","61","44","","","","","","","","","","","","","","","",""
"","","","","","html-keyboard-response","83","246237","0.0-17.0-2.21","50052cbf-eedb-4b9a-bc19-fe6cde12d8bc","null","<p style=""text-align: center;"">+</p>","null","fixation","","","","","","","","","","","","","","","","","","","","","",""
"","","","","","html-slider-response","84","247253","0.0-17.0-0.22","50052cbf-eedb-4b9a-bc19-fe6cde12d8bc","1000","
                  <p style=""text-align: center;"">₪11
                                                <br>25%</p>
                  <p id=""wtp"" style=""text-align:center; margin-top: 0px; margin-bottom: 0px; font-size: 40px"";>&ensp;</p>","-","viewing","0","5","12A,27B,28B,30B","","","","","","","","","","","","","","","","","","",""
"","","","","","html-slider-response","85","247910","0.0-17.0-1.22","50052cbf-eedb-4b9a-bc19-fe6cde12d8bc","655","
                  <p style=""text-align: center;"">₪11
                                                <br>25%</p>
                  <p id=""wtp"" style=""text-align:center; margin-top: 0px; margin-bottom: 0px; font-size: 40px"";>מוכנים לשלם: <span id=""c_p_y""></span></p>","8","evaluation","13","5","12A,27B,28B,30B","25","11","9","","","","","","","","","","","","","","","",""
"","","","","","html-keyboard-response","86","248688","0.0-17.0-2.22","50052cbf-eedb-4b9a-bc19-fe6cde12d8bc","null","<p style=""text-align: center;"">+</p>","null","fixation","","","","","","","","","","","","","","","","","","","","","",""
"","","","","","html-slider-response","87","249689","0.0-17.0-0.23","50052cbf-eedb-4b9a-bc19-fe6cde12d8bc","1000","
                  <p style=""text-align: center;"">₪58
                                                <br>30%</p>
                  <p id=""wtp"" style=""text-align:center; margin-top: 0px; margin-bottom: 0px; font-size: 40px"";>&ensp;</p>","-","viewing","0","19","13C,30A","","","","","","","","","","","","","","","","","","",""
"","","","","","html-slider-response","88","250174","0.0-17.0-1.23","50052cbf-eedb-4b9a-bc19-fe6cde12d8bc","483","
                  <p style=""text-align: center;"">₪58
                                                <br>30%</p>
                  <p id=""wtp"" style=""text-align:center; margin-top: 0px; margin-bottom: 0px; font-size: 40px"";>מוכנים לשלם: <span id=""c_p_y""></span></p>","14","evaluation","13","19","13C,30A","30","58","15","","","","","","","","","","","","","","","",""
"","","","","","html-keyboard-response","89","251134","0.0-17.0-2.23","50052cbf-eedb-4b9a-bc19-fe6cde12d8bc","null","<p style=""text-align: center;"">+</p>","null","fixation","","","","","","","","","","","","","","","","","","","","","",""
"","","","","","html-slider-response","90","252149","0.0-17.0-0.24","50052cbf-eedb-4b9a-bc19-fe6cde12d8bc","1000","
                  <p style=""text-align: center;"">₪61
                                                <br>45%</p>
                  <p id=""wtp"" style=""text-align:center; margin-top: 0px; margin-bottom: 0px; font-size: 40px"";>&ensp;</p>","-","viewing","0","22","10A,11A","","","","","","","","","","","","","","","","","","",""
"","","","","","html-slider-response","91","253118","0.0-17.0-1.24","50052cbf-eedb-4b9a-bc19-fe6cde12d8bc","967","
                  <p style=""text-align: center;"">₪61
                                                <br>45%</p>
                  <p id=""wtp"" style=""text-align:center; margin-top: 0px; margin-bottom: 0px; font-size: 40px"";>מוכנים לשלם: <span id=""c_p_y""></span></p>","25","evaluation","28","22","10A,11A","45","61","25","","","","","","","","","","","","","","","",""
"","","","","","html-keyboard-response","92","254347","0.0-17.0-2.24","50052cbf-eedb-4b9a-bc19-fe6cde12d8bc","null","<p style=""text-align: center;"">+</p>","null","fixation","","","","","","","","","","","","","","","","","","","","","",""
"","","","","","html-slider-response","93","255354","0.0-17.0-0.25","50052cbf-eedb-4b9a-bc19-fe6cde12d8bc","1000","
                  <p style=""text-align: center;"">₪18
                                                <br>50%</p>
                  <p id=""wtp"" style=""text-align:center; margin-top: 0px; margin-bottom: 0px; font-size: 40px"";>&ensp;</p>","-","viewing","0","10","2C,16C,22B,28A","","","","","","","","","","","","","","","","","","",""
"","","","","","html-slider-response","94","256925","0.0-17.0-1.25","50052cbf-eedb-4b9a-bc19-fe6cde12d8bc","1570","
                  <p style=""text-align: center;"">₪18
                                                <br>50%</p>
                  <p id=""wtp"" style=""text-align:center; margin-top: 0px; margin-bottom: 0px; font-size: 40px"";>מוכנים לשלם: <span id=""c_p_y""></span></p>","29","evaluation","78","10","2C,16C,22B,28A","50","18","29","","","","","","","","","","","","","","","",""
"","","","","","html-keyboard-response","95","257740","0.0-17.0-2.25","50052cbf-eedb-4b9a-bc19-fe6cde12d8bc","null","<p style=""text-align: center;"">+</p>","null","fixation","","","","","","","","","","","","","","","","","","","","","",""
"","","","","","html-slider-response","96","258743","0.0-17.0-0.26","50052cbf-eedb-4b9a-bc19-fe6cde12d8bc","1000","
                  <p style=""text-align: center;"">₪4
                                                <br>25%</p>
                  <p id=""wtp"" style=""text-align:center; margin-top: 0px; margin-bottom: 0px; font-size: 40px"";>&ensp;</p>","-","viewing","0","1","6C,29B,30C","","","","","","","","","","","","","","","","","","",""
"","","","","","html-slider-response","97","260269","0.0-17.0-1.26","50052cbf-eedb-4b9a-bc19-fe6cde12d8bc","1525","
                  <p style=""text-align: center;"">₪4
                                                <br>25%</p>
                  <p id=""wtp"" style=""text-align:center; margin-top: 0px; margin-bottom: 0px; font-size: 40px"";>מוכנים לשלם: <span id=""c_p_y""></span></p>","1","evaluation","25","1","6C,29B,30C","25","4","2","","","","","","","","","","","","","","","",""
"","","","","","html-keyboard-response","98","261586","0.0-17.0-2.26","50052cbf-eedb-4b9a-bc19-fe6cde12d8bc","null","<p style=""text-align: center;"">+</p>","null","fixation","","","","","","","","","","","","","","","","","","","","","",""
"","","","","","html-slider-response","99","262591","0.0-17.0-0.27","50052cbf-eedb-4b9a-bc19-fe6cde12d8bc","1000","
                  <p style=""text-align: center;"">₪36
                                                <br>75%</p>
                  <p id=""wtp"" style=""text-align:center; margin-top: 0px; margin-bottom: 0px; font-size: 40px"";>&ensp;</p>","-","viewing","0","14","4B,5A,13B,16B","","","","","","","","","","","","","","","","","","",""
"","","","","","html-slider-response","100","263598","0.0-17.0-1.27","50052cbf-eedb-4b9a-bc19-fe6cde12d8bc","1006","
                  <p style=""text-align: center;"">₪36
                                                <br>75%</p>
                  <p id=""wtp"" style=""text-align:center; margin-top: 0px; margin-bottom: 0px; font-size: 40px"";>מוכנים לשלם: <span id=""c_p_y""></span></p>","68","evaluation","47","14","4B,5A,13B,16B","75","36","67","","","","","","","","","","","","","","","",""
"","","","","","html-keyboard-response","101","265087","0.0-17.0-2.27","50052cbf-eedb-4b9a-bc19-fe6cde12d8bc","null","<p style=""text-align: center;"">+</p>","null","fixation","","","","","","","","","","","","","","","","","","","","","",""
"","","","","","html-slider-response","102","266090","0.0-17.0-0.28","50052cbf-eedb-4b9a-bc19-fe6cde12d8bc","1000","
                  <p style=""text-align: center;"">₪11
                                                <br>75%</p>
                  <p id=""wtp"" style=""text-align:center; margin-top: 0px; margin-bottom: 0px; font-size: 40px"";>&ensp;</p>","-","viewing","0","7","6B,18B,22C,24C,29A","","","","","","","","","","","","","","","","","","",""
"","","","","","html-slider-response","103","267046","0.0-17.0-1.28","50052cbf-eedb-4b9a-bc19-fe6cde12d8bc","955","
                  <p style=""text-align: center;"">₪11
                                                <br>75%</p>
                  <p id=""wtp"" style=""text-align:center; margin-top: 0px; margin-bottom: 0px; font-size: 40px"";>מוכנים לשלם: <span id=""c_p_y""></span></p>","34","evaluation","18","7","6B,18B,22C,24C,29A","75","11","34","","","","","","","","","","","","","","","",""
"","","","","","html-keyboard-response","104","268309","0.0-17.0-2.28","50052cbf-eedb-4b9a-bc19-fe6cde12d8bc","null","<p style=""text-align: center;"">+</p>","null","fixation","","","","","","","","","","","","","","","","","","","","","",""
"","","","","","html-slider-response","105","269319","0.0-17.0-0.29","50052cbf-eedb-4b9a-bc19-fe6cde12d8bc","1000","
                  <p style=""text-align: center;"">₪79
                                                <br>40%</p>
                  <p id=""wtp"" style=""text-align:center; margin-top: 0px; margin-bottom: 0px; font-size: 40px"";>&ensp;</p>","-","viewing","0","30","9B","","","","","","","","","","","","","","","","","","",""
"","","","","","html-slider-response","106","271517","0.0-17.0-1.29","50052cbf-eedb-4b9a-bc19-fe6cde12d8bc","2197","
                  <p style=""text-align: center;"">₪79
                                                <br>40%</p>
                  <p id=""wtp"" style=""text-align:center; margin-top: 0px; margin-bottom: 0px; font-size: 40px"";>מוכנים לשלם: <span id=""c_p_y""></span></p>","62","evaluation","64","30","9B","40","79","61","","","","","","","","","","","","","","","",""
"","","","","","html-keyboard-response","107","272584","0.0-17.0-2.29","50052cbf-eedb-4b9a-bc19-fe6cde12d8bc","null","<p style=""text-align: center;"">+</p>","null","fixation","","","","","","","","","","","","","","","","","","","","","",""
"","","","","","html-slider-response","108","273586","0.0-17.0-0.30","50052cbf-eedb-4b9a-bc19-fe6cde12d8bc","1000","
                  <p style=""text-align: center;"">₪71
                                                <br>75%</p>
                  <p id=""wtp"" style=""text-align:center; margin-top: 0px; margin-bottom: 0px; font-size: 40px"";>&ensp;</p>","-","viewing","0","28","8B","","","","","","","","","","","","","","","","","","",""
"","","","","","html-slider-response","109","274517","0.0-17.0-1.30","50052cbf-eedb-4b9a-bc19-fe6cde12d8bc","931","
                  <p style=""text-align: center;"">₪71
                                                <br>75%</p>
                  <p id=""wtp"" style=""text-align:center; margin-top: 0px; margin-bottom: 0px; font-size: 40px"";>מוכנים לשלם: <span id=""c_p_y""></span></p>","70","evaluation","6","28","8B","75","71","70","","","","","","","","","","","","","","","",""
"","","","","","html-keyboard-response","110","275956","0.0-17.0-2.30","50052cbf-eedb-4b9a-bc19-fe6cde12d8bc","null","<p style=""text-align: center;"">+</p>","null","fixation","","","","","","","","","","","","","","","","","","","","","",""
"","","","","","html-keyboard-response","111","276956","0.0-18.0","50052cbf-eedb-4b9a-bc19-fe6cde12d8bc","null","<p style=""text-align: center;"">+</p>","null","fixation","","","","","","","","","","","","","","","","","","","","","",""
"","","","","","html-keyboard-response","112","287189","0.0-19.0","50052cbf-eedb-4b9a-bc19-fe6cde12d8bc","null","<p>הפסקה.
          <br>לחצו כדי להמשיך.</p>","1","scan_wait","","","","","","","","","","","","","","","","","","","","","",""
"","","","","","html-keyboard-response","113","288193","0.0-20.0","50052cbf-eedb-4b9a-bc19-fe6cde12d8bc","null","<p style=""text-align: center;"">+</p>","null","fixation","","","","","","","","","","","","","","","","","","","","","",""
"","","","","","html-slider-response","114","289195","0.0-21.0-0.0","50052cbf-eedb-4b9a-bc19-fe6cde12d8bc","1000","
                  <p style=""text-align: center;"">₪76
                                                <br>65%</p>
                  <p id=""wtp"" style=""text-align:center; margin-top: 0px; margin-bottom: 0px; font-size: 40px"";>&ensp;</p>","-","viewing","0","29","8C,19A,24B","","","","","","","","","","","","","","","","","","",""
"","","","","","html-slider-response","115","290502","0.0-21.0-1.0","50052cbf-eedb-4b9a-bc19-fe6cde12d8bc","1306","
                  <p style=""text-align: center;"">₪76
                                                <br>65%</p>
                  <p id=""wtp"" style=""text-align:center; margin-top: 0px; margin-bottom: 0px; font-size: 40px"";>מוכנים לשלם: <span id=""c_p_y""></span></p>","61","evaluation","62","29","8C,19A,24B","65","76","60","","","","","","","","","","","","","","","",""
"","","","","","html-keyboard-response","116","291644","0.0-21.0-2.0","50052cbf-eedb-4b9a-bc19-fe6cde12d8bc","null","<p style=""text-align: center;"">+</p>","null","fixation","","","","","","","","","","","","","","","","","","","","","",""
"","","","","","html-slider-response","117","292655","0.0-21.0-0.1","50052cbf-eedb-4b9a-bc19-fe6cde12d8bc","1000","
                  <p style=""text-align: center;"">₪43
                                                <br>60%</p>
                  <p id=""wtp"" style=""text-align:center; margin-top: 0px; margin-bottom: 0px; font-size: 40px"";>&ensp;</p>","-","viewing","0","17","2A,7A,9A,15B","","","","","","","","","","","","","","","","","","",""
"","","","","","html-slider-response","118","293070","0.0-21.0-1.1","50052cbf-eedb-4b9a-bc19-fe6cde12d8bc","414","
                  <p style=""text-align: center;"">₪43
                                                <br>60%</p>
                  <p id=""wtp"" style=""text-align:center; margin-top: 0px; margin-bottom: 0px; font-size: 40px"";>מוכנים לשלם: <span id=""c_p_y""></span></p>","45","evaluation","12","17","2A,7A,9A,15B","60","43","45","","","","","","","","","","","","","","","",""
"","","","","","html-keyboard-response","119","294408","0.0-21.0-2.1","50052cbf-eedb-4b9a-bc19-fe6cde12d8bc","null","<p style=""text-align: center;"">+</p>","null","fixation","","","","","","","","","","","","","","","","","","","","","",""
"","","","","","html-slider-response","120","295418","0.0-21.0-0.2","50052cbf-eedb-4b9a-bc19-fe6cde12d8bc","1000","
                  <p style=""text-align: center;"">₪11
                                                <br>20%</p>
                  <p id=""wtp"" style=""text-align:center; margin-top: 0px; margin-bottom: 0px; font-size: 40px"";>&ensp;</p>","-","viewing","0","4","12C,17C,23C,28C","","","","","","","","","","","","","","","","","","",""
"","","","","","html-slider-response","121","296830","0.0-21.0-1.2","50052cbf-eedb-4b9a-bc19-fe6cde12d8bc","1411","
                  <p style=""text-align: center;"">₪11
                                                <br>20%</p>
                  <p id=""wtp"" style=""text-align:center; margin-top: 0px; margin-bottom: 0px; font-size: 40px"";>מוכנים לשלם: <span id=""c_p_y""></span></p>","6","evaluation","76","4","12C,17C,23C,28C","20","11","7","","","","","","","","","","","","","","","",""
"","","","","","html-keyboard-response","122","298226","0.0-21.0-2.2","50052cbf-eedb-4b9a-bc19-fe6cde12d8bc","null","<p style=""text-align: center;"">+</p>","null","fixation","","","","","","","","","","","","","","","","","","","","","",""
"","","","","","html-slider-response","123","299227","0.0-21.0-0.3","50052cbf-eedb-4b9a-bc19-fe6cde12d8bc","1000","
                  <p style=""text-align: center;"">₪39
                                                <br>60%</p>
                  <p id=""wtp"" style=""text-align:center; margin-top: 0px; margin-bottom: 0px; font-size: 40px"";>&ensp;</p>","-","viewing","0","15","9C,25B","","","","","","","","","","","","","","","","","","",""
"","","","","","html-slider-response","124","300974","0.0-21.0-1.3","50052cbf-eedb-4b9a-bc19-fe6cde12d8bc","1746","
                  <p style=""text-align: center;"">₪39
                                                <br>60%</p>
                  <p id=""wtp"" style=""text-align:center; margin-top: 0px; margin-bottom: 0px; font-size: 40px"";>מוכנים לשלם: <span id=""c_p_y""></span></p>","49","evaluation","20","15","9C,25B","60","39","49","","","","","","","","","","","","","","","",""
"","","","","","html-keyboard-response","125","301576","0.0-21.0-2.3","50052cbf-eedb-4b9a-bc19-fe6cde12d8bc","null","<p style=""text-align: center;"">+</p>","null","fixation","","","","","","","","","","","","","","","","","","","","","",""
"","","","","","html-slider-response","126","302579","0.0-21.0-0.4","50052cbf-eedb-4b9a-bc19-fe6cde12d8bc","1000","
                  <p style=""text-align: center;"">₪11
                                                <br>75%</p>
                  <p id=""wtp"" style=""text-align:center; margin-top: 0px; margin-bottom: 0px; font-size: 40px"";>&ensp;</p>","-","viewing","0","7","6B,18B,22C,24C,29A","","","","","","","","","","","","","","","","","","",""
"","","","","","html-slider-response","127","305926","0.0-21.0-1.4","50052cbf-eedb-4b9a-bc19-fe6cde12d8bc","3345","
                  <p style=""text-align: center;"">₪11
                                                <br>75%</p>
                  <p id=""wtp"" style=""text-align:center; margin-top: 0px; margin-bottom: 0px; font-size: 40px"";>מוכנים לשלם: <span id=""c_p_y""></span></p>","51","evaluation","36","7","6B,18B,22C,24C,29A","75","11","51","","","","","","","","","","","","","","","",""
"","","","","","html-keyboard-response","128","306929","0.0-21.0-2.4","50052cbf-eedb-4b9a-bc19-fe6cde12d8bc","null","<p style=""text-align: center;"">+</p>","null","fixation","","","","","","","","","","","","","","","","","","","","","",""
"","","","","","html-slider-response","129","307938","0.0-21.0-0.5","50052cbf-eedb-4b9a-bc19-fe6cde12d8bc","1000","
                  <p style=""text-align: center;"">₪18
                                                <br>25%</p>
                  <p id=""wtp"" style=""text-align:center; margin-top: 0px; margin-bottom: 0px; font-size: 40px"";>&ensp;</p>","-","viewing","0","9","14A,23A","","","","","","","","","","","","","","","","","","",""
"","","","","","html-slider-response","130","309790","0.0-21.0-1.5","50052cbf-eedb-4b9a-bc19-fe6cde12d8bc","1851","
                  <p style=""text-align: center;"">₪18
                                                <br>25%</p>
                  <p id=""wtp"" style=""text-align:center; margin-top: 0px; margin-bottom: 0px; font-size: 40px"";>מוכנים לשלם: <span id=""c_p_y""></span></p>","15","evaluation","1","9","14A,23A","25","18","15","","","","","","","","","","","","","","","",""
"","","","","","html-keyboard-response","131","310943","0.0-21.0-2.5","50052cbf-eedb-4b9a-bc19-fe6cde12d8bc","null","<p style=""text-align: center;"">+</p>","null","fixation","","","","","","","","","","","","","","","","","","","","","",""
"","","","","","html-slider-response","132","311953","0.0-21.0-0.6","50052cbf-eedb-4b9a-bc19-fe6cde12d8bc","1000","
                  <p style=""text-align: center;"">₪71
                                                <br>55%</p>
                  <p id=""wtp"" style=""text-align:center; margin-top: 0px; margin-bottom: 0px; font-size: 40px"";>&ensp;</p>","-","viewing","0","27","5B,18A","","","","","","","","","","","","","","","","","","",""
"","","","","","html-slider-response","133","312958","0.0-21.0-1.6","50052cbf-eedb-4b9a-bc19-fe6cde12d8bc","1003","
                  <p style=""text-align: center;"">₪71
                                                <br>55%</p>
                  <p id=""wtp"" style=""text-align:center; margin-top: 0px; margin-bottom: 0px; font-size: 40px"";>מוכנים לשלם: <span id=""c_p_y""></span></p>","47","evaluation","0","27","5B,18A","55","71","46","","","","","","","","","","","","","","","",""
"","","","","","html-keyboard-response","134","314380","0.0-21.0-2.6","50052cbf-eedb-4b9a-bc19-fe6cde12d8bc","null","<p style=""text-align: center;"">+</p>","null","fixation","","","","","","","","","","","","","","","","","","","","","",""
"","","","","","html-slider-response","135","315383","0.0-21.0-0.7","50052cbf-eedb-4b9a-bc19-fe6cde12d8bc","1000","
                  <p style=""text-align: center;"">₪64
                                                <br>50%</p>
                  <p id=""wtp"" style=""text-align:center; margin-top: 0px; margin-bottom: 0px; font-size: 40px"";>&ensp;</p>","-","viewing","0","25","1B,3B,4A","","","","","","","","","","","","","","","","","","",""
"","","","","","html-slider-response","136","319046","0.0-21.0-1.7","50052cbf-eedb-4b9a-bc19-fe6cde12d8bc","3661","
                  <p style=""text-align: center;"">₪64
                                                <br>50%</p>
                  <p id=""wtp"" style=""text-align:center; margin-top: 0px; margin-bottom: 0px; font-size: 40px"";>מוכנים לשלם: <span id=""c_p_y""></span></p>","51","evaluation","54","25","1B,3B,4A","50","64","50","","","","","","","","","","","","","","","",""
"","","","","","html-keyboard-response","137","319750","0.0-21.0-2.7","50052cbf-eedb-4b9a-bc19-fe6cde12d8bc","null","<p style=""text-align: center;"">+</p>","null","fixation","","","","","","","","","","","","","","","","","","","","","",""
"","","","","","html-slider-response","138","320753","0.0-21.0-0.8","50052cbf-eedb-4b9a-bc19-fe6cde12d8bc","1000","
                  <p style=""text-align: center;"">₪11
                                                <br>25%</p>
                  <p id=""wtp"" style=""text-align:center; margin-top: 0px; margin-bottom: 0px; font-size: 40px"";>&ensp;</p>","-","viewing","0","5","12A,27B,28B,30B","","","","","","","","","","","","","","","","","","",""
"","","","","","html-slider-response","139","324366","0.0-21.0-1.8","50052cbf-eedb-4b9a-bc19-fe6cde12d8bc","3611","
                  <p style=""text-align: center;"">₪11
                                                <br>25%</p>
                  <p id=""wtp"" style=""text-align:center; margin-top: 0px; margin-bottom: 0px; font-size: 40px"";>מוכנים לשלם: <span id=""c_p_y""></span></p>","11","evaluation","56","5","12A,27B,28B,30B","25","11","12","","","","","","","","","","","","","","","",""
"","","","","","html-keyboard-response","140","325276","0.0-21.0-2.8","50052cbf-eedb-4b9a-bc19-fe6cde12d8bc","null","<p style=""text-align: center;"">+</p>","null","fixation","","","","","","","","","","","","","","","","","","","","","",""
"","","","","","html-slider-response","141","326288","0.0-21.0-0.9","50052cbf-eedb-4b9a-bc19-fe6cde12d8bc","1000","
                  <p style=""text-align: center;"">₪61
                                                <br>55%</p>
                  <p id=""wtp"" style=""text-align:center; margin-top: 0px; margin-bottom: 0px; font-size: 40px"";>&ensp;</p>","-","viewing","0","23","7B,26B","","","","","","","","","","","","","","","","","","",""
"","","","","","html-slider-response","142","326941","0.0-21.0-1.9","50052cbf-eedb-4b9a-bc19-fe6cde12d8bc","652","
                  <p style=""text-align: center;"">₪61
                                                <br>55%</p>
                  <p id=""wtp"" style=""text-align:center; margin-top: 0px; margin-bottom: 0px; font-size: 40px"";>מוכנים לשלם: <span id=""c_p_y""></span></p>","35","evaluation","7","23","7B,26B","55","61","36","","","","","","","","","","","","","","","",""
"","","","","","html-keyboard-response","143","327765","0.0-21.0-2.9","50052cbf-eedb-4b9a-bc19-fe6cde12d8bc","null","<p style=""text-align: center;"">+</p>","null","fixation","","","","","","","","","","","","","","","","","","","","","",""
"","","","","","html-slider-response","144","328768","0.0-21.0-0.10","50052cbf-eedb-4b9a-bc19-fe6cde12d8bc","1000","
                  <p style=""text-align: center;"">₪79
                                                <br>65%</p>
                  <p id=""wtp"" style=""text-align:center; margin-top: 0px; margin-bottom: 0px; font-size: 40px"";>&ensp;</p>","-","viewing","0","31","8A","","","","","","","","","","","","","","","","","","",""
"","","","","","html-slider-response","145","330622","0.0-21.0-1.10","50052cbf-eedb-4b9a-bc19-fe6cde12d8bc","1853","
                  <p style=""text-align: center;"">₪79
                                                <br>65%</p>
                  <p id=""wtp"" style=""text-align:center; margin-top: 0px; margin-bottom: 0px; font-size: 40px"";>מוכנים לשלם: <span id=""c_p_y""></span></p>","50","evaluation","37","31","8A","65","79","50","","","","","","","","","","","","","","","",""
"","","","","","html-keyboard-response","146","331198","0.0-21.0-2.10","50052cbf-eedb-4b9a-bc19-fe6cde12d8bc","null","<p style=""text-align: center;"">+</p>","null","fixation","","","","","","","","","","","","","","","","","","","","","",""
"","","","","","html-slider-response","147","332200","0.0-21.0-0.11","50052cbf-eedb-4b9a-bc19-fe6cde12d8bc","1000","
                  <p style=""text-align: center;"">₪16
                                                <br>20%</p>
                  <p id=""wtp"" style=""text-align:center; margin-top: 0px; margin-bottom: 0px; font-size: 40px"";>&ensp;</p>","-","viewing","0","8","14C,17A,20C,27A","","","","","","","","","","","","","","","","","","",""
"","","","","","html-slider-response","148","332918","0.0-21.0-1.11","50052cbf-eedb-4b9a-bc19-fe6cde12d8bc","716","
                  <p style=""text-align: center;"">₪16
                                                <br>20%</p>
                  <p id=""wtp"" style=""text-align:center; margin-top: 0px; margin-bottom: 0px; font-size: 40px"";>מוכנים לשלם: <span id=""c_p_y""></span></p>","11","evaluation","11","8","14C,17A,20C,27A","20","16","11","","","","","","","","","","","","","","","",""
"","","","","","html-keyboard-response","149","334378","0.0-21.0-2.11","50052cbf-eedb-4b9a-bc19-fe6cde12d8bc","null","<p style=""text-align: center;"">+</p>","null","fixation","","","","","","","","","","","","","","","","","","","","","",""
"","","","","","html-slider-response","150","335384","0.0-21.0-0.12","50052cbf-eedb-4b9a-bc19-fe6cde12d8bc","1000","
                  <p style=""text-align: center;"">₪11
                                                <br>45%</p>
                  <p id=""wtp"" style=""text-align:center; margin-top: 0px; margin-bottom: 0px; font-size: 40px"";>&ensp;</p>","-","viewing","0","6","14B,21C,25C","","","","","","","","","","","","","","","","","","",""
"","","","","","html-slider-response","151","337646","0.0-21.0-1.12","50052cbf-eedb-4b9a-bc19-fe6cde12d8bc","2260","
                  <p style=""text-align: center;"">₪11
                                                <br>45%</p>
                  <p id=""wtp"" style=""text-align:center; margin-top: 0px; margin-bottom: 0px; font-size: 40px"";>מוכנים לשלם: <span id=""c_p_y""></span></p>","27","evaluation","14","6","14B,21C,25C","45","11","27","","","","","","","","","","","","","","","",""
"","","","","","html-keyboard-response","152","338177","0.0-21.0-2.12","50052cbf-eedb-4b9a-bc19-fe6cde12d8bc","null","<p style=""text-align: center;"">+</p>","null","fixation","","","","","","","","","","","","","","","","","","","","","",""
"","","","","","html-slider-response","153","339180","0.0-21.0-0.13","50052cbf-eedb-4b9a-bc19-fe6cde12d8bc","1000","
                  <p style=""text-align: center;"">₪36
                                                <br>70%</p>
                  <p id=""wtp"" style=""text-align:center; margin-top: 0px; margin-bottom: 0px; font-size: 40px"";>&ensp;</p>","-","viewing","0","13","3A,5C,10B","","","","","","","","","","","","","","","","","","",""
"","","","","","html-slider-response","154","341093","0.0-21.0-1.13","50052cbf-eedb-4b9a-bc19-fe6cde12d8bc","1912","
                  <p style=""text-align: center;"">₪36
                                                <br>70%</p>
                  <p id=""wtp"" style=""text-align:center; margin-top: 0px; margin-bottom: 0px; font-size: 40px"";>מוכנים לשלם: <span id=""c_p_y""></span></p>","60","evaluation","74","13","3A,5C,10B","70","36","60","","","","","","","","","","","","","","","",""
"","","","","","html-keyboard-response","155","341705","0.0-21.0-2.13","50052cbf-eedb-4b9a-bc19-fe6cde12d8bc","null","<p style=""text-align: center;"">+</p>","null","fixation","","","","","","","","","","","","","","","","","","","","","",""
"","","","","","html-slider-response","156","342707","0.0-21.0-0.14","50052cbf-eedb-4b9a-bc19-fe6cde12d8bc","1000","
                  <p style=""text-align: center;"">₪71
                                                <br>45%</p>
                  <p id=""wtp"" style=""text-align:center; margin-top: 0px; margin-bottom: 0px; font-size: 40px"";>&ensp;</p>","-","viewing","0","26","2B,16A","","","","","","","","","","","","","","","","","","",""
"","","","","","html-slider-response","157","343398","0.0-21.0-1.14","50052cbf-eedb-4b9a-bc19-fe6cde12d8bc","689","
                  <p style=""text-align: center;"">₪71
                                                <br>45%</p>
                  <p id=""wtp"" style=""text-align:center; margin-top: 0px; margin-bottom: 0px; font-size: 40px"";>מוכנים לשלם: <span id=""c_p_y""></span></p>","35","evaluation","37","26","2B,16A","45","71","35","","","","","","","","","","","","","","","",""
"","","","","","html-keyboard-response","158","344776","0.0-21.0-2.14","50052cbf-eedb-4b9a-bc19-fe6cde12d8bc","null","<p style=""text-align: center;"">+</p>","null","fixation","","","","","","","","","","","","","","","","","","","","","",""
"","","","","","html-slider-response","159","345778","0.0-21.0-0.15","50052cbf-eedb-4b9a-bc19-fe6cde12d8bc","1000","
                  <p style=""text-align: center;"">₪18
                                                <br>50%</p>
                  <p id=""wtp"" style=""text-align:center; margin-top: 0px; margin-bottom: 0px; font-size: 40px"";>&ensp;</p>","-","viewing","0","10","2C,16C,22B,28A","","","","","","","","","","","","","","","","","","",""
"","","","","","html-slider-response","160","348005","0.0-21.0-1.15","50052cbf-eedb-4b9a-bc19-fe6cde12d8bc","2226","
                  <p style=""text-align: center;"">₪18
                                                <br>50%</p>
                  <p id=""wtp"" style=""text-align:center; margin-top: 0px; margin-bottom: 0px; font-size: 40px"";>מוכנים לשלם: <span id=""c_p_y""></span></p>","11","evaluation","6","10","2C,16C,22B,28A","50","18","11","","","","","","","","","","","","","","","",""
"","","","","","html-keyboard-response","161","348641","0.0-21.0-2.15","50052cbf-eedb-4b9a-bc19-fe6cde12d8bc","null","<p style=""text-align: center;"">+</p>","null","fixation","","","","","","","","","","","","","","","","","","","","","",""
"","","","","","html-slider-response","162","349644","0.0-21.0-0.16","50052cbf-eedb-4b9a-bc19-fe6cde12d8bc","1000","
                  <p style=""text-align: center;"">₪36
                                                <br>60%</p>
                  <p id=""wtp"" style=""text-align:center; margin-top: 0px; margin-bottom: 0px; font-size: 40px"";>&ensp;</p>","-","viewing","0","12","1C,7C,15C","","","","","","","","","","","","","","","","","","",""
"","","","","","html-slider-response","163","351149","0.0-21.0-1.16","50052cbf-eedb-4b9a-bc19-fe6cde12d8bc","1504","
                  <p style=""text-align: center;"">₪36
                                                <br>60%</p>
                  <p id=""wtp"" style=""text-align:center; margin-top: 0px; margin-bottom: 0px; font-size: 40px"";>מוכנים לשלם: <span id=""c_p_y""></span></p>","47","evaluation","63","12","1C,7C,15C","60","36","46","","","","","","","","","","","","","","","",""
"","","","","","html-keyboard-response","164","352593","0.0-21.0-2.16","50052cbf-eedb-4b9a-bc19-fe6cde12d8bc","null","<p style=""text-align: center;"">+</p>","null","fixation","","","","","","","","","","","","","","","","","","","","","",""
"","","","","","html-slider-response","165","353601","0.0-21.0-0.17","50052cbf-eedb-4b9a-bc19-fe6cde12d8bc","1000","
                  <p style=""text-align: center;"">₪4
                                                <br>50%</p>
                  <p id=""wtp"" style=""text-align:center; margin-top: 0px; margin-bottom: 0px; font-size: 40px"";>&ensp;</p>","-","viewing","0","2","4C,17B","","","","","","","","","","","","","","","","","","",""
"","","","","","html-slider-response","166","355718","0.0-21.0-1.17","50052cbf-eedb-4b9a-bc19-fe6cde12d8bc","2115","
                  <p style=""text-align: center;"">₪4
                                                <br>50%</p>
                  <p id=""wtp"" style=""text-align:center; margin-top: 0px; margin-bottom: 0px; font-size: 40px"";>מוכנים לשלם: <span id=""c_p_y""></span></p>","1","evaluation","47","2","4C,17B","50","4","2","","","","","","","","","","","","","","","",""
"","","","","","html-keyboard-response","167","356917","0.0-21.0-2.17","50052cbf-eedb-4b9a-bc19-fe6cde12d8bc","null","<p style=""text-align: center;"">+</p>","null","fixation","","","","","","","","","","","","","","","","","","","","","",""
"","","","","","html-slider-response","168","357932","0.0-21.0-0.18","50052cbf-eedb-4b9a-bc19-fe6cde12d8bc","1000","
                  <p style=""text-align: center;"">₪58
                                                <br>30%</p>
                  <p id=""wtp"" style=""text-align:center; margin-top: 0px; margin-bottom: 0px; font-size: 40px"";>&ensp;</p>","-","viewing","0","19","13C,30A","","","","","","","","","","","","","","","","","","",""
"","","","","","html-slider-response","169","359213","0.0-21.0-1.18","50052cbf-eedb-4b9a-bc19-fe6cde12d8bc","1280","
                  <p style=""text-align: center;"">₪58
                                                <br>30%</p>
                  <p id=""wtp"" style=""text-align:center; margin-top: 0px; margin-bottom: 0px; font-size: 40px"";>מוכנים לשלם: <span id=""c_p_y""></span></p>","20","evaluation","59","19","13C,30A","30","58","20","","","","","","","","","","","","","","","",""
"","","","","","html-keyboard-response","170","360331","0.0-21.0-2.18","50052cbf-eedb-4b9a-bc19-fe6cde12d8bc","null","<p style=""text-align: center;"">+</p>","null","fixation","","","","","","","","","","","","","","","","","","","","","",""
"","","","","","html-slider-response","171","361334","0.0-21.0-0.19","50052cbf-eedb-4b9a-bc19-fe6cde12d8bc","1000","
                  <p style=""text-align: center;"">₪4
                                                <br>25%</p>
                  <p id=""wtp"" style=""text-align:center; margin-top: 0px; margin-bottom: 0px; font-size: 40px"";>&ensp;</p>","-","viewing","0","1","6C,29B,30C","","","","","","","","","","","","","","","","","","",""
"","","","","","html-slider-response","172","362718","0.0-21.0-1.19","50052cbf-eedb-4b9a-bc19-fe6cde12d8bc","1382","
                  <p style=""text-align: center;"">₪4
                                                <br>25%</p>
                  <p id=""wtp"" style=""text-align:center; margin-top: 0px; margin-bottom: 0px; font-size: 40px"";>מוכנים לשלם: <span id=""c_p_y""></span></p>","1","evaluation","43","1","6C,29B,30C","25","4","2","","","","","","","","","","","","","","","",""
"","","","","","html-keyboard-response","173","364089","0.0-21.0-2.19","50052cbf-eedb-4b9a-bc19-fe6cde12d8bc","null","<p style=""text-align: center;"">+</p>","null","fixation","","","","","","","","","","","","","","","","","","","","","",""
"","","","","","html-slider-response","174","365104","0.0-21.0-0.20","50052cbf-eedb-4b9a-bc19-fe6cde12d8bc","1000","
                  <p style=""text-align: center;"">₪39
                                                <br>65%</p>
                  <p id=""wtp"" style=""text-align:center; margin-top: 0px; margin-bottom: 0px; font-size: 40px"";>&ensp;</p>","-","viewing","0","16","1A,15A,26C","","","","","","","","","","","","","","","","","","",""
"","","","","","html-slider-response","175","367062","0.0-21.0-1.20","50052cbf-eedb-4b9a-bc19-fe6cde12d8bc","1956","
                  <p style=""text-align: center;"">₪39
                                                <br>65%</p>
                  <p id=""wtp"" style=""text-align:center; margin-top: 0px; margin-bottom: 0px; font-size: 40px"";>מוכנים לשלם: <span id=""c_p_y""></span></p>","60","evaluation","41","16","1A,15A,26C","65","39","60","","","","","","","","","","","","","","","",""
"","","","","","html-keyboard-response","176","367717","0.0-21.0-2.20","50052cbf-eedb-4b9a-bc19-fe6cde12d8bc","null","<p style=""text-align: center;"">+</p>","null","fixation","","","","","","","","","","","","","","","","","","","","","",""
"","","","","","html-slider-response","177","368727","0.0-21.0-0.21","50052cbf-eedb-4b9a-bc19-fe6cde12d8bc","1000","
                  <p style=""text-align: center;"">₪36
                                                <br>75%</p>
                  <p id=""wtp"" style=""text-align:center; margin-top: 0px; margin-bottom: 0px; font-size: 40px"";>&ensp;</p>","-","viewing","0","14","4B,5A,13B,16B","","","","","","","","","","","","","","","","","","",""
"","","","","","html-slider-response","178","370894","0.0-21.0-1.21","50052cbf-eedb-4b9a-bc19-fe6cde12d8bc","2165","
                  <p style=""text-align: center;"">₪36
                                                <br>75%</p>
                  <p id=""wtp"" style=""text-align:center; margin-top: 0px; margin-bottom: 0px; font-size: 40px"";>מוכנים לשלם: <span id=""c_p_y""></span></p>","70","evaluation","11","14","4B,5A,13B,16B","75","36","70","","","","","","","","","","","","","","","",""
"","","","","","html-keyboard-response","179","371881","0.0-21.0-2.21","50052cbf-eedb-4b9a-bc19-fe6cde12d8bc","null","<p style=""text-align: center;"">+</p>","null","fixation","","","","","","","","","","","","","","","","","","","","","",""
"","","","","","html-slider-response","180","372894","0.0-21.0-0.22","50052cbf-eedb-4b9a-bc19-fe6cde12d8bc","1000","
                  <p style=""text-align: center;"">₪79
                                                <br>40%</p>
                  <p id=""wtp"" style=""text-align:center; margin-top: 0px; margin-bottom: 0px; font-size: 40px"";>&ensp;</p>","-","viewing","0","30","9B","","","","","","","","","","","","","","","","","","",""
"","","","","","html-slider-response","181","376911","0.0-21.0-1.22","50052cbf-eedb-4b9a-bc19-fe6cde12d8bc","null","
                  <p style=""text-align: center;"">₪79
                                                <br>40%</p>
                  <p id=""wtp"" style=""text-align:center; margin-top: 0px; margin-bottom: 0px; font-size: 40px"";>מוכנים לשלם: <span id=""c_p_y""></span></p>","null","evaluation","24","30","9B","40","79","20","","","","","","","","","","","","","","","",""
"","","","","","html-keyboard-response","182","377638","0.0-21.0-2.22","50052cbf-eedb-4b9a-bc19-fe6cde12d8bc","null","<p style=""text-align: center;"">+</p>","null","fixation","","","","","","","","","","","","","","","","","","","","","",""
"","","","","","html-slider-response","183","378650","0.0-21.0-0.23","50052cbf-eedb-4b9a-bc19-fe6cde12d8bc","1000","
                  <p style=""text-align: center;"">₪61
                                                <br>45%</p>
                  <p id=""wtp"" style=""text-align:center; margin-top: 0px; margin-bottom: 0px; font-size: 40px"";>&ensp;</p>","-","viewing","0","22","10A,11A","","","","","","","","","","","","","","","","","","",""
"","","","","","html-slider-response","184","379333","0.0-21.0-1.23","50052cbf-eedb-4b9a-bc19-fe6cde12d8bc","682","
                  <p style=""text-align: center;"">₪61
                                                <br>45%</p>
                  <p id=""wtp"" style=""text-align:center; margin-top: 0px; margin-bottom: 0px; font-size: 40px"";>מוכנים לשלם: <span id=""c_p_y""></span></p>","20","evaluation","28","22","10A,11A","45","61","20","","","","","","","","","","","","","","","",""
"","","","","","html-keyboard-response","185","380786","0.0-21.0-2.23","50052cbf-eedb-4b9a-bc19-fe6cde12d8bc","null","<p style=""text-align: center;"">+</p>","null","fixation","","","","","","","","","","","","","","","","","","","","","",""
"","","","","","html-slider-response","186","381789","0.0-21.0-0.24","50052cbf-eedb-4b9a-bc19-fe6cde12d8bc","1000","
                  <p style=""text-align: center;"">₪58
                                                <br>45%</p>
                  <p id=""wtp"" style=""text-align:center; margin-top: 0px; margin-bottom: 0px; font-size: 40px"";>&ensp;</p>","-","viewing","0","21","11C,18C,25A","","","","","","","","","","","","","","","","","","",""
"","","","","","html-slider-response","187","382982","0.0-21.0-1.24","50052cbf-eedb-4b9a-bc19-fe6cde12d8bc","1192","
                  <p style=""text-align: center;"">₪58
                                                <br>45%</p>
                  <p id=""wtp"" style=""text-align:center; margin-top: 0px; margin-bottom: 0px; font-size: 40px"";>מוכנים לשלם: <span id=""c_p_y""></span></p>","41","evaluation","61","21","11C,18C,25A","45","58","41","","","","","","","","","","","","","","","",""
"","","","","","html-keyboard-response","188","383815","0.0-21.0-2.24","50052cbf-eedb-4b9a-bc19-fe6cde12d8bc","null","<p style=""text-align: center;"">+</p>","null","fixation","","","","","","","","","","","","","","","","","","","","","",""
"","","","","","html-slider-response","189","384819","0.0-21.0-0.25","50052cbf-eedb-4b9a-bc19-fe6cde12d8bc","1000","
                  <p style=""text-align: center;"">₪43
                                                <br>75%</p>
                  <p id=""wtp"" style=""text-align:center; margin-top: 0px; margin-bottom: 0px; font-size: 40px"";>&ensp;</p>","-","viewing","0","18","11B,19B,24A,26A","","","","","","","","","","","","","","","","","","",""
"","","","","","html-slider-response","190","387774","0.0-21.0-1.25","50052cbf-eedb-4b9a-bc19-fe6cde12d8bc","2954","
                  <p style=""text-align: center;"">₪43
                                                <br>75%</p>
                  <p id=""wtp"" style=""text-align:center; margin-top: 0px; margin-bottom: 0px; font-size: 40px"";>מוכנים לשלם: <span id=""c_p_y""></span></p>","67","evaluation","10","18","11B,19B,24A,26A","75","43","67","","","","","","","","","","","","","","","",""
"","","","","","html-keyboard-response","191","388561","0.0-21.0-2.25","50052cbf-eedb-4b9a-bc19-fe6cde12d8bc","null","<p style=""text-align: center;"">+</p>","null","fixation","","","","","","","","","","","","","","","","","","","","","",""
"","","","","","html-slider-response","192","389572","0.0-21.0-0.26","50052cbf-eedb-4b9a-bc19-fe6cde12d8bc","1000","
                  <p style=""text-align: center;"">₪58
                                                <br>40%</p>
                  <p id=""wtp"" style=""text-align:center; margin-top: 0px; margin-bottom: 0px; font-size: 40px"";>&ensp;</p>","-","viewing","0","20","10C,13A,19C,21B","","","","","","","","","","","","","","","","","","",""
"","","","","","html-slider-response","193","391406","0.0-21.0-1.26","50052cbf-eedb-4b9a-bc19-fe6cde12d8bc","1833","
                  <p style=""text-align: center;"">₪58
                                                <br>40%</p>
                  <p id=""wtp"" style=""text-align:center; margin-top: 0px; margin-bottom: 0px; font-size: 40px"";>מוכנים לשלם: <span id=""c_p_y""></span></p>","30","evaluation","10","20","10C,13A,19C,21B","40","58","30","","","","","","","","","","","","","","","",""
"","","","","","html-keyboard-response","194","392118","0.0-21.0-2.26","50052cbf-eedb-4b9a-bc19-fe6cde12d8bc","null","<p style=""text-align: center;"">+</p>","null","fixation","","","","","","","","","","","","","","","","","","","","","",""
"","","","","","html-slider-response","195","393122","0.0-21.0-0.27","50052cbf-eedb-4b9a-bc19-fe6cde12d8bc","1000","
                  <p style=""text-align: center;"">₪36
                                                <br>30%</p>
                  <p id=""wtp"" style=""text-align:center; margin-top: 0px; margin-bottom: 0px; font-size: 40px"";>&ensp;</p>","-","viewing","0","11","3C,20A,22A","","","","","","","","","","","","","","","","","","",""
"","","","","","html-slider-response","196","394246","0.0-21.0-1.27","50052cbf-eedb-4b9a-bc19-fe6cde12d8bc","1123","
                  <p style=""text-align: center;"">₪36
                                                <br>30%</p>
                  <p id=""wtp"" style=""text-align:center; margin-top: 0px; margin-bottom: 0px; font-size: 40px"";>מוכנים לשלם: <span id=""c_p_y""></span></p>","15","evaluation","38","11","3C,20A,22A","30","36","15","","","","","","","","","","","","","","","",""
"","","","","","html-keyboard-response","197","395146","0.0-21.0-2.27","50052cbf-eedb-4b9a-bc19-fe6cde12d8bc","null","<p style=""text-align: center;"">+</p>","null","fixation","","","","","","","","","","","","","","","","","","","","","",""
"","","","","","html-slider-response","198","396148","0.0-21.0-0.28","50052cbf-eedb-4b9a-bc19-fe6cde12d8bc","1000","
                  <p style=""text-align: center;"">₪71
                                                <br>75%</p>
                  <p id=""wtp"" style=""text-align:center; margin-top: 0px; margin-bottom: 0px; font-size: 40px"";>&ensp;</p>","-","viewing","0","28","8B","","","","","","","","","","","","","","","","","","",""
"","","","","","html-slider-response","199","398542","0.0-21.0-1.28","50052cbf-eedb-4b9a-bc19-fe6cde12d8bc","2392","
                  <p style=""text-align: center;"">₪71
                                                <br>75%</p>
                  <p id=""wtp"" style=""text-align:center; margin-top: 0px; margin-bottom: 0px; font-size: 40px"";>מוכנים לשלם: <span id=""c_p_y""></span></p>","68","evaluation","69","28","8B","75","71","67","","","","","","","","","","","","","","","",""
"","","","","","html-keyboard-response","200","400006","0.0-21.0-2.28","50052cbf-eedb-4b9a-bc19-fe6cde12d8bc","null","<p style=""text-align: center;"">+</p>","null","fixation","","","","","","","","","","","","","","","","","","","","","",""
"","","","","","html-slider-response","201","401018","0.0-21.0-0.29","50052cbf-eedb-4b9a-bc19-fe6cde12d8bc","1000","
                  <p style=""text-align: center;"">₪64
                                                <br>25%</p>
                  <p id=""wtp"" style=""text-align:center; margin-top: 0px; margin-bottom: 0px; font-size: 40px"";>&ensp;</p>","-","viewing","0","24","6A,21A","","","","","","","","","","","","","","","","","","",""
"","","","","","html-slider-response","202","401662","0.0-21.0-1.29","50052cbf-eedb-4b9a-bc19-fe6cde12d8bc","642","
                  <p style=""text-align: center;"">₪64
                                                <br>25%</p>
                  <p id=""wtp"" style=""text-align:center; margin-top: 0px; margin-bottom: 0px; font-size: 40px"";>מוכנים לשלם: <span id=""c_p_y""></span></p>","16","evaluation","45","24","6A,21A","25","64","17","","","","","","","","","","","","","","","",""
"","","","","","html-keyboard-response","203","402254","0.0-21.0-2.29","50052cbf-eedb-4b9a-bc19-fe6cde12d8bc","null","<p style=""text-align: center;"">+</p>","null","fixation","","","","","","","","","","","","","","","","","","","","","",""
"","","","","","html-slider-response","204","403266","0.0-21.0-0.30","50052cbf-eedb-4b9a-bc19-fe6cde12d8bc","1000","
                  <p style=""text-align: center;"">₪4
                                                <br>75%</p>
                  <p id=""wtp"" style=""text-align:center; margin-top: 0px; margin-bottom: 0px; font-size: 40px"";>&ensp;</p>","-","viewing","0","3","12B,20B,23B,27C,29C","","","","","","","","","","","","","","","","","","",""
"","","","","","html-slider-response","205","406286","0.0-21.0-1.30","50052cbf-eedb-4b9a-bc19-fe6cde12d8bc","3018","
                  <p style=""text-align: center;"">₪4
                                                <br>75%</p>
                  <p id=""wtp"" style=""text-align:center; margin-top: 0px; margin-bottom: 0px; font-size: 40px"";>מוכנים לשלם: <span id=""c_p_y""></span></p>","2","evaluation","23","3","12B,20B,23B,27C,29C","75","4","3","","","","","","","","","","","","","","","",""
"","","","","","html-keyboard-response","206","407372","0.0-21.0-2.30","50052cbf-eedb-4b9a-bc19-fe6cde12d8bc","null","<p style=""text-align: center;"">+</p>","null","fixation","","","","","","","","","","","","","","","","","","","","","",""
"","","","","","html-keyboard-response","207","408387","0.0-22.0","50052cbf-eedb-4b9a-bc19-fe6cde12d8bc","null","<p style=""text-align: center;"">+</p>","null","fixation","","","","","","","","","","","","","","","","","","","","","",""
"","","","","","html-keyboard-response","208","415669","0.0-23.0","50052cbf-eedb-4b9a-bc19-fe6cde12d8bc","null","<p>הפסקה.
          <br>לחצו כדי להמשיך.</p>","1","scan_wait","","","","","","","","","","","","","","","","","","","","","",""
"","","","","","html-keyboard-response","209","416682","0.0-24.0","50052cbf-eedb-4b9a-bc19-fe6cde12d8bc","null","<p style=""text-align: center;"">+</p>","null","fixation","","","","","","","","","","","","","","","","","","","","","",""
"","","","","","html-slider-response","210","417687","0.0-25.0-0.0","50052cbf-eedb-4b9a-bc19-fe6cde12d8bc","1000","
                  <p style=""text-align: center;"">₪71
                                                <br>55%</p>
                  <p id=""wtp"" style=""text-align:center; margin-top: 0px; margin-bottom: 0px; font-size: 40px"";>&ensp;</p>","-","viewing","0","27","5B,18A","","","","","","","","","","","","","","","","","","",""
"","","","","","html-slider-response","211","419254","0.0-25.0-1.0","50052cbf-eedb-4b9a-bc19-fe6cde12d8bc","1566","
                  <p style=""text-align: center;"">₪71
                                                <br>55%</p>
                  <p id=""wtp"" style=""text-align:center; margin-top: 0px; margin-bottom: 0px; font-size: 40px"";>מוכנים לשלם: <span id=""c_p_y""></span></p>","43","evaluation","34","27","5B,18A","55","71","43","","","","","","","","","","","","","","","",""
"","","","","","html-keyboard-response","212","420282","0.0-25.0-2.0","50052cbf-eedb-4b9a-bc19-fe6cde12d8bc","null","<p style=""text-align: center;"">+</p>","null","fixation","","","","","","","","","","","","","","","","","","","","","",""
"","","","","","html-slider-response","213","421289","0.0-25.0-0.1","50052cbf-eedb-4b9a-bc19-fe6cde12d8bc","1000","
                  <p style=""text-align: center;"">₪11
                                                <br>75%</p>
                  <p id=""wtp"" style=""text-align:center; margin-top: 0px; margin-bottom: 0px; font-size: 40px"";>&ensp;</p>","-","viewing","0","7","6B,18B,22C,24C,29A","","","","","","","","","","","","","","","","","","",""
"","","","","","html-slider-response","214","423006","0.0-25.0-1.1","50052cbf-eedb-4b9a-bc19-fe6cde12d8bc","1716","
                  <p style=""text-align: center;"">₪11
                                                <br>75%</p>
                  <p id=""wtp"" style=""text-align:center; margin-top: 0px; margin-bottom: 0px; font-size: 40px"";>מוכנים לשלם: <span id=""c_p_y""></span></p>","6","evaluation","45","7","6B,18B,22C,24C,29A","75","11","7","","","","","","","","","","","","","","","",""
"","","","","","html-keyboard-response","215","423730","0.0-25.0-2.1","50052cbf-eedb-4b9a-bc19-fe6cde12d8bc","null","<p style=""text-align: center;"">+</p>","null","fixation","","","","","","","","","","","","","","","","","","","","","",""
"","","","","","html-slider-response","216","424736","0.0-25.0-0.2","50052cbf-eedb-4b9a-bc19-fe6cde12d8bc","1000","
                  <p style=""text-align: center;"">₪64
                                                <br>50%</p>
                  <p id=""wtp"" style=""text-align:center; margin-top: 0px; margin-bottom: 0px; font-size: 40px"";>&ensp;</p>","-","viewing","0","25","1B,3B,4A","","","","","","","","","","","","","","","","","","",""
"","","","","","html-slider-response","217","426198","0.0-25.0-1.2","50052cbf-eedb-4b9a-bc19-fe6cde12d8bc","1460","
                  <p style=""text-align: center;"">₪64
                                                <br>50%</p>
                  <p id=""wtp"" style=""text-align:center; margin-top: 0px; margin-bottom: 0px; font-size: 40px"";>מוכנים לשלם: <span id=""c_p_y""></span></p>","50","evaluation","48","25","1B,3B,4A","50","64","50","","","","","","","","","","","","","","","",""
"","","","","","html-keyboard-response","218","426888","0.0-25.0-2.2","50052cbf-eedb-4b9a-bc19-fe6cde12d8bc","null","<p style=""text-align: center;"">+</p>","null","fixation","","","","","","","","","","","","","","","","","","","","","",""
"","","","","","html-slider-response","219","427895","0.0-25.0-0.3","50052cbf-eedb-4b9a-bc19-fe6cde12d8bc","1000","
                  <p style=""text-align: center;"">₪36
                                                <br>30%</p>
                  <p id=""wtp"" style=""text-align:center; margin-top: 0px; margin-bottom: 0px; font-size: 40px"";>&ensp;</p>","-","viewing","0","11","3C,20A,22A","","","","","","","","","","","","","","","","","","",""
"","","","","","html-slider-response","220","430381","0.0-25.0-1.3","50052cbf-eedb-4b9a-bc19-fe6cde12d8bc","2485","
                  <p style=""text-align: center;"">₪36
                                                <br>30%</p>
                  <p id=""wtp"" style=""text-align:center; margin-top: 0px; margin-bottom: 0px; font-size: 40px"";>מוכנים לשלם: <span id=""c_p_y""></span></p>","20","evaluation","8","11","3C,20A,22A","30","36","20","","","","","","","","","","","","","","","",""
"","","","","","html-keyboard-response","221","431255","0.0-25.0-2.3","50052cbf-eedb-4b9a-bc19-fe6cde12d8bc","null","<p style=""text-align: center;"">+</p>","null","fixation","","","","","","","","","","","","","","","","","","","","","",""
"","","","","","html-slider-response","222","432266","0.0-25.0-0.4","50052cbf-eedb-4b9a-bc19-fe6cde12d8bc","1000","
                  <p style=""text-align: center;"">₪4
                                                <br>50%</p>
                  <p id=""wtp"" style=""text-align:center; margin-top: 0px; margin-bottom: 0px; font-size: 40px"";>&ensp;</p>","-","viewing","0","2","4C,17B","","","","","","","","","","","","","","","","","","",""
"","","","","","html-slider-response","223","433790","0.0-25.0-1.4","50052cbf-eedb-4b9a-bc19-fe6cde12d8bc","1523","
                  <p style=""text-align: center;"">₪4
                                                <br>50%</p>
                  <p id=""wtp"" style=""text-align:center; margin-top: 0px; margin-bottom: 0px; font-size: 40px"";>מוכנים לשלם: <span id=""c_p_y""></span></p>","1","evaluation","41","2","4C,17B","50","4","2","","","","","","","","","","","","","","","",""
"","","","","","html-keyboard-response","224","434785","0.0-25.0-2.4","50052cbf-eedb-4b9a-bc19-fe6cde12d8bc","null","<p style=""text-align: center;"">+</p>","null","fixation","","","","","","","","","","","","","","","","","","","","","",""
"","","","","","html-slider-response","225","435789","0.0-25.0-0.5","50052cbf-eedb-4b9a-bc19-fe6cde12d8bc","1000","
                  <p style=""text-align: center;"">₪18
                                                <br>25%</p>
                  <p id=""wtp"" style=""text-align:center; margin-top: 0px; margin-bottom: 0px; font-size: 40px"";>&ensp;</p>","-","viewing","0","9","14A,23A","","","","","","","","","","","","","","","","","","",""
"","","","","","html-slider-response","226","436534","0.0-25.0-1.5","50052cbf-eedb-4b9a-bc19-fe6cde12d8bc","743","
                  <p style=""text-align: center;"">₪18
                                                <br>25%</p>
                  <p id=""wtp"" style=""text-align:center; margin-top: 0px; margin-bottom: 0px; font-size: 40px"";>מוכנים לשלם: <span id=""c_p_y""></span></p>","5","evaluation","53","9","14A,23A","25","18","6","","","","","","","","","","","","","","","",""
"","","","","","html-keyboard-response","227","437620","0.0-25.0-2.5","50052cbf-eedb-4b9a-bc19-fe6cde12d8bc","null","<p style=""text-align: center;"">+</p>","null","fixation","","","","","","","","","","","","","","","","","","","","","",""
"","","","","","html-slider-response","228","438627","0.0-25.0-0.6","50052cbf-eedb-4b9a-bc19-fe6cde12d8bc","1000","
                  <p style=""text-align: center;"">₪36
                                                <br>70%</p>
                  <p id=""wtp"" style=""text-align:center; margin-top: 0px; margin-bottom: 0px; font-size: 40px"";>&ensp;</p>","-","viewing","0","13","3A,5C,10B","","","","","","","","","","","","","","","","","","",""
"","","","","","html-slider-response","229","440718","0.0-25.0-1.6","50052cbf-eedb-4b9a-bc19-fe6cde12d8bc","2090","
                  <p style=""text-align: center;"">₪36
                                                <br>70%</p>
                  <p id=""wtp"" style=""text-align:center; margin-top: 0px; margin-bottom: 0px; font-size: 40px"";>מוכנים לשלם: <span id=""c_p_y""></span></p>","61","evaluation","30","13","3A,5C,10B","70","36","60","","","","","","","","","","","","","","","",""
"","","","","","html-keyboard-response","230","441861","0.0-25.0-2.6","50052cbf-eedb-4b9a-bc19-fe6cde12d8bc","null","<p style=""text-align: center;"">+</p>","null","fixation","","","","","","","","","","","","","","","","","","","","","",""
"","","","","","html-slider-response","231","442878","0.0-25.0-0.7","50052cbf-eedb-4b9a-bc19-fe6cde12d8bc","1000","
                  <p style=""text-align: center;"">₪64
                                                <br>25%</p>
                  <p id=""wtp"" style=""text-align:center; margin-top: 0px; margin-bottom: 0px; font-size: 40px"";>&ensp;</p>","-","viewing","0","24","6A,21A","","","","","","","","","","","","","","","","","","",""
"","","","","","html-slider-response","232","444406","0.0-25.0-1.7","50052cbf-eedb-4b9a-bc19-fe6cde12d8bc","1526","
                  <p style=""text-align: center;"">₪64
                                                <br>25%</p>
                  <p id=""wtp"" style=""text-align:center; margin-top: 0px; margin-bottom: 0px; font-size: 40px"";>מוכנים לשלם: <span id=""c_p_y""></span></p>","11","evaluation","33","24","6A,21A","25","64","12","","","","","","","","","","","","","","","",""
"","","","","","html-keyboard-response","233","445754","0.0-25.0-2.7","50052cbf-eedb-4b9a-bc19-fe6cde12d8bc","null","<p style=""text-align: center;"">+</p>","null","fixation","","","","","","","","","","","","","","","","","","","","","",""
"","","","","","html-slider-response","234","446761","0.0-25.0-0.8","50052cbf-eedb-4b9a-bc19-fe6cde12d8bc","1000","
                  <p style=""text-align: center;"">₪58
                                                <br>45%</p>
                  <p id=""wtp"" style=""text-align:center; margin-top: 0px; margin-bottom: 0px; font-size: 40px"";>&ensp;</p>","-","viewing","0","21","11C,18C,25A","","","","","","","","","","","","","","","","","","",""
"","","","","","html-slider-response","235","449462","0.0-25.0-1.8","50052cbf-eedb-4b9a-bc19-fe6cde12d8bc","2699","
                  <p style=""text-align: center;"">₪58
                                                <br>45%</p>
                  <p id=""wtp"" style=""text-align:center; margin-top: 0px; margin-bottom: 0px; font-size: 40px"";>מוכנים לשלם: <span id=""c_p_y""></span></p>","40","evaluation","27","21","11C,18C,25A","45","58","40","","","","","","","","","","","","","","","",""
"","","","","","html-keyboard-response","236","450830","0.0-25.0-2.8","50052cbf-eedb-4b9a-bc19-fe6cde12d8bc","null","<p style=""text-align: center;"">+</p>","null","fixation","","","","","","","","","","","","","","","","","","","","","",""
"","","","","","html-slider-response","237","451833","0.0-25.0-0.9","50052cbf-eedb-4b9a-bc19-fe6cde12d8bc","1000","
                  <p style=""text-align: center;"">₪39
                                                <br>60%</p>
                  <p id=""wtp"" style=""text-align:center; margin-top: 0px; margin-bottom: 0px; font-size: 40px"";>&ensp;</p>","-","viewing","0","15","9C,25B","","","","","","","","","","","","","","","","","","",""
"","","","","","html-slider-response","238","454782","0.0-25.0-1.9","50052cbf-eedb-4b9a-bc19-fe6cde12d8bc","2948","
                  <p style=""text-align: center;"">₪39
                                                <br>60%</p>
                  <p id=""wtp"" style=""text-align:center; margin-top: 0px; margin-bottom: 0px; font-size: 40px"";>מוכנים לשלם: <span id=""c_p_y""></span></p>","38","evaluation","19","15","9C,25B","60","39","38","","","","","","","","","","","","","","","",""
"","","","","","html-keyboard-response","239","455915","0.0-25.0-2.9","50052cbf-eedb-4b9a-bc19-fe6cde12d8bc","null","<p style=""text-align: center;"">+</p>","null","fixation","","","","","","","","","","","","","","","","","","","","","",""
"","","","","","html-slider-response","240","456921","0.0-25.0-0.10","50052cbf-eedb-4b9a-bc19-fe6cde12d8bc","1000","
                  <p style=""text-align: center;"">₪61
                                                <br>55%</p>
                  <p id=""wtp"" style=""text-align:center; margin-top: 0px; margin-bottom: 0px; font-size: 40px"";>&ensp;</p>","-","viewing","0","23","7B,26B","","","","","","","","","","","","","","","","","","",""
"","","","","","html-slider-response","241","460310","0.0-25.0-1.10","50052cbf-eedb-4b9a-bc19-fe6cde12d8bc","3388","
                  <p style=""text-align: center;"">₪61
                                                <br>55%</p>
                  <p id=""wtp"" style=""text-align:center; margin-top: 0px; margin-bottom: 0px; font-size: 40px"";>מוכנים לשלם: <span id=""c_p_y""></span></p>","47","evaluation","4","23","7B,26B","55","61","47","","","","","","","","","","","","","","","",""
"","","","","","html-keyboard-response","242","461654","0.0-25.0-2.10","50052cbf-eedb-4b9a-bc19-fe6cde12d8bc","null","<p style=""text-align: center;"">+</p>","null","fixation","","","","","","","","","","","","","","","","","","","","","",""
"","","","","","html-slider-response","243","462656","0.0-25.0-0.11","50052cbf-eedb-4b9a-bc19-fe6cde12d8bc","1000","
                  <p style=""text-align: center;"">₪79
                                                <br>65%</p>
                  <p id=""wtp"" style=""text-align:center; margin-top: 0px; margin-bottom: 0px; font-size: 40px"";>&ensp;</p>","-","viewing","0","31","8A","","","","","","","","","","","","","","","","","","",""
"","","","","","html-slider-response","244","466659","0.0-25.0-1.11","50052cbf-eedb-4b9a-bc19-fe6cde12d8bc","null","
                  <p style=""text-align: center;"">₪79
                                                <br>65%</p>
                  <p id=""wtp"" style=""text-align:center; margin-top: 0px; margin-bottom: 0px; font-size: 40px"";>מוכנים לשלם: <span id=""c_p_y""></span></p>","null","evaluation","52","31","8A","65","79","58","","","","","","","","","","","","","","","",""
"","","","","","html-keyboard-response","245","467354","0.0-25.0-2.11","50052cbf-eedb-4b9a-bc19-fe6cde12d8bc","null","<p style=""text-align: center;"">+</p>","null","fixation","","","","","","","","","","","","","","","","","","","","","",""
"","","","","","html-slider-response","246","468366","0.0-25.0-0.12","50052cbf-eedb-4b9a-bc19-fe6cde12d8bc","1000","
                  <p style=""text-align: center;"">₪43
                                                <br>60%</p>
                  <p id=""wtp"" style=""text-align:center; margin-top: 0px; margin-bottom: 0px; font-size: 40px"";>&ensp;</p>","-","viewing","0","17","2A,7A,9A,15B","","","","","","","","","","","","","","","","","","",""
"","","","","","html-slider-response","247","470134","0.0-25.0-1.12","50052cbf-eedb-4b9a-bc19-fe6cde12d8bc","1766","
                  <p style=""text-align: center;"">₪43
                                                <br>60%</p>
                  <p id=""wtp"" style=""text-align:center; margin-top: 0px; margin-bottom: 0px; font-size: 40px"";>מוכנים לשלם: <span id=""c_p_y""></span></p>","54","evaluation","77","17","2A,7A,9A,15B","60","43","53","","","","","","","","","","","","","","","",""
"","","","","","html-keyboard-response","248","471117","0.0-25.0-2.12","50052cbf-eedb-4b9a-bc19-fe6cde12d8bc","null","<p style=""text-align: center;"">+</p>","null","fixation","","","","","","","","","","","","","","","","","","","","","",""
"","","","","","html-slider-response","249","472119","0.0-25.0-0.13","50052cbf-eedb-4b9a-bc19-fe6cde12d8bc","1000","
                  <p style=""text-align: center;"">₪16
                                                <br>20%</p>
                  <p id=""wtp"" style=""text-align:center; margin-top: 0px; margin-bottom: 0px; font-size: 40px"";>&ensp;</p>","-","viewing","0","8","14C,17A,20C,27A","","","","","","","","","","","","","","","","","","",""
"","","","","","html-slider-response","250","474038","0.0-25.0-1.13","50052cbf-eedb-4b9a-bc19-fe6cde12d8bc","1917","
                  <p style=""text-align: center;"">₪16
                                                <br>20%</p>
                  <p id=""wtp"" style=""text-align:center; margin-top: 0px; margin-bottom: 0px; font-size: 40px"";>מוכנים לשלם: <span id=""c_p_y""></span></p>","4","evaluation","38","8","14C,17A,20C,27A","20","16","5","","","","","","","","","","","","","","","",""
