"success","timeout","failed_images","failed_audio","failed_video","trial_type","trial_index","time_elapsed","internal_node_id","subject_id","rt","stimulus","response","part","slider_start","ID","set_ID","prob","amount","last_location","actual_choice","actual_EV","binary_id","trinary_id","catch","A_key","D_key","choice_prob","choice_amount","chosen_part","won_prize","potential_prize_amount","potential_prize_prob","total_prize","accuracy"
"true","false","[]","[]","[]","preload","0","102","0.0-0.0","b4b0c5b4-7aaf-4644-9b23-5d17397ca03c","","","","","","","","","","","","","","","","","","","","","","","","",""
"","","","","","html-keyboard-response","1","1081564","0.0-1.0","b4b0c5b4-7aaf-4644-9b23-5d17397ca03c","null","
          <h1>שלום וברוכים הבאים!</h1>
          <p>לפניכם ניסוי בקבלת החלטות עם שני חלקים.
          <br><br>לחצו על העכבר כדי להמשיך.</p>","0","example","","","","","","","","","","","","","","","","","","","","",""
"","","","","","html-keyboard-response","2","1092107","0.0-2.0","b4b0c5b4-7aaf-4644-9b23-5d17397ca03c","null","
        <h1>חלק 1</h1>
        <p>בקרוב יוצגו בפניכם הגרלות.
        <br>עליכם לבחור את המחיר המירבי שתהיו מוכנים לשלם כדי להשתתף בהגרלה שתוצג.
        <br>יש לכם תקציב של ₪80 לכל הגרלה. 
        <br>נסו להעריך כל הגרלה בנפרד ולחשוב כמה היא שווה עבורכם, ₪80 זמינים לכל הגרלה בנפרד.
        <br><br>לחצו על העכבר כדי להמשיך.</p>","1","instructions","","","","","","","","","","","","","","","","","","","","",""
"","","","","","html-keyboard-response","3","1104059","0.0-3.0","b4b0c5b4-7aaf-4644-9b23-5d17397ca03c","null","
        <p>בסוף הניסוי, המחשב יבחר את אחת ההגרלות ויקבע מחיר לכרטיס עבורה. 
        <br>במידה והמחיר שבחרתם נמוך מהמחיר שנבחר על ידי המחשב, לא תשתתפו בהגרלה ותשארו עם מלוא התקציב.
        <br>במידה והמחיר שבחרתם גבוה מהמחיר שנבחר על ידי המחשב, תשלמו את המחיר שנקבע ותשתתפו בהגרלה.
        <br><br>לחצו על העכבר כדי להמשיך.</p>","1","instructions","","","","","","","","","","","","","","","","","","","","",""
"","","","","","html-slider-response","4","1148731","0.0-4.0","b4b0c5b4-7aaf-4644-9b23-5d17397ca03c","44575","
        <p style=""font-size: 42px;"">נתחיל עם דוגמא: 
        <br>ההגרלה מטה מציעה 65% סיכוי לזכות ב-₪40 
        <br>&emsp;&emsp;&emsp;&emsp;&emsp;&emsp;&emsp;&emsp;&ensp;35% סיכוי לזכות ב-₪0.
        <br><br>מה המחיר המירבי שתהיו מוכנים לשלם על כרטיס להגרלה זו בין 0 ל-₪80?
        <br>הזיזו את העכבר על פני המלבן ולחצו כדי לבצע בחירה.</p>
        
        <p style=""text-align: center;"">₪40<br>65%</p>

        <p id=""wtp"" style=""text-align:center; margin-top: 0px; margin-bottom: 0px; font-size: 40px"";>מוכנים לשלם: <span id=""c_p_y""></span></p>","20","example","20","","","","","","","","","","","","","","","","","","","",""
"","","","","","html-keyboard-response","5","1158803","0.0-5.0","b4b0c5b4-7aaf-4644-9b23-5d17397ca03c","null","<p>יפה מאוד!
                <br> בחרתם שתהיו מוכנים לשלם ₪20 כדי להשתתף בהגרלה:
                <br><p style=""text-align: center;"">₪40<br>65%</p>
                <p>נשמע נכון?
                <br>נניח שהגרלה זו נבחרה בסוף הניסוי.
                <br>כעת המחשב יקבע מחיר עבורה באקראי.
                <br>לחצו על העכבר להמשך.</p>","1","example","","","","","","","","","","","","","","","","","","","","",""
"","","","","","html-keyboard-response","6","1163763","0.0-6.0","b4b0c5b4-7aaf-4644-9b23-5d17397ca03c","null","<p>המחשב קבע מחיר: ₪50
                <br>ואתם בחרתם לשלם לכל היותר: ₪20
                <br><br>מכיוון שהמחיר שבחרתם נמוך מהמחיר שנקבע, לא תתשתתפו בהגרלה.
                <br>במקרה כזה, בסוף הניסוי תקבלו את כל התקציב ההתחלתי של ₪80.
                <br><br>לחצו על העכבר להמשך.</p>","1","example","","","","","","","","","","","","","","","","","","","","",""
"","","","","","html-slider-response","7","1180052","0.0-7.0","b4b0c5b4-7aaf-4644-9b23-5d17397ca03c","16039","<p style=""font-size: 42px;"">הנה עוד דוגמא:
                <br>ההגרלה מטה מציעה 35% סיכוי לזכות ב-₪18 
                <br>&emsp;&emsp;&emsp;&emsp;&emsp;&emsp;&emsp;&emsp;&ensp;65% סיכוי לזכות ב-₪0.</p>
        
                <p style=""text-align: center;"">₪18<br>35%</p>
                <p id=""wtp"" style=""text-align:center; margin-top: 0px; margin-bottom: 0px; font-size: 40px"";>מוכנים לשלם: <span id=""c_p_y""></span></p>","8","example","6","","","","","","","","","","","","","","","","","","","",""
"","","","","","html-keyboard-response","8","1183940","0.0-8.0","b4b0c5b4-7aaf-4644-9b23-5d17397ca03c","null","<p>הייתם מוכנים לשלם  ₪8 כדי להשתתף בהגרלה:
                <p style=""text-align: center;"">₪18<br>35%</p>
                <p>כעת נניח שהמחשב בחר את ההגרלה הזו בסוף הניסוי, וקבע עבורה מחיר.
                <br><br>לחצו על העכבר כדי להמשיך.</p>","1","instructions","","","","","","","","","","","","","","","","","","","","",""
"","","","","","html-keyboard-response","9","1192516","0.0-9.0","b4b0c5b4-7aaf-4644-9b23-5d17397ca03c","null","<p>המחשב קבע מחיר להגרלה: ₪0<br>ואתם בחרתם לשלם לכל היותר: ₪8
                <br><br>כעת המחיר שנקבע נמוך מזה שבחרתם, אז תשלמו את המחיר שקבע המחשב (₪0) ותשתתפו בהגרלה.
                <br>במקרה כזה, תסיימו את הניסוי עם תקציב של ₪80 ועם סיכוי לזכות ב-₪18 נוספים מההגרלה.
                <br>כלומר, תוכלו לקבל ₪80 אם לא תזכו בהגרלה, או ₪98 אם תזכו בהגרלה.
                <br><br>לחצו על העכבר להמשך.</p>","1","example","","","","","","","","","","","","","","","","","","","","",""
"","","","","","html-keyboard-response","10","1199124","0.0-10.0","b4b0c5b4-7aaf-4644-9b23-5d17397ca03c","null","<p>במהלך הניסוי, קודם תראו את ההגרלה ורק לאחר מכן תוכלו לבחור.
                <p>כמו כן, יהיו לכם מספר שניות מוגבל להגיב.
                <p>בואו ננסה זאת עם ההגרלה הקודמת.
                <br>לחצו על העכבר כדי להמשיך.</p>","1","instructions","","","","","","","","","","","","","","","","","","","","",""
"","","","","","html-slider-response","11","1200405","0.0-11.0","b4b0c5b4-7aaf-4644-9b23-5d17397ca03c","1000","
                    <p style=""text-align: center;"">₪18<br>35%</p>
                    <p id=""wtp"" style=""text-align:center; margin-top: 0px; margin-bottom: 0px; font-size: 40px"";>&ensp;</p>","49","instructions","0","","","","","","","","","","","","","","","","","","","",""
"","","","","","html-slider-response","12","1203964","0.0-12.0","b4b0c5b4-7aaf-4644-9b23-5d17397ca03c","3292","
                    <p style=""text-align: center;"">₪18<br>35%</p>
                    <p id=""wtp"" style=""text-align:center; margin-top: 0px; margin-bottom: 0px; font-size: 40px"";>מוכנים לשלם: <span id=""c_p_y""></span></p>","8","instructions","3","","","","","","","","","","","","","","","","","","","",""
"","","","","","html-keyboard-response","13","1206812","0.0-13.0","b4b0c5b4-7aaf-4644-9b23-5d17397ca03c","null","<p>יפה. הפעם בחרתם לשלם לכל היותר ₪8.
                <br><br>לחצו על העכבר כדי להמשיך.</p>","1","instructions","","","","","","","","","","","","","","","","","","","","",""
"","","","","","html-keyboard-response","14","1212876","0.0-15.0","b4b0c5b4-7aaf-4644-9b23-5d17397ca03c","null","<p>כעת נתחיל את הניסוי.
                <br><br>אתם תראו הגרלות ותתבקשו לבחור כמה תהיו מוכנים לשלם כדי להשתתף בהן.
                <br>יש לכם תקציב של ₪80 עבור כל הגרלה.
                <br>בסוף הניסוי הגרלה אחת תבחר באקראי ותשוחק.
                <br><br>לחצו על העכבר כדי להתחיל את הניסוי.</p>","1","instructions","","","","","","","","","","","","","","","","","","","","",""
"","","","","","html-keyboard-response","15","1214136","0.0-16.0","b4b0c5b4-7aaf-4644-9b23-5d17397ca03c","null","<p style=""text-align: center;"">+</p>","null","fixation","","","","","","","","","","","","","","","","","","","","",""
"","","","","","html-slider-response","16","1215138","0.0-17.0-0.0","b4b0c5b4-7aaf-4644-9b23-5d17397ca03c","1000","
                  <p style=""text-align: center;"">₪79
                                                <br>65%</p>
                  <p id=""wtp"" style=""text-align:center; margin-top: 0px; margin-bottom: 0px; font-size: 40px"";>&ensp;</p>","-","viewing","0","31","8A","","","","","","","","","","","","","","","","","",""
"","","","","","html-slider-response","17","1219153","0.0-17.0-1.0","b4b0c5b4-7aaf-4644-9b23-5d17397ca03c","null","
                  <p style=""text-align: center;"">₪79
                                                <br>65%</p>
                  <p id=""wtp"" style=""text-align:center; margin-top: 0px; margin-bottom: 0px; font-size: 40px"";>מוכנים לשלם: <span id=""c_p_y""></span></p>","null","evaluation","55","31","8A","65","79","24","","","","","","","","","","","","","","",""
"","","","","","html-keyboard-response","18","1220229","0.0-17.0-2.0","b4b0c5b4-7aaf-4644-9b23-5d17397ca03c","null","<p style=""text-align: center;"">+</p>","null","fixation","","","","","","","","","","","","","","","","","","","","",""
"","","","","","html-slider-response","19","1221241","0.0-17.0-0.1","b4b0c5b4-7aaf-4644-9b23-5d17397ca03c","1000","
                  <p style=""text-align: center;"">₪58
                                                <br>30%</p>
                  <p id=""wtp"" style=""text-align:center; margin-top: 0px; margin-bottom: 0px; font-size: 40px"";>&ensp;</p>","-","viewing","0","19","13C,30A","","","","","","","","","","","","","","","","","",""
"","","","","","html-slider-response","20","1223964","0.0-17.0-1.1","b4b0c5b4-7aaf-4644-9b23-5d17397ca03c","2722","
                  <p style=""text-align: center;"">₪58
                                                <br>30%</p>
                  <p id=""wtp"" style=""text-align:center; margin-top: 0px; margin-bottom: 0px; font-size: 40px"";>מוכנים לשלם: <span id=""c_p_y""></span></p>","20","evaluation","7","19","13C,30A","30","58","20","","","","","","","","","","","","","","",""
"","","","","","html-keyboard-response","21","1225214","0.0-17.0-2.1","b4b0c5b4-7aaf-4644-9b23-5d17397ca03c","null","<p style=""text-align: center;"">+</p>","null","fixation","","","","","","","","","","","","","","","","","","","","",""
"","","","","","html-slider-response","22","1226231","0.0-17.0-0.2","b4b0c5b4-7aaf-4644-9b23-5d17397ca03c","1000","
                  <p style=""text-align: center;"">₪58
                                                <br>40%</p>
                  <p id=""wtp"" style=""text-align:center; margin-top: 0px; margin-bottom: 0px; font-size: 40px"";>&ensp;</p>","-","viewing","0","20","10C,13A,19C,21B","","","","","","","","","","","","","","","","","",""
"","","","","","html-slider-response","23","1230028","0.0-17.0-1.2","b4b0c5b4-7aaf-4644-9b23-5d17397ca03c","3812","
                  <p style=""text-align: center;"">₪58
                                                <br>40%</p>
                  <p id=""wtp"" style=""text-align:center; margin-top: 0px; margin-bottom: 0px; font-size: 40px"";>מוכנים לשלם: <span id=""c_p_y""></span></p>","27","evaluation","19","20","10C,13A,19C,21B","40","58","27","","","","","","","","","","","","","","",""
"","","","","","html-keyboard-response","24","1230600","0.0-17.0-2.2","b4b0c5b4-7aaf-4644-9b23-5d17397ca03c","null","<p style=""text-align: center;"">+</p>","null","fixation","","","","","","","","","","","","","","","","","","","","",""
"","","","","","html-slider-response","25","1231615","0.0-17.0-0.3","b4b0c5b4-7aaf-4644-9b23-5d17397ca03c","1000","
                  <p style=""text-align: center;"">₪39
                                                <br>60%</p>
                  <p id=""wtp"" style=""text-align:center; margin-top: 0px; margin-bottom: 0px; font-size: 40px"";>&ensp;</p>","-","viewing","0","15","9C,25B","","","","","","","","","","","","","","","","","",""
"","","","","","html-slider-response","26","1234372","0.0-17.0-1.3","b4b0c5b4-7aaf-4644-9b23-5d17397ca03c","2756","
                  <p style=""text-align: center;"">₪39
                                                <br>60%</p>
                  <p id=""wtp"" style=""text-align:center; margin-top: 0px; margin-bottom: 0px; font-size: 40px"";>מוכנים לשלם: <span id=""c_p_y""></span></p>","20","evaluation","14","15","9C,25B","60","39","20","","","","","","","","","","","","","","",""
"","","","","","html-keyboard-response","27","1235620","0.0-17.0-2.3","b4b0c5b4-7aaf-4644-9b23-5d17397ca03c","null","<p style=""text-align: center;"">+</p>","null","fixation","","","","","","","","","","","","","","","","","","","","",""
"","","","","","html-slider-response","28","1236623","0.0-17.0-0.4","b4b0c5b4-7aaf-4644-9b23-5d17397ca03c","1000","
                  <p style=""text-align: center;"">₪43
                                                <br>75%</p>
                  <p id=""wtp"" style=""text-align:center; margin-top: 0px; margin-bottom: 0px; font-size: 40px"";>&ensp;</p>","-","viewing","0","18","11B,19B,24A,26A","","","","","","","","","","","","","","","","","",""
"","","","","","html-slider-response","29","1240092","0.0-17.0-1.4","b4b0c5b4-7aaf-4644-9b23-5d17397ca03c","3469","
                  <p style=""text-align: center;"">₪43
                                                <br>75%</p>
                  <p id=""wtp"" style=""text-align:center; margin-top: 0px; margin-bottom: 0px; font-size: 40px"";>מוכנים לשלם: <span id=""c_p_y""></span></p>","21","evaluation","80","18","11B,19B,24A,26A","75","43","21","","","","","","","","","","","","","","",""
"","","","","","html-keyboard-response","30","1240926","0.0-17.0-2.4","b4b0c5b4-7aaf-4644-9b23-5d17397ca03c","null","<p style=""text-align: center;"">+</p>","null","fixation","","","","","","","","","","","","","","","","","","","","",""
"","","","","","html-slider-response","31","1241929","0.0-17.0-0.5","b4b0c5b4-7aaf-4644-9b23-5d17397ca03c","1000","
                  <p style=""text-align: center;"">₪64
                                                <br>50%</p>
                  <p id=""wtp"" style=""text-align:center; margin-top: 0px; margin-bottom: 0px; font-size: 40px"";>&ensp;</p>","-","viewing","0","25","1B,3B,4A","","","","","","","","","","","","","","","","","",""
"","","","","","html-slider-response","32","1245028","0.0-17.0-1.5","b4b0c5b4-7aaf-4644-9b23-5d17397ca03c","3098","
                  <p style=""text-align: center;"">₪64
                                                <br>50%</p>
                  <p id=""wtp"" style=""text-align:center; margin-top: 0px; margin-bottom: 0px; font-size: 40px"";>מוכנים לשלם: <span id=""c_p_y""></span></p>","20","evaluation","45","25","1B,3B,4A","50","64","20","","","","","","","","","","","","","","",""
"","","","","","html-keyboard-response","33","1246389","0.0-17.0-2.5","b4b0c5b4-7aaf-4644-9b23-5d17397ca03c","null","<p style=""text-align: center;"">+</p>","null","fixation","","","","","","","","","","","","","","","","","","","","",""
"","","","","","html-slider-response","34","1247403","0.0-17.0-0.6","b4b0c5b4-7aaf-4644-9b23-5d17397ca03c","1000","
                  <p style=""text-align: center;"">₪71
                                                <br>45%</p>
                  <p id=""wtp"" style=""text-align:center; margin-top: 0px; margin-bottom: 0px; font-size: 40px"";>&ensp;</p>","-","viewing","0","26","2B,16A","","","","","","","","","","","","","","","","","",""
"","","","","","html-slider-response","35","1250940","0.0-17.0-1.6","b4b0c5b4-7aaf-4644-9b23-5d17397ca03c","3536","
                  <p style=""text-align: center;"">₪71
                                                <br>45%</p>
                  <p id=""wtp"" style=""text-align:center; margin-top: 0px; margin-bottom: 0px; font-size: 40px"";>מוכנים לשלם: <span id=""c_p_y""></span></p>","30","evaluation","25","26","2B,16A","45","71","30","","","","","","","","","","","","","","",""
"","","","","","html-keyboard-response","36","1252348","0.0-17.0-2.6","b4b0c5b4-7aaf-4644-9b23-5d17397ca03c","null","<p style=""text-align: center;"">+</p>","null","fixation","","","","","","","","","","","","","","","","","","","","",""
"","","","","","html-slider-response","37","1253361","0.0-17.0-0.7","b4b0c5b4-7aaf-4644-9b23-5d17397ca03c","1000","
                  <p style=""text-align: center;"">₪79
                                                <br>40%</p>
                  <p id=""wtp"" style=""text-align:center; margin-top: 0px; margin-bottom: 0px; font-size: 40px"";>&ensp;</p>","-","viewing","0","30","9B","","","","","","","","","","","","","","","","","",""
"","","","","","html-slider-response","38","1257292","0.0-17.0-1.7","b4b0c5b4-7aaf-4644-9b23-5d17397ca03c","3930","
                  <p style=""text-align: center;"">₪79
                                                <br>40%</p>
                  <p id=""wtp"" style=""text-align:center; margin-top: 0px; margin-bottom: 0px; font-size: 40px"";>מוכנים לשלם: <span id=""c_p_y""></span></p>","30","evaluation","18","30","9B","40","79","30","","","","","","","","","","","","","","",""
"","","","","","html-keyboard-response","39","1257892","0.0-17.0-2.7","b4b0c5b4-7aaf-4644-9b23-5d17397ca03c","null","<p style=""text-align: center;"">+</p>","null","fixation","","","","","","","","","","","","","","","","","","","","",""
"","","","","","html-slider-response","40","1258904","0.0-17.0-0.8","b4b0c5b4-7aaf-4644-9b23-5d17397ca03c","1000","
                  <p style=""text-align: center;"">₪36
                                                <br>70%</p>
                  <p id=""wtp"" style=""text-align:center; margin-top: 0px; margin-bottom: 0px; font-size: 40px"";>&ensp;</p>","-","viewing","0","13","3A,5C,10B","","","","","","","","","","","","","","","","","",""
"","","","","","html-slider-response","41","1262508","0.0-17.0-1.8","b4b0c5b4-7aaf-4644-9b23-5d17397ca03c","3603","
                  <p style=""text-align: center;"">₪36
                                                <br>70%</p>
                  <p id=""wtp"" style=""text-align:center; margin-top: 0px; margin-bottom: 0px; font-size: 40px"";>מוכנים לשלם: <span id=""c_p_y""></span></p>","29","evaluation","66","13","3A,5C,10B","70","36","29","","","","","","","","","","","","","","",""
"","","","","","html-keyboard-response","42","1263332","0.0-17.0-2.8","b4b0c5b4-7aaf-4644-9b23-5d17397ca03c","null","<p style=""text-align: center;"">+</p>","null","fixation","","","","","","","","","","","","","","","","","","","","",""
"","","","","","html-slider-response","43","1264334","0.0-17.0-0.9","b4b0c5b4-7aaf-4644-9b23-5d17397ca03c","1000","
                  <p style=""text-align: center;"">₪4
                                                <br>25%</p>
                  <p id=""wtp"" style=""text-align:center; margin-top: 0px; margin-bottom: 0px; font-size: 40px"";>&ensp;</p>","-","viewing","0","1","6C,29B,30C","","","","","","","","","","","","","","","","","",""
"","","","","","html-slider-response","44","1266076","0.0-17.0-1.9","b4b0c5b4-7aaf-4644-9b23-5d17397ca03c","1741","
                  <p style=""text-align: center;"">₪4
                                                <br>25%</p>
                  <p id=""wtp"" style=""text-align:center; margin-top: 0px; margin-bottom: 0px; font-size: 40px"";>מוכנים לשלם: <span id=""c_p_y""></span></p>","0","evaluation","33","1","6C,29B,30C","25","4","0","","","","","","","","","","","","","","",""
"","","","","","html-keyboard-response","45","1266789","0.0-17.0-2.9","b4b0c5b4-7aaf-4644-9b23-5d17397ca03c","null","<p style=""text-align: center;"">+</p>","null","fixation","","","","","","","","","","","","","","","","","","","","",""
"","","","","","html-slider-response","46","1267791","0.0-17.0-0.10","b4b0c5b4-7aaf-4644-9b23-5d17397ca03c","1000","
                  <p style=""text-align: center;"">₪76
                                                <br>65%</p>
                  <p id=""wtp"" style=""text-align:center; margin-top: 0px; margin-bottom: 0px; font-size: 40px"";>&ensp;</p>","-","viewing","0","29","8C,19A,24B","","","","","","","","","","","","","","","","","",""
"","","","","","html-slider-response","47","1269876","0.0-17.0-1.10","b4b0c5b4-7aaf-4644-9b23-5d17397ca03c","2084","
                  <p style=""text-align: center;"">₪76
                                                <br>65%</p>
                  <p id=""wtp"" style=""text-align:center; margin-top: 0px; margin-bottom: 0px; font-size: 40px"";>מוכנים לשלם: <span id=""c_p_y""></span></p>","30","evaluation","61","29","8C,19A,24B","65","76","30","","","","","","","","","","","","","","",""
"","","","","","html-keyboard-response","48","1271112","0.0-17.0-2.10","b4b0c5b4-7aaf-4644-9b23-5d17397ca03c","null","<p style=""text-align: center;"">+</p>","null","fixation","","","","","","","","","","","","","","","","","","","","",""
"","","","","","html-slider-response","49","1272125","0.0-17.0-0.11","b4b0c5b4-7aaf-4644-9b23-5d17397ca03c","1000","
                  <p style=""text-align: center;"">₪4
                                                <br>50%</p>
                  <p id=""wtp"" style=""text-align:center; margin-top: 0px; margin-bottom: 0px; font-size: 40px"";>&ensp;</p>","-","viewing","0","2","4C,17B","","","","","","","","","","","","","","","","","",""
"","","","","","html-slider-response","50","1274660","0.0-17.0-1.11","b4b0c5b4-7aaf-4644-9b23-5d17397ca03c","2534","
                  <p style=""text-align: center;"">₪4
                                                <br>50%</p>
                  <p id=""wtp"" style=""text-align:center; margin-top: 0px; margin-bottom: 0px; font-size: 40px"";>מוכנים לשלם: <span id=""c_p_y""></span></p>","1","evaluation","35","2","4C,17B","50","4","1","","","","","","","","","","","","","","",""
"","","","","","html-keyboard-response","51","1275443","0.0-17.0-2.11","b4b0c5b4-7aaf-4644-9b23-5d17397ca03c","null","<p style=""text-align: center;"">+</p>","null","fixation","","","","","","","","","","","","","","","","","","","","",""
"","","","","","html-slider-response","52","1276445","0.0-17.0-0.12","b4b0c5b4-7aaf-4644-9b23-5d17397ca03c","1000","
                  <p style=""text-align: center;"">₪36
                                                <br>60%</p>
                  <p id=""wtp"" style=""text-align:center; margin-top: 0px; margin-bottom: 0px; font-size: 40px"";>&ensp;</p>","-","viewing","0","12","1C,7C,15C","","","","","","","","","","","","","","","","","",""
"","","","","","html-slider-response","53","1280020","0.0-17.0-1.12","b4b0c5b4-7aaf-4644-9b23-5d17397ca03c","3575","
                  <p style=""text-align: center;"">₪36
                                                <br>60%</p>
                  <p id=""wtp"" style=""text-align:center; margin-top: 0px; margin-bottom: 0px; font-size: 40px"";>מוכנים לשלם: <span id=""c_p_y""></span></p>","21","evaluation","42","12","1C,7C,15C","60","36","21","","","","","","","","","","","","","","",""
"","","","","","html-keyboard-response","54","1280841","0.0-17.0-2.12","b4b0c5b4-7aaf-4644-9b23-5d17397ca03c","null","<p style=""text-align: center;"">+</p>","null","fixation","","","","","","","","","","","","","","","","","","","","",""
"","","","","","html-slider-response","55","1281850","0.0-17.0-0.13","b4b0c5b4-7aaf-4644-9b23-5d17397ca03c","1000","
                  <p style=""text-align: center;"">₪43
                                                <br>60%</p>
                  <p id=""wtp"" style=""text-align:center; margin-top: 0px; margin-bottom: 0px; font-size: 40px"";>&ensp;</p>","-","viewing","0","17","2A,7A,9A,15B","","","","","","","","","","","","","","","","","",""
"","","","","","html-slider-response","56","1285862","0.0-17.0-1.13","b4b0c5b4-7aaf-4644-9b23-5d17397ca03c","null","
                  <p style=""text-align: center;"">₪43
                                                <br>60%</p>
                  <p id=""wtp"" style=""text-align:center; margin-top: 0px; margin-bottom: 0px; font-size: 40px"";>מוכנים לשלם: <span id=""c_p_y""></span></p>","null","evaluation","8","17","2A,7A,9A,15B","60","43","26","","","","","","","","","","","","","","",""
"","","","","","html-keyboard-response","57","1286488","0.0-17.0-2.13","b4b0c5b4-7aaf-4644-9b23-5d17397ca03c","null","<p style=""text-align: center;"">+</p>","null","fixation","","","","","","","","","","","","","","","","","","","","",""
"","","","","","html-slider-response","58","1287494","0.0-17.0-0.14","b4b0c5b4-7aaf-4644-9b23-5d17397ca03c","1000","
                  <p style=""text-align: center;"">₪61
                                                <br>45%</p>
                  <p id=""wtp"" style=""text-align:center; margin-top: 0px; margin-bottom: 0px; font-size: 40px"";>&ensp;</p>","-","viewing","0","22","10A,11A","","","","","","","","","","","","","","","","","",""
"","","","","","html-slider-response","59","1291388","0.0-17.0-1.14","b4b0c5b4-7aaf-4644-9b23-5d17397ca03c","3909","
                  <p style=""text-align: center;"">₪61
                                                <br>45%</p>
                  <p id=""wtp"" style=""text-align:center; margin-top: 0px; margin-bottom: 0px; font-size: 40px"";>מוכנים לשלם: <span id=""c_p_y""></span></p>","28","evaluation","75","22","10A,11A","45","61","28","","","","","","","","","","","","","","",""
"","","","","","html-keyboard-response","60","1292352","0.0-17.0-2.14","b4b0c5b4-7aaf-4644-9b23-5d17397ca03c","null","<p style=""text-align: center;"">+</p>","null","fixation","","","","","","","","","","","","","","","","","","","","",""
"","","","","","html-slider-response","61","1293357","0.0-17.0-0.15","b4b0c5b4-7aaf-4644-9b23-5d17397ca03c","1000","
                  <p style=""text-align: center;"">₪36
                                                <br>75%</p>
                  <p id=""wtp"" style=""text-align:center; margin-top: 0px; margin-bottom: 0px; font-size: 40px"";>&ensp;</p>","-","viewing","0","14","4B,5A,13B,16B","","","","","","","","","","","","","","","","","",""
"","","","","","html-slider-response","62","1296580","0.0-17.0-1.15","b4b0c5b4-7aaf-4644-9b23-5d17397ca03c","3222","
                  <p style=""text-align: center;"">₪36
                                                <br>75%</p>
                  <p id=""wtp"" style=""text-align:center; margin-top: 0px; margin-bottom: 0px; font-size: 40px"";>מוכנים לשלם: <span id=""c_p_y""></span></p>","21","evaluation","66","14","4B,5A,13B,16B","75","36","21","","","","","","","","","","","","","","",""
"","","","","","html-keyboard-response","63","1297978","0.0-17.0-2.15","b4b0c5b4-7aaf-4644-9b23-5d17397ca03c","null","<p style=""text-align: center;"">+</p>","null","fixation","","","","","","","","","","","","","","","","","","","","",""
"","","","","","html-slider-response","64","1298989","0.0-17.0-0.16","b4b0c5b4-7aaf-4644-9b23-5d17397ca03c","1000","
                  <p style=""text-align: center;"">₪11
                                                <br>25%</p>
                  <p id=""wtp"" style=""text-align:center; margin-top: 0px; margin-bottom: 0px; font-size: 40px"";>&ensp;</p>","-","viewing","0","5","12A,27B,28B,30B","","","","","","","","","","","","","","","","","",""
"","","","","","html-slider-response","65","1301780","0.0-17.0-1.16","b4b0c5b4-7aaf-4644-9b23-5d17397ca03c","2791","
                  <p style=""text-align: center;"">₪11
                                                <br>25%</p>
                  <p id=""wtp"" style=""text-align:center; margin-top: 0px; margin-bottom: 0px; font-size: 40px"";>מוכנים לשלם: <span id=""c_p_y""></span></p>","1","evaluation","55","5","12A,27B,28B,30B","25","11","2","","","","","","","","","","","","","","",""
"","","","","","html-keyboard-response","66","1302527","0.0-17.0-2.16","b4b0c5b4-7aaf-4644-9b23-5d17397ca03c","null","<p style=""text-align: center;"">+</p>","null","fixation","","","","","","","","","","","","","","","","","","","","",""
"","","","","","html-slider-response","67","1303532","0.0-17.0-0.17","b4b0c5b4-7aaf-4644-9b23-5d17397ca03c","1000","
                  <p style=""text-align: center;"">₪61
                                                <br>55%</p>
                  <p id=""wtp"" style=""text-align:center; margin-top: 0px; margin-bottom: 0px; font-size: 40px"";>&ensp;</p>","-","viewing","0","23","7B,26B","","","","","","","","","","","","","","","","","",""
"","","","","","html-slider-response","68","1305756","0.0-17.0-1.17","b4b0c5b4-7aaf-4644-9b23-5d17397ca03c","2223","
                  <p style=""text-align: center;"">₪61
                                                <br>55%</p>
                  <p id=""wtp"" style=""text-align:center; margin-top: 0px; margin-bottom: 0px; font-size: 40px"";>מוכנים לשלם: <span id=""c_p_y""></span></p>","30","evaluation","3","23","7B,26B","55","61","30","","","","","","","","","","","","","","",""
"","","","","","html-keyboard-response","69","1307233","0.0-17.0-2.17","b4b0c5b4-7aaf-4644-9b23-5d17397ca03c","null","<p style=""text-align: center;"">+</p>","null","fixation","","","","","","","","","","","","","","","","","","","","",""
"","","","","","html-slider-response","70","1308237","0.0-17.0-0.18","b4b0c5b4-7aaf-4644-9b23-5d17397ca03c","1000","
                  <p style=""text-align: center;"">₪71
                                                <br>75%</p>
                  <p id=""wtp"" style=""text-align:center; margin-top: 0px; margin-bottom: 0px; font-size: 40px"";>&ensp;</p>","-","viewing","0","28","8B","","","","","","","","","","","","","","","","","",""
"","","","","","html-slider-response","71","1310868","0.0-17.0-1.18","b4b0c5b4-7aaf-4644-9b23-5d17397ca03c","2630","
                  <p style=""text-align: center;"">₪71
                                                <br>75%</p>
                  <p id=""wtp"" style=""text-align:center; margin-top: 0px; margin-bottom: 0px; font-size: 40px"";>מוכנים לשלם: <span id=""c_p_y""></span></p>","34","evaluation","51","28","8B","75","71","34","","","","","","","","","","","","","","",""
"","","","","","html-keyboard-response","72","1311994","0.0-17.0-2.18","b4b0c5b4-7aaf-4644-9b23-5d17397ca03c","null","<p style=""text-align: center;"">+</p>","null","fixation","","","","","","","","","","","","","","","","","","","","",""
"","","","","","html-slider-response","73","1313004","0.0-17.0-0.19","b4b0c5b4-7aaf-4644-9b23-5d17397ca03c","1000","
                  <p style=""text-align: center;"">₪11
                                                <br>20%</p>
                  <p id=""wtp"" style=""text-align:center; margin-top: 0px; margin-bottom: 0px; font-size: 40px"";>&ensp;</p>","-","viewing","0","4","12C,17C,23C,28C","","","","","","","","","","","","","","","","","",""
"","","","","","html-slider-response","74","1314724","0.0-17.0-1.19","b4b0c5b4-7aaf-4644-9b23-5d17397ca03c","1719","
                  <p style=""text-align: center;"">₪11
                                                <br>20%</p>
                  <p id=""wtp"" style=""text-align:center; margin-top: 0px; margin-bottom: 0px; font-size: 40px"";>מוכנים לשלם: <span id=""c_p_y""></span></p>","3","evaluation","62","4","12C,17C,23C,28C","20","11","4","","","","","","","","","","","","","","",""
"","","","","","html-keyboard-response","75","1315510","0.0-17.0-2.19","b4b0c5b4-7aaf-4644-9b23-5d17397ca03c","null","<p style=""text-align: center;"">+</p>","null","fixation","","","","","","","","","","","","","","","","","","","","",""
"","","","","","html-slider-response","76","1316512","0.0-17.0-0.20","b4b0c5b4-7aaf-4644-9b23-5d17397ca03c","1000","
                  <p style=""text-align: center;"">₪58
                                                <br>45%</p>
                  <p id=""wtp"" style=""text-align:center; margin-top: 0px; margin-bottom: 0px; font-size: 40px"";>&ensp;</p>","-","viewing","0","21","11C,18C,25A","","","","","","","","","","","","","","","","","",""
"","","","","","html-slider-response","77","1318588","0.0-17.0-1.20","b4b0c5b4-7aaf-4644-9b23-5d17397ca03c","2075","
                  <p style=""text-align: center;"">₪58
                                                <br>45%</p>
                  <p id=""wtp"" style=""text-align:center; margin-top: 0px; margin-bottom: 0px; font-size: 40px"";>מוכנים לשלם: <span id=""c_p_y""></span></p>","29","evaluation","69","21","11C,18C,25A","45","58","29","","","","","","","","","","","","","","",""
"","","","","","html-keyboard-response","78","1319657","0.0-17.0-2.20","b4b0c5b4-7aaf-4644-9b23-5d17397ca03c","null","<p style=""text-align: center;"">+</p>","null","fixation","","","","","","","","","","","","","","","","","","","","",""
"","","","","","html-slider-response","79","1320674","0.0-17.0-0.21","b4b0c5b4-7aaf-4644-9b23-5d17397ca03c","1000","
                  <p style=""text-align: center;"">₪4
                                                <br>75%</p>
                  <p id=""wtp"" style=""text-align:center; margin-top: 0px; margin-bottom: 0px; font-size: 40px"";>&ensp;</p>","-","viewing","0","3","12B,20B,23B,27C,29C","","","","","","","","","","","","","","","","","",""
"","","","","","html-slider-response","80","1322916","0.0-17.0-1.21","b4b0c5b4-7aaf-4644-9b23-5d17397ca03c","2241","
                  <p style=""text-align: center;"">₪4
                                                <br>75%</p>
                  <p id=""wtp"" style=""text-align:center; margin-top: 0px; margin-bottom: 0px; font-size: 40px"";>מוכנים לשלם: <span id=""c_p_y""></span></p>","0","evaluation","79","3","12B,20B,23B,27C,29C","75","4","1","","","","","","","","","","","","","","",""
"","","","","","html-keyboard-response","81","1324084","0.0-17.0-2.21","b4b0c5b4-7aaf-4644-9b23-5d17397ca03c","null","<p style=""text-align: center;"">+</p>","null","fixation","","","","","","","","","","","","","","","","","","","","",""
"","","","","","html-slider-response","82","1325095","0.0-17.0-0.22","b4b0c5b4-7aaf-4644-9b23-5d17397ca03c","1000","
                  <p style=""text-align: center;"">₪11
                                                <br>45%</p>
                  <p id=""wtp"" style=""text-align:center; margin-top: 0px; margin-bottom: 0px; font-size: 40px"";>&ensp;</p>","-","viewing","0","6","14B,21C,25C","","","","","","","","","","","","","","","","","",""
"","","","","","html-slider-response","83","1326668","0.0-17.0-1.22","b4b0c5b4-7aaf-4644-9b23-5d17397ca03c","1572","
                  <p style=""text-align: center;"">₪11
                                                <br>45%</p>
                  <p id=""wtp"" style=""text-align:center; margin-top: 0px; margin-bottom: 0px; font-size: 40px"";>מוכנים לשלם: <span id=""c_p_y""></span></p>","2","evaluation","65","6","14B,21C,25C","45","11","3","","","","","","","","","","","","","","",""
"","","","","","html-keyboard-response","84","1328012","0.0-17.0-2.22","b4b0c5b4-7aaf-4644-9b23-5d17397ca03c","null","<p style=""text-align: center;"">+</p>","null","fixation","","","","","","","","","","","","","","","","","","","","",""
"","","","","","html-slider-response","85","1329019","0.0-17.0-0.23","b4b0c5b4-7aaf-4644-9b23-5d17397ca03c","1000","
                  <p style=""text-align: center;"">₪16
                                                <br>20%</p>
                  <p id=""wtp"" style=""text-align:center; margin-top: 0px; margin-bottom: 0px; font-size: 40px"";>&ensp;</p>","-","viewing","0","8","14C,17A,20C,27A","","","","","","","","","","","","","","","","","",""
"","","","","","html-slider-response","86","1330764","0.0-17.0-1.23","b4b0c5b4-7aaf-4644-9b23-5d17397ca03c","1744","
                  <p style=""text-align: center;"">₪16
                                                <br>20%</p>
                  <p id=""wtp"" style=""text-align:center; margin-top: 0px; margin-bottom: 0px; font-size: 40px"";>מוכנים לשלם: <span id=""c_p_y""></span></p>","2","evaluation","32","8","14C,17A,20C,27A","20","16","3","","","","","","","","","","","","","","",""
"","","","","","html-keyboard-response","87","1331690","0.0-17.0-2.23","b4b0c5b4-7aaf-4644-9b23-5d17397ca03c","null","<p style=""text-align: center;"">+</p>","null","fixation","","","","","","","","","","","","","","","","","","","","",""
"","","","","","html-slider-response","88","1332692","0.0-17.0-0.24","b4b0c5b4-7aaf-4644-9b23-5d17397ca03c","1000","
                  <p style=""text-align: center;"">₪64
                                                <br>25%</p>
                  <p id=""wtp"" style=""text-align:center; margin-top: 0px; margin-bottom: 0px; font-size: 40px"";>&ensp;</p>","-","viewing","0","24","6A,21A","","","","","","","","","","","","","","","","","",""
"","","","","","html-slider-response","89","1336704","0.0-17.0-1.24","b4b0c5b4-7aaf-4644-9b23-5d17397ca03c","null","
                  <p style=""text-align: center;"">₪64
                                                <br>25%</p>
                  <p id=""wtp"" style=""text-align:center; margin-top: 0px; margin-bottom: 0px; font-size: 40px"";>מוכנים לשלם: <span id=""c_p_y""></span></p>","null","evaluation","77","24","6A,21A","25","64","23","","","","","","","","","","","","","","",""
"","","","","","html-keyboard-response","90","1337676","0.0-17.0-2.24","b4b0c5b4-7aaf-4644-9b23-5d17397ca03c","null","<p style=""text-align: center;"">+</p>","null","fixation","","","","","","","","","","","","","","","","","","","","",""
"","","","","","html-slider-response","91","1338679","0.0-17.0-0.25","b4b0c5b4-7aaf-4644-9b23-5d17397ca03c","1000","
                  <p style=""text-align: center;"">₪36
                                                <br>30%</p>
                  <p id=""wtp"" style=""text-align:center; margin-top: 0px; margin-bottom: 0px; font-size: 40px"";>&ensp;</p>","-","viewing","0","11","3C,20A,22A","","","","","","","","","","","","","","","","","",""
"","","","","","html-slider-response","92","1340316","0.0-17.0-1.25","b4b0c5b4-7aaf-4644-9b23-5d17397ca03c","1636","
                  <p style=""text-align: center;"">₪36
                                                <br>30%</p>
                  <p id=""wtp"" style=""text-align:center; margin-top: 0px; margin-bottom: 0px; font-size: 40px"";>מוכנים לשלם: <span id=""c_p_y""></span></p>","20","evaluation","53","11","3C,20A,22A","30","36","20","","","","","","","","","","","","","","",""
"","","","","","html-keyboard-response","93","1341805","0.0-17.0-2.25","b4b0c5b4-7aaf-4644-9b23-5d17397ca03c","null","<p style=""text-align: center;"">+</p>","null","fixation","","","","","","","","","","","","","","","","","","","","",""
"","","","","","html-slider-response","94","1342816","0.0-17.0-0.26","b4b0c5b4-7aaf-4644-9b23-5d17397ca03c","1000","
                  <p style=""text-align: center;"">₪18
                                                <br>25%</p>
                  <p id=""wtp"" style=""text-align:center; margin-top: 0px; margin-bottom: 0px; font-size: 40px"";>&ensp;</p>","-","viewing","0","9","14A,23A","","","","","","","","","","","","","","","","","",""
"","","","","","html-slider-response","95","1345460","0.0-17.0-1.26","b4b0c5b4-7aaf-4644-9b23-5d17397ca03c","2643","
                  <p style=""text-align: center;"">₪18
                                                <br>25%</p>
                  <p id=""wtp"" style=""text-align:center; margin-top: 0px; margin-bottom: 0px; font-size: 40px"";>מוכנים לשלם: <span id=""c_p_y""></span></p>","7","evaluation","80","9","14A,23A","25","18","8","","","","","","","","","","","","","","",""
"","","","","","html-keyboard-response","96","1346547","0.0-17.0-2.26","b4b0c5b4-7aaf-4644-9b23-5d17397ca03c","null","<p style=""text-align: center;"">+</p>","null","fixation","","","","","","","","","","","","","","","","","","","","",""
"","","","","","html-slider-response","97","1347556","0.0-17.0-0.27","b4b0c5b4-7aaf-4644-9b23-5d17397ca03c","1000","
                  <p style=""text-align: center;"">₪71
                                                <br>55%</p>
                  <p id=""wtp"" style=""text-align:center; margin-top: 0px; margin-bottom: 0px; font-size: 40px"";>&ensp;</p>","-","viewing","0","27","5B,18A","","","","","","","","","","","","","","","","","",""
"","","","","","html-slider-response","98","1350157","0.0-17.0-1.27","b4b0c5b4-7aaf-4644-9b23-5d17397ca03c","2616","
                  <p style=""text-align: center;"">₪71
                                                <br>55%</p>
                  <p id=""wtp"" style=""text-align:center; margin-top: 0px; margin-bottom: 0px; font-size: 40px"";>מוכנים לשלם: <span id=""c_p_y""></span></p>","5","evaluation","18","27","5B,18A","55","71","5","","","","","","","","","","","","","","",""
"","","","","","html-keyboard-response","99","1351572","0.0-17.0-2.27","b4b0c5b4-7aaf-4644-9b23-5d17397ca03c","null","<p style=""text-align: center;"">+</p>","null","fixation","","","","","","","","","","","","","","","","","","","","",""
"","","","","","html-slider-response","100","1352573","0.0-17.0-0.28","b4b0c5b4-7aaf-4644-9b23-5d17397ca03c","1000","
                  <p style=""text-align: center;"">₪11
                                                <br>75%</p>
                  <p id=""wtp"" style=""text-align:center; margin-top: 0px; margin-bottom: 0px; font-size: 40px"";>&ensp;</p>","-","viewing","0","7","6B,18B,22C,24C,29A","","","","","","","","","","","","","","","","","",""
"","","","","","html-slider-response","101","1356413","0.0-17.0-1.28","b4b0c5b4-7aaf-4644-9b23-5d17397ca03c","3838","
                  <p style=""text-align: center;"">₪11
                                                <br>75%</p>
                  <p id=""wtp"" style=""text-align:center; margin-top: 0px; margin-bottom: 0px; font-size: 40px"";>מוכנים לשלם: <span id=""c_p_y""></span></p>","3","evaluation","54","7","6B,18B,22C,24C,29A","75","11","3","","","","","","","","","","","","","","",""
"","","","","","html-keyboard-response","102","1357629","0.0-17.0-2.28","b4b0c5b4-7aaf-4644-9b23-5d17397ca03c","null","<p style=""text-align: center;"">+</p>","null","fixation","","","","","","","","","","","","","","","","","","","","",""
"","","","","","html-slider-response","103","1358642","0.0-17.0-0.29","b4b0c5b4-7aaf-4644-9b23-5d17397ca03c","1000","
                  <p style=""text-align: center;"">₪39
                                                <br>65%</p>
                  <p id=""wtp"" style=""text-align:center; margin-top: 0px; margin-bottom: 0px; font-size: 40px"";>&ensp;</p>","-","viewing","0","16","1A,15A,26C","","","","","","","","","","","","","","","","","",""
"","","","","","html-slider-response","104","1361637","0.0-17.0-1.29","b4b0c5b4-7aaf-4644-9b23-5d17397ca03c","2994","
                  <p style=""text-align: center;"">₪39
                                                <br>65%</p>
                  <p id=""wtp"" style=""text-align:center; margin-top: 0px; margin-bottom: 0px; font-size: 40px"";>מוכנים לשלם: <span id=""c_p_y""></span></p>","12","evaluation","66","16","1A,15A,26C","65","39","12","","","","","","","","","","","","","","",""
"","","","","","html-keyboard-response","105","1363031","0.0-17.0-2.29","b4b0c5b4-7aaf-4644-9b23-5d17397ca03c","null","<p style=""text-align: center;"">+</p>","null","fixation","","","","","","","","","","","","","","","","","","","","",""
"","","","","","html-slider-response","106","1364037","0.0-17.0-0.30","b4b0c5b4-7aaf-4644-9b23-5d17397ca03c","1000","
                  <p style=""text-align: center;"">₪18
                                                <br>50%</p>
                  <p id=""wtp"" style=""text-align:center; margin-top: 0px; margin-bottom: 0px; font-size: 40px"";>&ensp;</p>","-","viewing","0","10","2C,16C,22B,28A","","","","","","","","","","","","","","","","","",""
"","","","","","html-slider-response","107","1367133","0.0-17.0-1.30","b4b0c5b4-7aaf-4644-9b23-5d17397ca03c","3095","
                  <p style=""text-align: center;"">₪18
                                                <br>50%</p>
                  <p id=""wtp"" style=""text-align:center; margin-top: 0px; margin-bottom: 0px; font-size: 40px"";>מוכנים לשלם: <span id=""c_p_y""></span></p>","2","evaluation","63","10","2C,16C,22B,28A","50","18","2","","","","","","","","","","","","","","",""
"","","","","","html-keyboard-response","108","1368603","0.0-17.0-2.30","b4b0c5b4-7aaf-4644-9b23-5d17397ca03c","null","<p style=""text-align: center;"">+</p>","null","fixation","","","","","","","","","","","","","","","","","","","","",""
"","","","","","html-keyboard-response","109","1369609","0.0-18.0","b4b0c5b4-7aaf-4644-9b23-5d17397ca03c","null","<p style=""text-align: center;"">+</p>","null","fixation","","","","","","","","","","","","","","","","","","","","",""
"","","","","","html-keyboard-response","110","1371629","0.0-19.0","b4b0c5b4-7aaf-4644-9b23-5d17397ca03c","null","<p>הפסקה.
          <br>לחצו כדי להמשיך.</p>","1","scan_wait","","","","","","","","","","","","","","","","","","","","",""
"","","","","","html-keyboard-response","111","1372629","0.0-20.0","b4b0c5b4-7aaf-4644-9b23-5d17397ca03c","null","<p style=""text-align: center;"">+</p>","null","fixation","","","","","","","","","","","","","","","","","","","","",""
"","","","","","html-slider-response","112","1373630","0.0-21.0-0.0","b4b0c5b4-7aaf-4644-9b23-5d17397ca03c","1000","
                  <p style=""text-align: center;"">₪58
                                                <br>30%</p>
                  <p id=""wtp"" style=""text-align:center; margin-top: 0px; margin-bottom: 0px; font-size: 40px"";>&ensp;</p>","-","viewing","0","19","13C,30A","","","","","","","","","","","","","","","","","",""
"","","","","","html-slider-response","113","1376589","0.0-21.0-1.0","b4b0c5b4-7aaf-4644-9b23-5d17397ca03c","2957","
                  <p style=""text-align: center;"">₪58
                                                <br>30%</p>
                  <p id=""wtp"" style=""text-align:center; margin-top: 0px; margin-bottom: 0px; font-size: 40px"";>מוכנים לשלם: <span id=""c_p_y""></span></p>","18","evaluation","66","19","13C,30A","30","58","18","","","","","","","","","","","","","","",""
"","","","","","html-keyboard-response","114","1377375","0.0-21.0-2.0","b4b0c5b4-7aaf-4644-9b23-5d17397ca03c","null","<p style=""text-align: center;"">+</p>","null","fixation","","","","","","","","","","","","","","","","","","","","",""
"","","","","","html-slider-response","115","1378383","0.0-21.0-0.1","b4b0c5b4-7aaf-4644-9b23-5d17397ca03c","1000","
                  <p style=""text-align: center;"">₪58
                                                <br>40%</p>
                  <p id=""wtp"" style=""text-align:center; margin-top: 0px; margin-bottom: 0px; font-size: 40px"";>&ensp;</p>","-","viewing","0","20","10C,13A,19C,21B","","","","","","","","","","","","","","","","","",""
"","","","","","html-slider-response","116","1380485","0.0-21.0-1.1","b4b0c5b4-7aaf-4644-9b23-5d17397ca03c","2102","
                  <p style=""text-align: center;"">₪58
                                                <br>40%</p>
                  <p id=""wtp"" style=""text-align:center; margin-top: 0px; margin-bottom: 0px; font-size: 40px"";>מוכנים לשלם: <span id=""c_p_y""></span></p>","19","evaluation","21","20","10C,13A,19C,21B","40","58","19","","","","","","","","","","","","","","",""
"","","","","","html-keyboard-response","117","1381039","0.0-21.0-2.1","b4b0c5b4-7aaf-4644-9b23-5d17397ca03c","null","<p style=""text-align: center;"">+</p>","null","fixation","","","","","","","","","","","","","","","","","","","","",""
"","","","","","html-slider-response","118","1382045","0.0-21.0-0.2","b4b0c5b4-7aaf-4644-9b23-5d17397ca03c","1000","
                  <p style=""text-align: center;"">₪58
                                                <br>45%</p>
                  <p id=""wtp"" style=""text-align:center; margin-top: 0px; margin-bottom: 0px; font-size: 40px"";>&ensp;</p>","-","viewing","0","21","11C,18C,25A","","","","","","","","","","","","","","","","","",""
"","","","","","html-slider-response","119","1384717","0.0-21.0-1.2","b4b0c5b4-7aaf-4644-9b23-5d17397ca03c","2671","
                  <p style=""text-align: center;"">₪58
                                                <br>45%</p>
                  <p id=""wtp"" style=""text-align:center; margin-top: 0px; margin-bottom: 0px; font-size: 40px"";>מוכנים לשלם: <span id=""c_p_y""></span></p>","11","evaluation","52","21","11C,18C,25A","45","58","11","","","","","","","","","","","","","","",""
"","","","","","html-keyboard-response","120","1385457","0.0-21.0-2.2","b4b0c5b4-7aaf-4644-9b23-5d17397ca03c","null","<p style=""text-align: center;"">+</p>","null","fixation","","","","","","","","","","","","","","","","","","","","",""
"","","","","","html-slider-response","121","1386461","0.0-21.0-0.3","b4b0c5b4-7aaf-4644-9b23-5d17397ca03c","1000","
                  <p style=""text-align: center;"">₪18
                                                <br>50%</p>
                  <p id=""wtp"" style=""text-align:center; margin-top: 0px; margin-bottom: 0px; font-size: 40px"";>&ensp;</p>","-","viewing","0","10","2C,16C,22B,28A","","","","","","","","","","","","","","","","","",""
"","","","","","html-slider-response","122","1388573","0.0-21.0-1.3","b4b0c5b4-7aaf-4644-9b23-5d17397ca03c","2111","
                  <p style=""text-align: center;"">₪18
                                                <br>50%</p>
                  <p id=""wtp"" style=""text-align:center; margin-top: 0px; margin-bottom: 0px; font-size: 40px"";>מוכנים לשלם: <span id=""c_p_y""></span></p>","3","evaluation","21","10","2C,16C,22B,28A","50","18","4","","","","","","","","","","","","","","",""
"","","","","","html-keyboard-response","123","1389125","0.0-21.0-2.3","b4b0c5b4-7aaf-4644-9b23-5d17397ca03c","null","<p style=""text-align: center;"">+</p>","null","fixation","","","","","","","","","","","","","","","","","","","","",""
"","","","","","html-slider-response","124","1390126","0.0-21.0-0.4","b4b0c5b4-7aaf-4644-9b23-5d17397ca03c","1000","
                  <p style=""text-align: center;"">₪61
                                                <br>55%</p>
                  <p id=""wtp"" style=""text-align:center; margin-top: 0px; margin-bottom: 0px; font-size: 40px"";>&ensp;</p>","-","viewing","0","23","7B,26B","","","","","","","","","","","","","","","","","",""
"","","","","","html-slider-response","125","1392413","0.0-21.0-1.4","b4b0c5b4-7aaf-4644-9b23-5d17397ca03c","2286","
                  <p style=""text-align: center;"">₪61
                                                <br>55%</p>
                  <p id=""wtp"" style=""text-align:center; margin-top: 0px; margin-bottom: 0px; font-size: 40px"";>מוכנים לשלם: <span id=""c_p_y""></span></p>","10","evaluation","28","23","7B,26B","55","61","10","","","","","","","","","","","","","","",""
"","","","","","html-keyboard-response","126","1393294","0.0-21.0-2.4","b4b0c5b4-7aaf-4644-9b23-5d17397ca03c","null","<p style=""text-align: center;"">+</p>","null","fixation","","","","","","","","","","","","","","","","","","","","",""
"","","","","","html-slider-response","127","1394300","0.0-21.0-0.5","b4b0c5b4-7aaf-4644-9b23-5d17397ca03c","1000","
                  <p style=""text-align: center;"">₪4
                                                <br>75%</p>
                  <p id=""wtp"" style=""text-align:center; margin-top: 0px; margin-bottom: 0px; font-size: 40px"";>&ensp;</p>","-","viewing","0","3","12B,20B,23B,27C,29C","","","","","","","","","","","","","","","","","",""
"","","","","","html-slider-response","128","1395261","0.0-21.0-1.5","b4b0c5b4-7aaf-4644-9b23-5d17397ca03c","961","
                  <p style=""text-align: center;"">₪4
                                                <br>75%</p>
                  <p id=""wtp"" style=""text-align:center; margin-top: 0px; margin-bottom: 0px; font-size: 40px"";>מוכנים לשלם: <span id=""c_p_y""></span></p>","1","evaluation","3","3","12B,20B,23B,27C,29C","75","4","1","","","","","","","","","","","","","","",""
"","","","","","html-keyboard-response","129","1396078","0.0-21.0-2.5","b4b0c5b4-7aaf-4644-9b23-5d17397ca03c","null","<p style=""text-align: center;"">+</p>","null","fixation","","","","","","","","","","","","","","","","","","","","",""
"","","","","","html-slider-response","130","1397085","0.0-21.0-0.6","b4b0c5b4-7aaf-4644-9b23-5d17397ca03c","1000","
                  <p style=""text-align: center;"">₪18
                                                <br>25%</p>
                  <p id=""wtp"" style=""text-align:center; margin-top: 0px; margin-bottom: 0px; font-size: 40px"";>&ensp;</p>","-","viewing","0","9","14A,23A","","","","","","","","","","","","","","","","","",""
"","","","","","html-slider-response","131","1398277","0.0-21.0-1.6","b4b0c5b4-7aaf-4644-9b23-5d17397ca03c","1191","
                  <p style=""text-align: center;"">₪18
                                                <br>25%</p>
                  <p id=""wtp"" style=""text-align:center; margin-top: 0px; margin-bottom: 0px; font-size: 40px"";>מוכנים לשלם: <span id=""c_p_y""></span></p>","1","evaluation","44","9","14A,23A","25","18","2","","","","","","","","","","","","","","",""
"","","","","","html-keyboard-response","132","1399654","0.0-21.0-2.6","b4b0c5b4-7aaf-4644-9b23-5d17397ca03c","null","<p style=""text-align: center;"">+</p>","null","fixation","","","","","","","","","","","","","","","","","","","","",""
"","","","","","html-slider-response","133","1400670","0.0-21.0-0.7","b4b0c5b4-7aaf-4644-9b23-5d17397ca03c","1000","
                  <p style=""text-align: center;"">₪79
                                                <br>65%</p>
                  <p id=""wtp"" style=""text-align:center; margin-top: 0px; margin-bottom: 0px; font-size: 40px"";>&ensp;</p>","-","viewing","0","31","8A","","","","","","","","","","","","","","","","","",""
"","","","","","html-slider-response","134","1402669","0.0-21.0-1.7","b4b0c5b4-7aaf-4644-9b23-5d17397ca03c","1998","
                  <p style=""text-align: center;"">₪79
                                                <br>65%</p>
                  <p id=""wtp"" style=""text-align:center; margin-top: 0px; margin-bottom: 0px; font-size: 40px"";>מוכנים לשלם: <span id=""c_p_y""></span></p>","20","evaluation","4","31","8A","65","79","20","","","","","","","","","","","","","","",""
"","","","","","html-keyboard-response","135","1403990","0.0-21.0-2.7","b4b0c5b4-7aaf-4644-9b23-5d17397ca03c","null","<p style=""text-align: center;"">+</p>","null","fixation","","","","","","","","","","","","","","","","","","","","",""
"","","","","","html-slider-response","136","1404997","0.0-21.0-0.8","b4b0c5b4-7aaf-4644-9b23-5d17397ca03c","1000","
                  <p style=""text-align: center;"">₪43
                                                <br>75%</p>
                  <p id=""wtp"" style=""text-align:center; margin-top: 0px; margin-bottom: 0px; font-size: 40px"";>&ensp;</p>","-","viewing","0","18","11B,19B,24A,26A","","","","","","","","","","","","","","","","","",""
"","","","","","html-slider-response","137","1407741","0.0-21.0-1.8","b4b0c5b4-7aaf-4644-9b23-5d17397ca03c","2743","
                  <p style=""text-align: center;"">₪43
                                                <br>75%</p>
                  <p id=""wtp"" style=""text-align:center; margin-top: 0px; margin-bottom: 0px; font-size: 40px"";>מוכנים לשלם: <span id=""c_p_y""></span></p>","11","evaluation","12","18","11B,19B,24A,26A","75","43","11","","","","","","","","","","","","","","",""
"","","","","","html-keyboard-response","138","1408447","0.0-21.0-2.8","b4b0c5b4-7aaf-4644-9b23-5d17397ca03c","null","<p style=""text-align: center;"">+</p>","null","fixation","","","","","","","","","","","","","","","","","","","","",""
"","","","","","html-slider-response","139","1409447","0.0-21.0-0.9","b4b0c5b4-7aaf-4644-9b23-5d17397ca03c","1000","
                  <p style=""text-align: center;"">₪36
                                                <br>60%</p>
                  <p id=""wtp"" style=""text-align:center; margin-top: 0px; margin-bottom: 0px; font-size: 40px"";>&ensp;</p>","-","viewing","0","12","1C,7C,15C","","","","","","","","","","","","","","","","","",""
"","","","","","html-slider-response","140","1412302","0.0-21.0-1.9","b4b0c5b4-7aaf-4644-9b23-5d17397ca03c","2854","
                  <p style=""text-align: center;"">₪36
                                                <br>60%</p>
                  <p id=""wtp"" style=""text-align:center; margin-top: 0px; margin-bottom: 0px; font-size: 40px"";>מוכנים לשלם: <span id=""c_p_y""></span></p>","14","evaluation","23","12","1C,7C,15C","60","36","14","","","","","","","","","","","","","","",""
"","","","","","html-keyboard-response","141","1412987","0.0-21.0-2.9","b4b0c5b4-7aaf-4644-9b23-5d17397ca03c","null","<p style=""text-align: center;"">+</p>","null","fixation","","","","","","","","","","","","","","","","","","","","",""
"","","","","","html-slider-response","142","1413996","0.0-21.0-0.10","b4b0c5b4-7aaf-4644-9b23-5d17397ca03c","1000","
                  <p style=""text-align: center;"">₪11
                                                <br>75%</p>
                  <p id=""wtp"" style=""text-align:center; margin-top: 0px; margin-bottom: 0px; font-size: 40px"";>&ensp;</p>","-","viewing","0","7","6B,18B,22C,24C,29A","","","","","","","","","","","","","","","","","",""
"","","","","","html-slider-response","143","1417110","0.0-21.0-1.10","b4b0c5b4-7aaf-4644-9b23-5d17397ca03c","3112","
                  <p style=""text-align: center;"">₪11
                                                <br>75%</p>
                  <p id=""wtp"" style=""text-align:center; margin-top: 0px; margin-bottom: 0px; font-size: 40px"";>מוכנים לשלם: <span id=""c_p_y""></span></p>","1","evaluation","78","7","6B,18B,22C,24C,29A","75","11","2","","","","","","","","","","","","","","",""
"","","","","","html-keyboard-response","144","1418205","0.0-21.0-2.10","b4b0c5b4-7aaf-4644-9b23-5d17397ca03c","null","<p style=""text-align: center;"">+</p>","null","fixation","","","","","","","","","","","","","","","","","","","","",""
"","","","","","html-slider-response","145","1419217","0.0-21.0-0.11","b4b0c5b4-7aaf-4644-9b23-5d17397ca03c","1000","
                  <p style=""text-align: center;"">₪71
                                                <br>55%</p>
                  <p id=""wtp"" style=""text-align:center; margin-top: 0px; margin-bottom: 0px; font-size: 40px"";>&ensp;</p>","-","viewing","0","27","5B,18A","","","","","","","","","","","","","","","","","",""
"","","","","","html-slider-response","146","1421110","0.0-21.0-1.11","b4b0c5b4-7aaf-4644-9b23-5d17397ca03c","1893","
                  <p style=""text-align: center;"">₪71
                                                <br>55%</p>
                  <p id=""wtp"" style=""text-align:center; margin-top: 0px; margin-bottom: 0px; font-size: 40px"";>מוכנים לשלם: <span id=""c_p_y""></span></p>","20","evaluation","44","27","5B,18A","55","71","20","","","","","","","","","","","","","","",""
"","","","","","html-keyboard-response","147","1422021","0.0-21.0-2.11","b4b0c5b4-7aaf-4644-9b23-5d17397ca03c","null","<p style=""text-align: center;"">+</p>","null","fixation","","","","","","","","","","","","","","","","","","","","",""
"","","","","","html-slider-response","148","1423033","0.0-21.0-0.12","b4b0c5b4-7aaf-4644-9b23-5d17397ca03c","1000","
                  <p style=""text-align: center;"">₪39
                                                <br>65%</p>
                  <p id=""wtp"" style=""text-align:center; margin-top: 0px; margin-bottom: 0px; font-size: 40px"";>&ensp;</p>","-","viewing","0","16","1A,15A,26C","","","","","","","","","","","","","","","","","",""
"","","","","","html-slider-response","149","1426038","0.0-21.0-1.12","b4b0c5b4-7aaf-4644-9b23-5d17397ca03c","3003","
                  <p style=""text-align: center;"">₪39
                                                <br>65%</p>
                  <p id=""wtp"" style=""text-align:center; margin-top: 0px; margin-bottom: 0px; font-size: 40px"";>מוכנים לשלם: <span id=""c_p_y""></span></p>","6","evaluation","19","16","1A,15A,26C","65","39","7","","","","","","","","","","","","","","",""
"","","","","","html-keyboard-response","150","1427394","0.0-21.0-2.12","b4b0c5b4-7aaf-4644-9b23-5d17397ca03c","null","<p style=""text-align: center;"">+</p>","null","fixation","","","","","","","","","","","","","","","","","","","","",""
"","","","","","html-slider-response","151","1428410","0.0-21.0-0.13","b4b0c5b4-7aaf-4644-9b23-5d17397ca03c","1000","
                  <p style=""text-align: center;"">₪64
                                                <br>25%</p>
                  <p id=""wtp"" style=""text-align:center; margin-top: 0px; margin-bottom: 0px; font-size: 40px"";>&ensp;</p>","-","viewing","0","24","6A,21A","","","","","","","","","","","","","","","","","",""
"","","","","","html-slider-response","152","1431742","0.0-21.0-1.13","b4b0c5b4-7aaf-4644-9b23-5d17397ca03c","3331","
                  <p style=""text-align: center;"">₪64
                                                <br>25%</p>
                  <p id=""wtp"" style=""text-align:center; margin-top: 0px; margin-bottom: 0px; font-size: 40px"";>מוכנים לשלם: <span id=""c_p_y""></span></p>","7","evaluation","16","24","6A,21A","25","64","8","","","","","","","","","","","","","","",""
"","","","","","html-keyboard-response","153","1433135","0.0-21.0-2.13","b4b0c5b4-7aaf-4644-9b23-5d17397ca03c","null","<p style=""text-align: center;"">+</p>","null","fixation","","","","","","","","","","","","","","","","","","","","",""
"","","","","","html-slider-response","154","1434152","0.0-21.0-0.14","b4b0c5b4-7aaf-4644-9b23-5d17397ca03c","1000","
                  <p style=""text-align: center;"">₪76
                                                <br>65%</p>
                  <p id=""wtp"" style=""text-align:center; margin-top: 0px; margin-bottom: 0px; font-size: 40px"";>&ensp;</p>","-","viewing","0","29","8C,19A,24B","","","","","","","","","","","","","","","","","",""
"","","","","","html-slider-response","155","1437054","0.0-21.0-1.14","b4b0c5b4-7aaf-4644-9b23-5d17397ca03c","2901","
                  <p style=""text-align: center;"">₪76
                                                <br>65%</p>
                  <p id=""wtp"" style=""text-align:center; margin-top: 0px; margin-bottom: 0px; font-size: 40px"";>מוכנים לשלם: <span id=""c_p_y""></span></p>","20","evaluation","14","29","8C,19A,24B","65","76","20","","","","","","","","","","","","","","",""
"","","","","","html-keyboard-response","156","1438545","0.0-21.0-2.14","b4b0c5b4-7aaf-4644-9b23-5d17397ca03c","null","<p style=""text-align: center;"">+</p>","null","fixation","","","","","","","","","","","","","","","","","","","","",""
"","","","","","html-slider-response","157","1439547","0.0-21.0-0.15","b4b0c5b4-7aaf-4644-9b23-5d17397ca03c","1000","
                  <p style=""text-align: center;"">₪43
                                                <br>60%</p>
                  <p id=""wtp"" style=""text-align:center; margin-top: 0px; margin-bottom: 0px; font-size: 40px"";>&ensp;</p>","-","viewing","0","17","2A,7A,9A,15B","","","","","","","","","","","","","","","","","",""
"","","","","","html-slider-response","158","1441358","0.0-21.0-1.15","b4b0c5b4-7aaf-4644-9b23-5d17397ca03c","1809","
                  <p style=""text-align: center;"">₪43
                                                <br>60%</p>
                  <p id=""wtp"" style=""text-align:center; margin-top: 0px; margin-bottom: 0px; font-size: 40px"";>מוכנים לשלם: <span id=""c_p_y""></span></p>","19","evaluation","31","17","2A,7A,9A,15B","60","43","20","","","","","","","","","","","","","","",""
"","","","","","html-keyboard-response","159","1442247","0.0-21.0-2.15","b4b0c5b4-7aaf-4644-9b23-5d17397ca03c","null","<p style=""text-align: center;"">+</p>","null","fixation","","","","","","","","","","","","","","","","","","","","",""
"","","","","","html-slider-response","160","1443252","0.0-21.0-0.16","b4b0c5b4-7aaf-4644-9b23-5d17397ca03c","1000","
                  <p style=""text-align: center;"">₪36
                                                <br>75%</p>
                  <p id=""wtp"" style=""text-align:center; margin-top: 0px; margin-bottom: 0px; font-size: 40px"";>&ensp;</p>","-","viewing","0","14","4B,5A,13B,16B","","","","","","","","","","","","","","","","","",""
"","","","","","html-slider-response","161","1446701","0.0-21.0-1.16","b4b0c5b4-7aaf-4644-9b23-5d17397ca03c","3448","
                  <p style=""text-align: center;"">₪36
                                                <br>75%</p>
                  <p id=""wtp"" style=""text-align:center; margin-top: 0px; margin-bottom: 0px; font-size: 40px"";>מוכנים לשלם: <span id=""c_p_y""></span></p>","9","evaluation","42","14","4B,5A,13B,16B","75","36","10","","","","","","","","","","","","","","",""
"","","","","","html-keyboard-response","162","1447315","0.0-21.0-2.16","b4b0c5b4-7aaf-4644-9b23-5d17397ca03c","null","<p style=""text-align: center;"">+</p>","null","fixation","","","","","","","","","","","","","","","","","","","","",""
"","","","","","html-slider-response","163","1448323","0.0-21.0-0.17","b4b0c5b4-7aaf-4644-9b23-5d17397ca03c","1000","
                  <p style=""text-align: center;"">₪4
                                                <br>25%</p>
                  <p id=""wtp"" style=""text-align:center; margin-top: 0px; margin-bottom: 0px; font-size: 40px"";>&ensp;</p>","-","viewing","0","1","6C,29B,30C","","","","","","","","","","","","","","","","","",""
"","","","","","html-slider-response","164","1450510","0.0-21.0-1.17","b4b0c5b4-7aaf-4644-9b23-5d17397ca03c","2187","
                  <p style=""text-align: center;"">₪4
                                                <br>25%</p>
                  <p id=""wtp"" style=""text-align:center; margin-top: 0px; margin-bottom: 0px; font-size: 40px"";>מוכנים לשלם: <span id=""c_p_y""></span></p>","1","evaluation","47","1","6C,29B,30C","25","4","1","","","","","","","","","","","","","","",""
"","","","","","html-keyboard-response","165","1451168","0.0-21.0-2.17","b4b0c5b4-7aaf-4644-9b23-5d17397ca03c","null","<p style=""text-align: center;"">+</p>","null","fixation","","","","","","","","","","","","","","","","","","","","",""
"","","","","","html-slider-response","166","1452178","0.0-21.0-0.18","b4b0c5b4-7aaf-4644-9b23-5d17397ca03c","1000","
                  <p style=""text-align: center;"">₪11
                                                <br>45%</p>
                  <p id=""wtp"" style=""text-align:center; margin-top: 0px; margin-bottom: 0px; font-size: 40px"";>&ensp;</p>","-","viewing","0","6","14B,21C,25C","","","","","","","","","","","","","","","","","",""
"","","","","","html-slider-response","167","1456094","0.0-21.0-1.18","b4b0c5b4-7aaf-4644-9b23-5d17397ca03c","3915","
                  <p style=""text-align: center;"">₪11
                                                <br>45%</p>
                  <p id=""wtp"" style=""text-align:center; margin-top: 0px; margin-bottom: 0px; font-size: 40px"";>מוכנים לשלם: <span id=""c_p_y""></span></p>","13","evaluation","2","6","14B,21C,25C","45","11","13","","","","","","","","","","","","","","",""
"","","","","","html-keyboard-response","168","1457494","0.0-21.0-2.18","b4b0c5b4-7aaf-4644-9b23-5d17397ca03c","null","<p style=""text-align: center;"">+</p>","null","fixation","","","","","","","","","","","","","","","","","","","","",""
"","","","","","html-slider-response","169","1458496","0.0-21.0-0.19","b4b0c5b4-7aaf-4644-9b23-5d17397ca03c","1000","
                  <p style=""text-align: center;"">₪36
                                                <br>70%</p>
                  <p id=""wtp"" style=""text-align:center; margin-top: 0px; margin-bottom: 0px; font-size: 40px"";>&ensp;</p>","-","viewing","0","13","3A,5C,10B","","","","","","","","","","","","","","","","","",""
"","","","","","html-slider-response","170","1461814","0.0-21.0-1.19","b4b0c5b4-7aaf-4644-9b23-5d17397ca03c","3318","
                  <p style=""text-align: center;"">₪36
                                                <br>70%</p>
                  <p id=""wtp"" style=""text-align:center; margin-top: 0px; margin-bottom: 0px; font-size: 40px"";>מוכנים לשלם: <span id=""c_p_y""></span></p>","17","evaluation","36","13","3A,5C,10B","70","36","17","","","","","","","","","","","","","","",""
"","","","","","html-keyboard-response","171","1463122","0.0-21.0-2.19","b4b0c5b4-7aaf-4644-9b23-5d17397ca03c","null","<p style=""text-align: center;"">+</p>","null","fixation","","","","","","","","","","","","","","","","","","","","",""
"","","","","","html-slider-response","172","1464127","0.0-21.0-0.20","b4b0c5b4-7aaf-4644-9b23-5d17397ca03c","1000","
                  <p style=""text-align: center;"">₪11
                                                <br>20%</p>
                  <p id=""wtp"" style=""text-align:center; margin-top: 0px; margin-bottom: 0px; font-size: 40px"";>&ensp;</p>","-","viewing","0","4","12C,17C,23C,28C","","","","","","","","","","","","","","","","","",""
"","","","","","html-slider-response","173","1465222","0.0-21.0-1.20","b4b0c5b4-7aaf-4644-9b23-5d17397ca03c","1094","
                  <p style=""text-align: center;"">₪11
                                                <br>20%</p>
                  <p id=""wtp"" style=""text-align:center; margin-top: 0px; margin-bottom: 0px; font-size: 40px"";>מוכנים לשלם: <span id=""c_p_y""></span></p>","1","evaluation","76","4","12C,17C,23C,28C","20","11","1","","","","","","","","","","","","","","",""
"","","","","","html-keyboard-response","174","1466379","0.0-21.0-2.20","b4b0c5b4-7aaf-4644-9b23-5d17397ca03c","null","<p style=""text-align: center;"">+</p>","null","fixation","","","","","","","","","","","","","","","","","","","","",""
"","","","","","html-slider-response","175","1467388","0.0-21.0-0.21","b4b0c5b4-7aaf-4644-9b23-5d17397ca03c","1000","
                  <p style=""text-align: center;"">₪4
                                                <br>50%</p>
                  <p id=""wtp"" style=""text-align:center; margin-top: 0px; margin-bottom: 0px; font-size: 40px"";>&ensp;</p>","-","viewing","0","2","4C,17B","","","","","","","","","","","","","","","","","",""
"","","","","","html-slider-response","176","1468326","0.0-21.0-1.21","b4b0c5b4-7aaf-4644-9b23-5d17397ca03c","936","
                  <p style=""text-align: center;"">₪4
                                                <br>50%</p>
                  <p id=""wtp"" style=""text-align:center; margin-top: 0px; margin-bottom: 0px; font-size: 40px"";>מוכנים לשלם: <span id=""c_p_y""></span></p>","1","evaluation","74","2","4C,17B","50","4","1","","","","","","","","","","","","","","",""
"","","","","","html-keyboard-response","177","1469488","0.0-21.0-2.21","b4b0c5b4-7aaf-4644-9b23-5d17397ca03c","null","<p style=""text-align: center;"">+</p>","null","fixation","","","","","","","","","","","","","","","","","","","","",""
"","","","","","html-slider-response","178","1470489","0.0-21.0-0.22","b4b0c5b4-7aaf-4644-9b23-5d17397ca03c","1000","
                  <p style=""text-align: center;"">₪16
                                                <br>20%</p>
                  <p id=""wtp"" style=""text-align:center; margin-top: 0px; margin-bottom: 0px; font-size: 40px"";>&ensp;</p>","-","viewing","0","8","14C,17A,20C,27A","","","","","","","","","","","","","","","","","",""
"","","","","","html-slider-response","179","1472342","0.0-21.0-1.22","b4b0c5b4-7aaf-4644-9b23-5d17397ca03c","1853","
                  <p style=""text-align: center;"">₪16
                                                <br>20%</p>
                  <p id=""wtp"" style=""text-align:center; margin-top: 0px; margin-bottom: 0px; font-size: 40px"";>מוכנים לשלם: <span id=""c_p_y""></span></p>","3","evaluation","7","8","14C,17A,20C,27A","20","16","4","","","","","","","","","","","","","","",""
"","","","","","html-keyboard-response","180","1472866","0.0-21.0-2.22","b4b0c5b4-7aaf-4644-9b23-5d17397ca03c","null","<p style=""text-align: center;"">+</p>","null","fixation","","","","","","","","","","","","","","","","","","","","",""
"","","","","","html-slider-response","181","1473881","0.0-21.0-0.23","b4b0c5b4-7aaf-4644-9b23-5d17397ca03c","1000","
                  <p style=""text-align: center;"">₪79
                                                <br>40%</p>
                  <p id=""wtp"" style=""text-align:center; margin-top: 0px; margin-bottom: 0px; font-size: 40px"";>&ensp;</p>","-","viewing","0","30","9B","","","","","","","","","","","","","","","","","",""
"","","","","","html-slider-response","182","1476222","0.0-21.0-1.23","b4b0c5b4-7aaf-4644-9b23-5d17397ca03c","2340","
                  <p style=""text-align: center;"">₪79
                                                <br>40%</p>
                  <p id=""wtp"" style=""text-align:center; margin-top: 0px; margin-bottom: 0px; font-size: 40px"";>מוכנים לשלם: <span id=""c_p_y""></span></p>","29","evaluation","65","30","9B","40","79","29","","","","","","","","","","","","","","",""
"","","","","","html-keyboard-response","183","1476905","0.0-21.0-2.23","b4b0c5b4-7aaf-4644-9b23-5d17397ca03c","null","<p style=""text-align: center;"">+</p>","null","fixation","","","","","","","","","","","","","","","","","","","","",""
"","","","","","html-slider-response","184","1477908","0.0-21.0-0.24","b4b0c5b4-7aaf-4644-9b23-5d17397ca03c","1000","
                  <p style=""text-align: center;"">₪11
                                                <br>25%</p>
                  <p id=""wtp"" style=""text-align:center; margin-top: 0px; margin-bottom: 0px; font-size: 40px"";>&ensp;</p>","-","viewing","0","5","12A,27B,28B,30B","","","","","","","","","","","","","","","","","",""
"","","","","","html-slider-response","185","1481614","0.0-21.0-1.24","b4b0c5b4-7aaf-4644-9b23-5d17397ca03c","3705","
                  <p style=""text-align: center;"">₪11
                                                <br>25%</p>
                  <p id=""wtp"" style=""text-align:center; margin-top: 0px; margin-bottom: 0px; font-size: 40px"";>מוכנים לשלם: <span id=""c_p_y""></span></p>","3","evaluation","25","5","12A,27B,28B,30B","25","11","3","","","","","","","","","","","","","","",""
"","","","","","html-keyboard-response","186","1482657","0.0-21.0-2.24","b4b0c5b4-7aaf-4644-9b23-5d17397ca03c","null","<p style=""text-align: center;"">+</p>","null","fixation","","","","","","","","","","","","","","","","","","","","",""
"","","","","","html-slider-response","187","1483663","0.0-21.0-0.25","b4b0c5b4-7aaf-4644-9b23-5d17397ca03c","1000","
                  <p style=""text-align: center;"">₪61
                                                <br>45%</p>
                  <p id=""wtp"" style=""text-align:center; margin-top: 0px; margin-bottom: 0px; font-size: 40px"";>&ensp;</p>","-","viewing","0","22","10A,11A","","","","","","","","","","","","","","","","","",""
"","","","","","html-slider-response","188","1486678","0.0-21.0-1.25","b4b0c5b4-7aaf-4644-9b23-5d17397ca03c","3014","
                  <p style=""text-align: center;"">₪61
                                                <br>45%</p>
                  <p id=""wtp"" style=""text-align:center; margin-top: 0px; margin-bottom: 0px; font-size: 40px"";>מוכנים לשלם: <span id=""c_p_y""></span></p>","12","evaluation","3","22","10A,11A","45","61","12","","","","","","","","","","","","","","",""
"","","","","","html-keyboard-response","189","1487985","0.0-21.0-2.25","b4b0c5b4-7aaf-4644-9b23-5d17397ca03c","null","<p style=""text-align: center;"">+</p>","null","fixation","","","","","","","","","","","","","","","","","","","","",""
"","","","","","html-slider-response","190","1488987","0.0-21.0-0.26","b4b0c5b4-7aaf-4644-9b23-5d17397ca03c","1000","
                  <p style=""text-align: center;"">₪71
                                                <br>45%</p>
                  <p id=""wtp"" style=""text-align:center; margin-top: 0px; margin-bottom: 0px; font-size: 40px"";>&ensp;</p>","-","viewing","0","26","2B,16A","","","","","","","","","","","","","","","","","",""
"","","","","","html-slider-response","191","1489662","0.0-21.0-1.26","b4b0c5b4-7aaf-4644-9b23-5d17397ca03c","674","
                  <p style=""text-align: center;"">₪71
                                                <br>45%</p>
                  <p id=""wtp"" style=""text-align:center; margin-top: 0px; margin-bottom: 0px; font-size: 40px"";>מוכנים לשלם: <span id=""c_p_y""></span></p>","20","evaluation","43","26","2B,16A","45","71","20","","","","","","","","","","","","","","",""
"","","","","","html-keyboard-response","192","1490588","0.0-21.0-2.26","b4b0c5b4-7aaf-4644-9b23-5d17397ca03c","null","<p style=""text-align: center;"">+</p>","null","fixation","","","","","","","","","","","","","","","","","","","","",""
"","","","","","html-slider-response","193","1491597","0.0-21.0-0.27","b4b0c5b4-7aaf-4644-9b23-5d17397ca03c","1000","
                  <p style=""text-align: center;"">₪36
                                                <br>30%</p>
                  <p id=""wtp"" style=""text-align:center; margin-top: 0px; margin-bottom: 0px; font-size: 40px"";>&ensp;</p>","-","viewing","0","11","3C,20A,22A","","","","","","","","","","","","","","","","","",""
"","","","","","html-slider-response","194","1494302","0.0-21.0-1.27","b4b0c5b4-7aaf-4644-9b23-5d17397ca03c","2704","
                  <p style=""text-align: center;"">₪36
                                                <br>30%</p>
                  <p id=""wtp"" style=""text-align:center; margin-top: 0px; margin-bottom: 0px; font-size: 40px"";>מוכנים לשלם: <span id=""c_p_y""></span></p>","5","evaluation","74","11","3C,20A,22A","30","36","6","","","","","","","","","","","","","","",""
"","","","","","html-keyboard-response","195","1495667","0.0-21.0-2.27","b4b0c5b4-7aaf-4644-9b23-5d17397ca03c","null","<p style=""text-align: center;"">+</p>","null","fixation","","","","","","","","","","","","","","","","","","","","",""
"","","","","","html-slider-response","196","1496671","0.0-21.0-0.28","b4b0c5b4-7aaf-4644-9b23-5d17397ca03c","1000","
                  <p style=""text-align: center;"">₪39
                                                <br>60%</p>
                  <p id=""wtp"" style=""text-align:center; margin-top: 0px; margin-bottom: 0px; font-size: 40px"";>&ensp;</p>","-","viewing","0","15","9C,25B","","","","","","","","","","","","","","","","","",""
"","","","","","html-slider-response","197","1499350","0.0-21.0-1.28","b4b0c5b4-7aaf-4644-9b23-5d17397ca03c","2678","
                  <p style=""text-align: center;"">₪39
                                                <br>60%</p>
                  <p id=""wtp"" style=""text-align:center; margin-top: 0px; margin-bottom: 0px; font-size: 40px"";>מוכנים לשלם: <span id=""c_p_y""></span></p>","12","evaluation","48","15","9C,25B","60","39","13","","","","","","","","","","","","","","",""
"","","","","","html-keyboard-response","198","1500307","0.0-21.0-2.28","b4b0c5b4-7aaf-4644-9b23-5d17397ca03c","null","<p style=""text-align: center;"">+</p>","null","fixation","","","","","","","","","","","","","","","","","","","","",""
"","","","","","html-slider-response","199","1501313","0.0-21.0-0.29","b4b0c5b4-7aaf-4644-9b23-5d17397ca03c","1000","
                  <p style=""text-align: center;"">₪64
                                                <br>50%</p>
                  <p id=""wtp"" style=""text-align:center; margin-top: 0px; margin-bottom: 0px; font-size: 40px"";>&ensp;</p>","-","viewing","0","25","1B,3B,4A","","","","","","","","","","","","","","","","","",""
"","","","","","html-slider-response","200","1503918","0.0-21.0-1.29","b4b0c5b4-7aaf-4644-9b23-5d17397ca03c","2604","
                  <p style=""text-align: center;"">₪64
                                                <br>50%</p>
                  <p id=""wtp"" style=""text-align:center; margin-top: 0px; margin-bottom: 0px; font-size: 40px"";>מוכנים לשלם: <span id=""c_p_y""></span></p>","20","evaluation","80","25","1B,3B,4A","50","64","20","","","","","","","","","","","","","","",""
"","","","","","html-keyboard-response","201","1505401","0.0-21.0-2.29","b4b0c5b4-7aaf-4644-9b23-5d17397ca03c","null","<p style=""text-align: center;"">+</p>","null","fixation","","","","","","","","","","","","","","","","","","","","",""
"","","","","","html-slider-response","202","1506407","0.0-21.0-0.30","b4b0c5b4-7aaf-4644-9b23-5d17397ca03c","1000","
                  <p style=""text-align: center;"">₪71
                                                <br>75%</p>
                  <p id=""wtp"" style=""text-align:center; margin-top: 0px; margin-bottom: 0px; font-size: 40px"";>&ensp;</p>","-","viewing","0","28","8B","","","","","","","","","","","","","","","","","",""
"","","","","","html-slider-response","203","1509894","0.0-21.0-1.30","b4b0c5b4-7aaf-4644-9b23-5d17397ca03c","3485","
                  <p style=""text-align: center;"">₪71
                                                <br>75%</p>
                  <p id=""wtp"" style=""text-align:center; margin-top: 0px; margin-bottom: 0px; font-size: 40px"";>מוכנים לשלם: <span id=""c_p_y""></span></p>","16","evaluation","80","28","8B","75","71","16","","","","","","","","","","","","","","",""
"","","","","","html-keyboard-response","204","1510548","0.0-21.0-2.30","b4b0c5b4-7aaf-4644-9b23-5d17397ca03c","null","<p style=""text-align: center;"">+</p>","null","fixation","","","","","","","","","","","","","","","","","","","","",""
"","","","","","html-keyboard-response","205","1511551","0.0-22.0","b4b0c5b4-7aaf-4644-9b23-5d17397ca03c","null","<p style=""text-align: center;"">+</p>","null","fixation","","","","","","","","","","","","","","","","","","","","",""
"","","","","","html-keyboard-response","206","1512861","0.0-23.0","b4b0c5b4-7aaf-4644-9b23-5d17397ca03c","null","<p>הפסקה.
          <br>לחצו כדי להמשיך.</p>","1","scan_wait","","","","","","","","","","","","","","","","","","","","",""
"","","","","","html-keyboard-response","207","1513875","0.0-24.0","b4b0c5b4-7aaf-4644-9b23-5d17397ca03c","null","<p style=""text-align: center;"">+</p>","null","fixation","","","","","","","","","","","","","","","","","","","","",""
"","","","","","html-slider-response","208","1514892","0.0-25.0-0.0","b4b0c5b4-7aaf-4644-9b23-5d17397ca03c","1000","
                  <p style=""text-align: center;"">₪43
                                                <br>60%</p>
                  <p id=""wtp"" style=""text-align:center; margin-top: 0px; margin-bottom: 0px; font-size: 40px"";>&ensp;</p>","-","viewing","0","17","2A,7A,9A,15B","","","","","","","","","","","","","","","","","",""
"","","","","","html-slider-response","209","1517862","0.0-25.0-1.0","b4b0c5b4-7aaf-4644-9b23-5d17397ca03c","2970","
                  <p style=""text-align: center;"">₪43
                                                <br>60%</p>
                  <p id=""wtp"" style=""text-align:center; margin-top: 0px; margin-bottom: 0px; font-size: 40px"";>מוכנים לשלם: <span id=""c_p_y""></span></p>","21","evaluation","13","17","2A,7A,9A,15B","60","43","21","","","","","","","","","","","","","","",""
"","","","","","html-keyboard-response","210","1518532","0.0-25.0-2.0","b4b0c5b4-7aaf-4644-9b23-5d17397ca03c","null","<p style=""text-align: center;"">+</p>","null","fixation","","","","","","","","","","","","","","","","","","","","",""
"","","","","","html-slider-response","211","1519534","0.0-25.0-0.1","b4b0c5b4-7aaf-4644-9b23-5d17397ca03c","1000","
                  <p style=""text-align: center;"">₪4
                                                <br>25%</p>
                  <p id=""wtp"" style=""text-align:center; margin-top: 0px; margin-bottom: 0px; font-size: 40px"";>&ensp;</p>","-","viewing","0","1","6C,29B,30C","","","","","","","","","","","","","","","","","",""
"","","","","","html-slider-response","212","1520622","0.0-25.0-1.1","b4b0c5b4-7aaf-4644-9b23-5d17397ca03c","1088","
                  <p style=""text-align: center;"">₪4
                                                <br>25%</p>
                  <p id=""wtp"" style=""text-align:center; margin-top: 0px; margin-bottom: 0px; font-size: 40px"";>מוכנים לשלם: <span id=""c_p_y""></span></p>","1","evaluation","14","1","6C,29B,30C","25","4","1","","","","","","","","","","","","","","",""
"","","","","","html-keyboard-response","213","1521799","0.0-25.0-2.1","b4b0c5b4-7aaf-4644-9b23-5d17397ca03c","null","<p style=""text-align: center;"">+</p>","null","fixation","","","","","","","","","","","","","","","","","","","","",""
"","","","","","html-slider-response","214","1522803","0.0-25.0-0.2","b4b0c5b4-7aaf-4644-9b23-5d17397ca03c","1000","
                  <p style=""text-align: center;"">₪18
                                                <br>25%</p>
                  <p id=""wtp"" style=""text-align:center; margin-top: 0px; margin-bottom: 0px; font-size: 40px"";>&ensp;</p>","-","viewing","0","9","14A,23A","","","","","","","","","","","","","","","","","",""
"","","","","","html-slider-response","215","1524966","0.0-25.0-1.2","b4b0c5b4-7aaf-4644-9b23-5d17397ca03c","2163","
                  <p style=""text-align: center;"">₪18
                                                <br>25%</p>
                  <p id=""wtp"" style=""text-align:center; margin-top: 0px; margin-bottom: 0px; font-size: 40px"";>מוכנים לשלם: <span id=""c_p_y""></span></p>","15","evaluation","27","9","14A,23A","25","18","16","","","","","","","","","","","","","","",""
"","","","","","html-keyboard-response","216","1526132","0.0-25.0-2.2","b4b0c5b4-7aaf-4644-9b23-5d17397ca03c","null","<p style=""text-align: center;"">+</p>","null","fixation","","","","","","","","","","","","","","","","","","","","",""
"","","","","","html-slider-response","217","1527137","0.0-25.0-0.3","b4b0c5b4-7aaf-4644-9b23-5d17397ca03c","1000","
                  <p style=""text-align: center;"">₪36
                                                <br>70%</p>
                  <p id=""wtp"" style=""text-align:center; margin-top: 0px; margin-bottom: 0px; font-size: 40px"";>&ensp;</p>","-","viewing","0","13","3A,5C,10B","","","","","","","","","","","","","","","","","",""
"","","","","","html-slider-response","218","1531123","0.0-25.0-1.3","b4b0c5b4-7aaf-4644-9b23-5d17397ca03c","null","
                  <p style=""text-align: center;"">₪36
                                                <br>70%</p>
                  <p id=""wtp"" style=""text-align:center; margin-top: 0px; margin-bottom: 0px; font-size: 40px"";>מוכנים לשלם: <span id=""c_p_y""></span></p>","null","evaluation","67","13","3A,5C,10B","70","36","21","","","","","","","","","","","","","","",""
"","","","","","html-keyboard-response","219","1532204","0.0-25.0-2.3","b4b0c5b4-7aaf-4644-9b23-5d17397ca03c","null","<p style=""text-align: center;"">+</p>","null","fixation","","","","","","","","","","","","","","","","","","","","",""
"","","","","","html-slider-response","220","1533209","0.0-25.0-0.4","b4b0c5b4-7aaf-4644-9b23-5d17397ca03c","1000","
                  <p style=""text-align: center;"">₪11
                                                <br>45%</p>
                  <p id=""wtp"" style=""text-align:center; margin-top: 0px; margin-bottom: 0px; font-size: 40px"";>&ensp;</p>","-","viewing","0","6","14B,21C,25C","","","","","","","","","","","","","","","","","",""
"","","","","","html-slider-response","221","1535046","0.0-25.0-1.4","b4b0c5b4-7aaf-4644-9b23-5d17397ca03c","1836","
                  <p style=""text-align: center;"">₪11
                                                <br>45%</p>
                  <p id=""wtp"" style=""text-align:center; margin-top: 0px; margin-bottom: 0px; font-size: 40px"";>מוכנים לשלם: <span id=""c_p_y""></span></p>","2","evaluation","17","6","14B,21C,25C","45","11","2","","","","","","","","","","","","","","",""
"","","","","","html-keyboard-response","222","1535923","0.0-25.0-2.4","b4b0c5b4-7aaf-4644-9b23-5d17397ca03c","null","<p style=""text-align: center;"">+</p>","null","fixation","","","","","","","","","","","","","","","","","","","","",""
"","","","","","html-slider-response","223","1536930","0.0-25.0-0.5","b4b0c5b4-7aaf-4644-9b23-5d17397ca03c","1000","
                  <p style=""text-align: center;"">₪76
                                                <br>65%</p>
                  <p id=""wtp"" style=""text-align:center; margin-top: 0px; margin-bottom: 0px; font-size: 40px"";>&ensp;</p>","-","viewing","0","29","8C,19A,24B","","","","","","","","","","","","","","","","","",""
"","","","","","html-slider-response","224","1538454","0.0-25.0-1.5","b4b0c5b4-7aaf-4644-9b23-5d17397ca03c","1523","
                  <p style=""text-align: center;"">₪76
                                                <br>65%</p>
                  <p id=""wtp"" style=""text-align:center; margin-top: 0px; margin-bottom: 0px; font-size: 40px"";>מוכנים לשלם: <span id=""c_p_y""></span></p>","20","evaluation","34","29","8C,19A,24B","65","76","20","","","","","","","","","","","","","","",""
"","","","","","html-keyboard-response","225","1539029","0.0-25.0-2.5","b4b0c5b4-7aaf-4644-9b23-5d17397ca03c","null","<p style=""text-align: center;"">+</p>","null","fixation","","","","","","","","","","","","","","","","","","","","",""
"","","","","","html-slider-response","226","1540035","0.0-25.0-0.6","b4b0c5b4-7aaf-4644-9b23-5d17397ca03c","1000","
                  <p style=""text-align: center;"">₪71
                                                <br>55%</p>
                  <p id=""wtp"" style=""text-align:center; margin-top: 0px; margin-bottom: 0px; font-size: 40px"";>&ensp;</p>","-","viewing","0","27","5B,18A","","","","","","","","","","","","","","","","","",""
"","","","","","html-slider-response","227","1542742","0.0-25.0-1.6","b4b0c5b4-7aaf-4644-9b23-5d17397ca03c","2706","
                  <p style=""text-align: center;"">₪71
                                                <br>55%</p>
                  <p id=""wtp"" style=""text-align:center; margin-top: 0px; margin-bottom: 0px; font-size: 40px"";>מוכנים לשלם: <span id=""c_p_y""></span></p>","18","evaluation","74","27","5B,18A","55","71","19","","","","","","","","","","","","","","",""
"","","","","","html-keyboard-response","228","1543294","0.0-25.0-2.6","b4b0c5b4-7aaf-4644-9b23-5d17397ca03c","null","<p style=""text-align: center;"">+</p>","null","fixation","","","","","","","","","","","","","","","","","","","","",""
"","","","","","html-slider-response","229","1544295","0.0-25.0-0.7","b4b0c5b4-7aaf-4644-9b23-5d17397ca03c","1000","
                  <p style=""text-align: center;"">₪11
                                                <br>20%</p>
                  <p id=""wtp"" style=""text-align:center; margin-top: 0px; margin-bottom: 0px; font-size: 40px"";>&ensp;</p>","-","viewing","0","4","12C,17C,23C,28C","","","","","","","","","","","","","","","","","",""
"","","","","","html-slider-response","230","1545334","0.0-25.0-1.7","b4b0c5b4-7aaf-4644-9b23-5d17397ca03c","1038","
                  <p style=""text-align: center;"">₪11
                                                <br>20%</p>
                  <p id=""wtp"" style=""text-align:center; margin-top: 0px; margin-bottom: 0px; font-size: 40px"";>מוכנים לשלם: <span id=""c_p_y""></span></p>","1","evaluation","18","4","12C,17C,23C,28C","20","11","1","","","","","","","","","","","","","","",""
"","","","","","html-keyboard-response","231","1546454","0.0-25.0-2.7","b4b0c5b4-7aaf-4644-9b23-5d17397ca03c","null","<p style=""text-align: center;"">+</p>","null","fixation","","","","","","","","","","","","","","","","","","","","",""
"","","","","","html-slider-response","232","1547468","0.0-25.0-0.8","b4b0c5b4-7aaf-4644-9b23-5d17397ca03c","1000","
                  <p style=""text-align: center;"">₪11
                                                <br>75%</p>
                  <p id=""wtp"" style=""text-align:center; margin-top: 0px; margin-bottom: 0px; font-size: 40px"";>&ensp;</p>","-","viewing","0","7","6B,18B,22C,24C,29A","","","","","","","","","","","","","","","","","",""
"","","","","","html-slider-response","233","1549662","0.0-25.0-1.8","b4b0c5b4-7aaf-4644-9b23-5d17397ca03c","2193","
                  <p style=""text-align: center;"">₪11
                                                <br>75%</p>
                  <p id=""wtp"" style=""text-align:center; margin-top: 0px; margin-bottom: 0px; font-size: 40px"";>מוכנים לשלם: <span id=""c_p_y""></span></p>","6","evaluation","54","7","6B,18B,22C,24C,29A","75","11","6","","","","","","","","","","","","","","",""
"","","","","","html-keyboard-response","234","1551005","0.0-25.0-2.8","b4b0c5b4-7aaf-4644-9b23-5d17397ca03c","null","<p style=""text-align: center;"">+</p>","null","fixation","","","","","","","","","","","","","","","","","","","","",""
"","","","","","html-slider-response","235","1552013","0.0-25.0-0.9","b4b0c5b4-7aaf-4644-9b23-5d17397ca03c","1000","
                  <p style=""text-align: center;"">₪61
                                                <br>55%</p>
                  <p id=""wtp"" style=""text-align:center; margin-top: 0px; margin-bottom: 0px; font-size: 40px"";>&ensp;</p>","-","viewing","0","23","7B,26B","","","","","","","","","","","","","","","","","",""
"","","","","","html-slider-response","236","1554334","0.0-25.0-1.9","b4b0c5b4-7aaf-4644-9b23-5d17397ca03c","2320","
                  <p style=""text-align: center;"">₪61
                                                <br>55%</p>
                  <p id=""wtp"" style=""text-align:center; margin-top: 0px; margin-bottom: 0px; font-size: 40px"";>מוכנים לשלם: <span id=""c_p_y""></span></p>","20","evaluation","19","23","7B,26B","55","61","20","","","","","","","","","","","","","","",""
"","","","","","html-keyboard-response","237","1555730","0.0-25.0-2.9","b4b0c5b4-7aaf-4644-9b23-5d17397ca03c","null","<p style=""text-align: center;"">+</p>","null","fixation","","","","","","","","","","","","","","","","","","","","",""
"","","","","","html-slider-response","238","1556745","0.0-25.0-0.10","b4b0c5b4-7aaf-4644-9b23-5d17397ca03c","1000","
                  <p style=""text-align: center;"">₪61
                                                <br>45%</p>
                  <p id=""wtp"" style=""text-align:center; margin-top: 0px; margin-bottom: 0px; font-size: 40px"";>&ensp;</p>","-","viewing","0","22","10A,11A","","","","","","","","","","","","","","","","","",""
"","","","","","html-slider-response","239","1559014","0.0-25.0-1.10","b4b0c5b4-7aaf-4644-9b23-5d17397ca03c","2269","
                  <p style=""text-align: center;"">₪61
                                                <br>45%</p>
                  <p id=""wtp"" style=""text-align:center; margin-top: 0px; margin-bottom: 0px; font-size: 40px"";>מוכנים לשלם: <span id=""c_p_y""></span></p>","19","evaluation","74","22","10A,11A","45","61","19","","","","","","","","","","","","","","",""
"","","","","","html-keyboard-response","240","1559819","0.0-25.0-2.10","b4b0c5b4-7aaf-4644-9b23-5d17397ca03c","null","<p style=""text-align: center;"">+</p>","null","fixation","","","","","","","","","","","","","","","","","","","","",""
"","","","","","html-slider-response","241","1560831","0.0-25.0-0.11","b4b0c5b4-7aaf-4644-9b23-5d17397ca03c","1000","
                  <p style=""text-align: center;"">₪43
                                                <br>75%</p>
                  <p id=""wtp"" style=""text-align:center; margin-top: 0px; margin-bottom: 0px; font-size: 40px"";>&ensp;</p>","-","viewing","0","18","11B,19B,24A,26A","","","","","","","","","","","","","","","","","",""
"","","","","","html-slider-response","242","1563150","0.0-25.0-1.11","b4b0c5b4-7aaf-4644-9b23-5d17397ca03c","2318","
                  <p style=""text-align: center;"">₪43
                                                <br>75%</p>
                  <p id=""wtp"" style=""text-align:center; margin-top: 0px; margin-bottom: 0px; font-size: 40px"";>מוכנים לשלם: <span id=""c_p_y""></span></p>","21","evaluation","22","18","11B,19B,24A,26A","75","43","21","","","","","","","","","","","","","","",""
"","","","","","html-keyboard-response","243","1564351","0.0-25.0-2.11","b4b0c5b4-7aaf-4644-9b23-5d17397ca03c","null","<p style=""text-align: center;"">+</p>","null","fixation","","","","","","","","","","","","","","","","","","","","",""
"","","","","","html-slider-response","244","1565366","0.0-25.0-0.12","b4b0c5b4-7aaf-4644-9b23-5d17397ca03c","1000","
                  <p style=""text-align: center;"">₪79
                                                <br>40%</p>
                  <p id=""wtp"" style=""text-align:center; margin-top: 0px; margin-bottom: 0px; font-size: 40px"";>&ensp;</p>","-","viewing","0","30","9B","","","","","","","","","","","","","","","","","",""
"","","","","","html-slider-response","245","1567030","0.0-25.0-1.12","b4b0c5b4-7aaf-4644-9b23-5d17397ca03c","1663","
                  <p style=""text-align: center;"">₪79
                                                <br>40%</p>
                  <p id=""wtp"" style=""text-align:center; margin-top: 0px; margin-bottom: 0px; font-size: 40px"";>מוכנים לשלם: <span id=""c_p_y""></span></p>","20","evaluation","48","30","9B","40","79","20","","","","","","","","","","","","","","",""
"","","","","","html-keyboard-response","246","1568488","0.0-25.0-2.12","b4b0c5b4-7aaf-4644-9b23-5d17397ca03c","null","<p style=""text-align: center;"">+</p>","null","fixation","","","","","","","","","","","","","","","","","","","","",""
"","","","","","html-slider-response","247","1569504","0.0-25.0-0.13","b4b0c5b4-7aaf-4644-9b23-5d17397ca03c","1000","
                  <p style=""text-align: center;"">₪71
                                                <br>45%</p>
                  <p id=""wtp"" style=""text-align:center; margin-top: 0px; margin-bottom: 0px; font-size: 40px"";>&ensp;</p>","-","viewing","0","26","2B,16A","","","","","","","","","","","","","","","","","",""
"","","","","","html-slider-response","248","1572030","0.0-25.0-1.13","b4b0c5b4-7aaf-4644-9b23-5d17397ca03c","2525","
                  <p style=""text-align: center;"">₪71
                                                <br>45%</p>
                  <p id=""wtp"" style=""text-align:center; margin-top: 0px; margin-bottom: 0px; font-size: 40px"";>מוכנים לשלם: <span id=""c_p_y""></span></p>","20","evaluation","63","26","2B,16A","45","71","20","","","","","","","","","","","","","","",""
"","","","","","html-keyboard-response","249","1572661","0.0-25.0-2.13","b4b0c5b4-7aaf-4644-9b23-5d17397ca03c","null","<p style=""text-align: center;"">+</p>","null","fixation","","","","","","","","","","","","","","","","","","","","",""
"","","","","","html-slider-response","250","1573666","0.0-25.0-0.14","b4b0c5b4-7aaf-4644-9b23-5d17397ca03c","1000","
                  <p style=""text-align: center;"">₪39
                                                <br>65%</p>
                  <p id=""wtp"" style=""text-align:center; margin-top: 0px; margin-bottom: 0px; font-size: 40px"";>&ensp;</p>","-","viewing","0","16","1A,15A,26C","","","","","","","","","","","","","","","","","",""
"","","","","","html-slider-response","251","1577206","0.0-25.0-1.14","b4b0c5b4-7aaf-4644-9b23-5d17397ca03c","3540","
                  <p style=""text-align: center;"">₪39
                                                <br>65%</p>
                  <p id=""wtp"" style=""text-align:center; margin-top: 0px; margin-bottom: 0px; font-size: 40px"";>מוכנים לשלם: <span id=""c_p_y""></span></p>","3","evaluation","23","16","1A,15A,26C","65","39","3","","","","","","","","","","","","","","",""
