"success","timeout","failed_images","failed_audio","failed_video","trial_type","trial_index","time_elapsed","internal_node_id","subject_id","rt","stimulus","response","part","slider_start","ID","set_ID","prob","amount","last_location","actual_choice","actual_EV","binary_id","trinary_id","catch","direction","A_key","S_key","D_key","choice_prob","choice_amount","chosen_part","potential_prize_prob","potential_prize_amount","won_prize","total_prize","prize_cost","accuracy"
"true","false","[]","[]","[]","preload","0","104","0.0-0.0","efc2d14c-97b7-4589-bf8a-1208192b43a0","","","","","","","","","","","","","","","","","","","","","","","","","","","",""
"","","","","","html-keyboard-response","1","3062","0.0-1.0","efc2d14c-97b7-4589-bf8a-1208192b43a0","null","
          <h1>שלום וברוכים הבאים!</h1>
          <p>לפניכם ניסוי בקבלת החלטות עם שני חלקים.
          <br><br>לחצו על העכבר כדי להמשיך.</p>","0","example","","","","","","","","","","","","","","","","","","","","","","","",""
"","","","","","html-keyboard-response","2","11534","0.0-2.0","efc2d14c-97b7-4589-bf8a-1208192b43a0","null","
        <h1>חלק 1</h1>
        <p>בקרוב יוצגו בפניכם הגרלות.
        <br>עליכם לבחור את המחיר המירבי שתהיו מוכנים לשלם כדי להשתתף בהגרלה שתוצג.
        <br>יש לכם תקציב של ₪80 לכל הגרלה. 
        <br>נסו להעריך כל הגרלה בנפרד ולחשוב כמה היא שווה עבורכם, ₪80 זמינים לכל הגרלה בנפרד.
        <br><br>לחצו על העכבר כדי להמשיך.</p>","1","instructions","","","","","","","","","","","","","","","","","","","","","","","",""
"","","","","","html-keyboard-response","3","23005","0.0-3.0","efc2d14c-97b7-4589-bf8a-1208192b43a0","null","
        <p>בסוף הניסוי, המחשב יבחר את אחת ההגרלות ויקבע מחיר לכרטיס עבורה. 
        <br>במידה והמחיר שבחרתם נמוך מהמחיר שנבחר על ידי המחשב, לא תשתתפו בהגרלה ותשארו עם מלוא התקציב.
        <br>במידה והמחיר שבחרתם גבוה מהמחיר שנבחר על ידי המחשב, תשלמו את המחיר שנקבע ותשתתפו בהגרלה.
        <br><br>לחצו על העכבר כדי להמשיך.</p>","1","instructions","","","","","","","","","","","","","","","","","","","","","","","",""
"","","","","","html-slider-response","4","38382","0.0-4.0","efc2d14c-97b7-4589-bf8a-1208192b43a0","15267","
        <p style=""font-size: 42px;"">נתחיל עם דוגמא: 
        <br>ההגרלה מטה מציעה 65% סיכוי לזכות ב-₪40 
        <br>&emsp;&emsp;&emsp;&emsp;&emsp;&emsp;&emsp;&emsp;&ensp;35% סיכוי לזכות ב-₪0.
        <br><br>מה המחיר המירבי שתהיו מוכנים לשלם על כרטיס להגרלה זו בין 0 ל-₪80?
        <br>הזיזו את העכבר על פני המלבן ולחצו כדי לבצע בחירה.</p>
        
        <p style=""text-align: center;"">₪40<br>65%</p>

        <p id=""wtp"" style=""text-align:center; margin-top: 0px; margin-bottom: 0px; font-size: 40px"";>מוכנים לשלם: <span id=""c_p_y""></span></p>","35","example","28","","","","","","","","","","","","","","","","","","","","","","",""
"","","","","","html-keyboard-response","5","46382","0.0-5.0","efc2d14c-97b7-4589-bf8a-1208192b43a0","null","<p>יפה מאוד!
                <br> בחרתם שתהיו מוכנים לשלם ₪35 כדי להשתתף בהגרלה:
                <br><p style=""text-align: center;"">₪40<br>65%</p>
                <p>נשמע נכון?
                <br>נניח שהגרלה זו נבחרה בסוף הניסוי.
                <br>כעת המחשב יקבע מחיר עבורה באקראי.
                <br>לחצו על העכבר להמשך.</p>","1","example","","","","","","","","","","","","","","","","","","","","","","","",""
"","","","","","html-keyboard-response","6","55638","0.0-6.0","efc2d14c-97b7-4589-bf8a-1208192b43a0","null","<p>המחשב קבע מחיר: ₪62
                <br>ואתם בחרתם לשלם לכל היותר: ₪35
                <br><br>מכיוון שהמחיר שבחרתם נמוך מהמחיר שנקבע, לא תתשתתפו בהגרלה.
                <br>במקרה כזה, בסוף הניסוי תקבלו את כל התקציב ההתחלתי של ₪80.
                <br><br>לחצו על העכבר להמשך.</p>","1","example","","","","","","","","","","","","","","","","","","","","","","","",""
"","","","","","html-slider-response","7","64141","0.0-7.0","efc2d14c-97b7-4589-bf8a-1208192b43a0","8252","<p style=""font-size: 42px;"">הנה עוד דוגמא:
                <br>ההגרלה מטה מציעה 35% סיכוי לזכות ב-₪18 
                <br>&emsp;&emsp;&emsp;&emsp;&emsp;&emsp;&emsp;&emsp;&ensp;65% סיכוי לזכות ב-₪0.</p>
        
                <p style=""text-align: center;"">₪18<br>35%</p>
                <p id=""wtp"" style=""text-align:center; margin-top: 0px; margin-bottom: 0px; font-size: 40px"";>מוכנים לשלם: <span id=""c_p_y""></span></p>","15","example","54","","","","","","","","","","","","","","","","","","","","","","",""
"","","","","","html-keyboard-response","8","65901","0.0-8.0","efc2d14c-97b7-4589-bf8a-1208192b43a0","null","<p>הייתם מוכנים לשלם  ₪15 כדי להשתתף בהגרלה:
                <p style=""text-align: center;"">₪18<br>35%</p>
                <p>כעת נניח שהמחשב בחר את ההגרלה הזו בסוף הניסוי, וקבע עבורה מחיר.
                <br><br>לחצו על העכבר כדי להמשיך.</p>","1","instructions","","","","","","","","","","","","","","","","","","","","","","","",""
"","","","","","html-keyboard-response","9","78733","0.0-9.0","efc2d14c-97b7-4589-bf8a-1208192b43a0","null","<p>המחשב קבע מחיר להגרלה: ₪8<br>ואתם בחרתם לשלם לכל היותר: ₪15
                <br><br>כעת המחיר שנקבע נמוך מזה שבחרתם, אז תשלמו את המחיר שקבע המחשב (₪8) ותשתתפו בהגרלה.
                <br>במקרה כזה, תסיימו את הניסוי עם תקציב של ₪72 ועם סיכוי לזכות ב-₪18 נוספים מההגרלה.
                <br>כלומר, תוכלו לקבל ₪72 אם לא תזכו בהגרלה, או ₪90 אם תזכו בהגרלה.
                <br><br>לחצו על העכבר להמשך.</p>","1","example","","","","","","","","","","","","","","","","","","","","","","","",""
"","","","","","html-keyboard-response","10","85069","0.0-10.0","efc2d14c-97b7-4589-bf8a-1208192b43a0","null","<p>במהלך הניסוי, קודם תראו את ההגרלה ורק לאחר מכן תוכלו לבחור.
                <p>כמו כן, יהיו לכם מספר שניות מוגבל להגיב.
                <p>בואו ננסה זאת עם ההגרלה הקודמת.
                <br>לחצו על העכבר כדי להמשיך.</p>","1","instructions","","","","","","","","","","","","","","","","","","","","","","","",""
"","","","","","html-slider-response","11","86335","0.0-11.0","efc2d14c-97b7-4589-bf8a-1208192b43a0","1000","
                    <p style=""text-align: center;"">₪18<br>35%</p>
                    <p id=""wtp"" style=""text-align:center; margin-top: 0px; margin-bottom: 0px; font-size: 40px"";>&ensp;</p>","37","instructions","0","","","","","","","","","","","","","","","","","","","","","","",""
"","","","","","html-slider-response","12","90596","0.0-12.0","efc2d14c-97b7-4589-bf8a-1208192b43a0","null","
                    <p style=""text-align: center;"">₪18<br>35%</p>
                    <p id=""wtp"" style=""text-align:center; margin-top: 0px; margin-bottom: 0px; font-size: 40px"";>מוכנים לשלם: <span id=""c_p_y""></span></p>","null","instructions","19","","","","","","","","","","","","","","","","","","","","","","",""
"","","","","","html-keyboard-response","13","93734","0.0-13.0","efc2d14c-97b7-4589-bf8a-1208192b43a0","null","<p>לא הגבתם בזמן המוקצב לתגובה. 
                <br>נסו להגיב מהר יותר בפעם הבאה.
                <br><br>לחצו על העכבר כדי להמשיך.</p>","1","instructions","","","","","","","","","","","","","","","","","","","","","","","",""
"","","","","","html-slider-response","14","96966","0.0-14.0-0.0","efc2d14c-97b7-4589-bf8a-1208192b43a0","2979","
                    <p style=""text-align: center;"">₪40<br>65%</p>
                    <p id=""wtp"" style=""text-align:center; margin-top: 0px; margin-bottom: 0px; font-size: 40px"";>מוכנים לשלם: <span id=""c_p_y""></span></p>","33","instructions","61","","","","","","","","","","","","","","","","","","","","","","",""
"","","","","","html-keyboard-response","15","99637","0.0-14.0-1.0","efc2d14c-97b7-4589-bf8a-1208192b43a0","null","<p>יפה. הפעם בחרתם לשלם לכל היותר ₪33.
                <br><br>לחצו על העכבר כדי להמשיך.</p>","1","instructions","","","","","","","","","","","","","","","","","","","","","","","",""
"","","","","","html-keyboard-response","16","107149","0.0-15.0","efc2d14c-97b7-4589-bf8a-1208192b43a0","null","<p>כעת נתחיל את הניסוי.
                <br><br>אתם תראו הגרלות ותתבקשו לבחור כמה תהיו מוכנים לשלם כדי להשתתף בהן.
                <br>יש לכם תקציב של ₪80 עבור כל הגרלה.
                <br>בסוף הניסוי הגרלה אחת תבחר באקראי ותשוחק.
                <br><br>לחצו על העכבר כדי להתחיל את הניסוי.</p>","1","instructions","","","","","","","","","","","","","","","","","","","","","","","",""
"","","","","","html-keyboard-response","17","108406","0.0-16.0","efc2d14c-97b7-4589-bf8a-1208192b43a0","null","<p style=""text-align: center;"">+</p>","null","fixation","","","","","","","","","","","","","","","","","","","","","","","",""
"","","","","","html-slider-response","18","109422","0.0-17.0-0.0","efc2d14c-97b7-4589-bf8a-1208192b43a0","1000","
                  <p style=""text-align: center;"">₪71
                                                <br>55%</p>
                  <p id=""wtp"" style=""text-align:center; margin-top: 0px; margin-bottom: 0px; font-size: 40px"";>&ensp;</p>","-","viewing","0","27","5B,18A","","","","","","","","","","","","","","","","","","","","",""
"","","","","","html-slider-response","19","111909","0.0-17.0-1.0","efc2d14c-97b7-4589-bf8a-1208192b43a0","2486","
                  <p style=""text-align: center;"">₪71
                                                <br>55%</p>
                  <p id=""wtp"" style=""text-align:center; margin-top: 0px; margin-bottom: 0px; font-size: 40px"";>מוכנים לשלם: <span id=""c_p_y""></span></p>","60","evaluation","67","27","5B,18A","55","71","60","","","","","","","","","","","","","","","","","",""
"","","","","","html-keyboard-response","20","113254","0.0-17.0-2.0","efc2d14c-97b7-4589-bf8a-1208192b43a0","null","<p style=""text-align: center;"">+</p>","null","fixation","","","","","","","","","","","","","","","","","","","","","","","",""
"","","","","","html-slider-response","21","114262","0.0-17.0-0.1","efc2d14c-97b7-4589-bf8a-1208192b43a0","1000","
                  <p style=""text-align: center;"">₪61
                                                <br>45%</p>
                  <p id=""wtp"" style=""text-align:center; margin-top: 0px; margin-bottom: 0px; font-size: 40px"";>&ensp;</p>","-","viewing","0","22","10A,11A","","","","","","","","","","","","","","","","","","","","",""
"","","","","","html-slider-response","22","118274","0.0-17.0-1.1","efc2d14c-97b7-4589-bf8a-1208192b43a0","null","
                  <p style=""text-align: center;"">₪61
                                                <br>45%</p>
                  <p id=""wtp"" style=""text-align:center; margin-top: 0px; margin-bottom: 0px; font-size: 40px"";>מוכנים לשלם: <span id=""c_p_y""></span></p>","null","evaluation","71","22","10A,11A","45","61","40","","","","","","","","","","","","","","","","","",""
"","","","","","html-keyboard-response","23","119609","0.0-17.0-2.1","efc2d14c-97b7-4589-bf8a-1208192b43a0","null","<p style=""text-align: center;"">+</p>","null","fixation","","","","","","","","","","","","","","","","","","","","","","","",""
"","","","","","html-slider-response","24","120617","0.0-17.0-0.2","efc2d14c-97b7-4589-bf8a-1208192b43a0","1000","
                  <p style=""text-align: center;"">₪71
                                                <br>75%</p>
                  <p id=""wtp"" style=""text-align:center; margin-top: 0px; margin-bottom: 0px; font-size: 40px"";>&ensp;</p>","-","viewing","0","28","8B","","","","","","","","","","","","","","","","","","","","",""
"","","","","","html-slider-response","25","123349","0.0-17.0-1.2","efc2d14c-97b7-4589-bf8a-1208192b43a0","2731","
                  <p style=""text-align: center;"">₪71
                                                <br>75%</p>
                  <p id=""wtp"" style=""text-align:center; margin-top: 0px; margin-bottom: 0px; font-size: 40px"";>מוכנים לשלם: <span id=""c_p_y""></span></p>","72","evaluation","31","28","8B","75","71","72","","","","","","","","","","","","","","","","","",""
"","","","","","html-keyboard-response","26","124700","0.0-17.0-2.2","efc2d14c-97b7-4589-bf8a-1208192b43a0","null","<p style=""text-align: center;"">+</p>","null","fixation","","","","","","","","","","","","","","","","","","","","","","","",""
"","","","","","html-slider-response","27","125702","0.0-17.0-0.3","efc2d14c-97b7-4589-bf8a-1208192b43a0","1000","
                  <p style=""text-align: center;"">₪43
                                                <br>75%</p>
                  <p id=""wtp"" style=""text-align:center; margin-top: 0px; margin-bottom: 0px; font-size: 40px"";>&ensp;</p>","-","viewing","0","18","11B,19B,24A,26A","","","","","","","","","","","","","","","","","","","","",""
"","","","","","html-slider-response","28","127925","0.0-17.0-1.3","efc2d14c-97b7-4589-bf8a-1208192b43a0","2222","
                  <p style=""text-align: center;"">₪43
                                                <br>75%</p>
                  <p id=""wtp"" style=""text-align:center; margin-top: 0px; margin-bottom: 0px; font-size: 40px"";>מוכנים לשלם: <span id=""c_p_y""></span></p>","20","evaluation","47","18","11B,19B,24A,26A","75","43","20","","","","","","","","","","","","","","","","","",""
"","","","","","html-keyboard-response","29","129144","0.0-17.0-2.3","efc2d14c-97b7-4589-bf8a-1208192b43a0","null","<p style=""text-align: center;"">+</p>","null","fixation","","","","","","","","","","","","","","","","","","","","","","","",""
"","","","","","html-slider-response","30","130159","0.0-17.0-0.4","efc2d14c-97b7-4589-bf8a-1208192b43a0","1000","
                  <p style=""text-align: center;"">₪61
                                                <br>55%</p>
                  <p id=""wtp"" style=""text-align:center; margin-top: 0px; margin-bottom: 0px; font-size: 40px"";>&ensp;</p>","-","viewing","0","23","7B,26B","","","","","","","","","","","","","","","","","","","","",""
"","","","","","html-slider-response","31","134160","0.0-17.0-1.4","efc2d14c-97b7-4589-bf8a-1208192b43a0","null","
                  <p style=""text-align: center;"">₪61
                                                <br>55%</p>
                  <p id=""wtp"" style=""text-align:center; margin-top: 0px; margin-bottom: 0px; font-size: 40px"";>מוכנים לשלם: <span id=""c_p_y""></span></p>","null","evaluation","63","23","7B,26B","55","61","40","","","","","","","","","","","","","","","","","",""
"","","","","","html-keyboard-response","32","134727","0.0-17.0-2.4","efc2d14c-97b7-4589-bf8a-1208192b43a0","null","<p style=""text-align: center;"">+</p>","null","fixation","","","","","","","","","","","","","","","","","","","","","","","",""
"","","","","","html-slider-response","33","135730","0.0-17.0-0.5","efc2d14c-97b7-4589-bf8a-1208192b43a0","1000","
                  <p style=""text-align: center;"">₪43
                                                <br>60%</p>
                  <p id=""wtp"" style=""text-align:center; margin-top: 0px; margin-bottom: 0px; font-size: 40px"";>&ensp;</p>","-","viewing","0","17","2A,7A,9A,15B","","","","","","","","","","","","","","","","","","","","",""
"","","","","","html-slider-response","34","136973","0.0-17.0-1.5","efc2d14c-97b7-4589-bf8a-1208192b43a0","1242","
                  <p style=""text-align: center;"">₪43
                                                <br>60%</p>
                  <p id=""wtp"" style=""text-align:center; margin-top: 0px; margin-bottom: 0px; font-size: 40px"";>מוכנים לשלם: <span id=""c_p_y""></span></p>","39","evaluation","43","17","2A,7A,9A,15B","60","43","39","","","","","","","","","","","","","","","","","",""
"","","","","","html-keyboard-response","35","137672","0.0-17.0-2.5","efc2d14c-97b7-4589-bf8a-1208192b43a0","null","<p style=""text-align: center;"">+</p>","null","fixation","","","","","","","","","","","","","","","","","","","","","","","",""
"","","","","","html-slider-response","36","138684","0.0-17.0-0.6","efc2d14c-97b7-4589-bf8a-1208192b43a0","1000","
                  <p style=""text-align: center;"">₪39
                                                <br>65%</p>
                  <p id=""wtp"" style=""text-align:center; margin-top: 0px; margin-bottom: 0px; font-size: 40px"";>&ensp;</p>","-","viewing","0","16","1A,15A,26C","","","","","","","","","","","","","","","","","","","","",""
"","","","","","html-slider-response","37","140701","0.0-17.0-1.6","efc2d14c-97b7-4589-bf8a-1208192b43a0","2016","
                  <p style=""text-align: center;"">₪39
                                                <br>65%</p>
                  <p id=""wtp"" style=""text-align:center; margin-top: 0px; margin-bottom: 0px; font-size: 40px"";>מוכנים לשלם: <span id=""c_p_y""></span></p>","32","evaluation","69","16","1A,15A,26C","65","39","32","","","","","","","","","","","","","","","","","",""
"","","","","","html-keyboard-response","38","142065","0.0-17.0-2.6","efc2d14c-97b7-4589-bf8a-1208192b43a0","null","<p style=""text-align: center;"">+</p>","null","fixation","","","","","","","","","","","","","","","","","","","","","","","",""
"","","","","","html-slider-response","39","143073","0.0-17.0-0.7","efc2d14c-97b7-4589-bf8a-1208192b43a0","1000","
                  <p style=""text-align: center;"">₪64
                                                <br>50%</p>
                  <p id=""wtp"" style=""text-align:center; margin-top: 0px; margin-bottom: 0px; font-size: 40px"";>&ensp;</p>","-","viewing","0","25","1B,3B,4A","","","","","","","","","","","","","","","","","","","","",""
"","","","","","html-slider-response","40","145869","0.0-17.0-1.7","efc2d14c-97b7-4589-bf8a-1208192b43a0","2795","
                  <p style=""text-align: center;"">₪64
                                                <br>50%</p>
                  <p id=""wtp"" style=""text-align:center; margin-top: 0px; margin-bottom: 0px; font-size: 40px"";>מוכנים לשלם: <span id=""c_p_y""></span></p>","59","evaluation","14","25","1B,3B,4A","50","64","59","","","","","","","","","","","","","","","","","",""
"","","","","","html-keyboard-response","41","146735","0.0-17.0-2.7","efc2d14c-97b7-4589-bf8a-1208192b43a0","null","<p style=""text-align: center;"">+</p>","null","fixation","","","","","","","","","","","","","","","","","","","","","","","",""
"","","","","","html-slider-response","42","147743","0.0-17.0-0.8","efc2d14c-97b7-4589-bf8a-1208192b43a0","1000","
                  <p style=""text-align: center;"">₪39
                                                <br>60%</p>
                  <p id=""wtp"" style=""text-align:center; margin-top: 0px; margin-bottom: 0px; font-size: 40px"";>&ensp;</p>","-","viewing","0","15","9C,25B","","","","","","","","","","","","","","","","","","","","",""
"","","","","","html-slider-response","43","151340","0.0-17.0-1.8","efc2d14c-97b7-4589-bf8a-1208192b43a0","3597","
                  <p style=""text-align: center;"">₪39
                                                <br>60%</p>
                  <p id=""wtp"" style=""text-align:center; margin-top: 0px; margin-bottom: 0px; font-size: 40px"";>מוכנים לשלם: <span id=""c_p_y""></span></p>","20","evaluation","68","15","9C,25B","60","39","20","","","","","","","","","","","","","","","","","",""
"","","","","","html-keyboard-response","44","151895","0.0-17.0-2.8","efc2d14c-97b7-4589-bf8a-1208192b43a0","null","<p style=""text-align: center;"">+</p>","null","fixation","","","","","","","","","","","","","","","","","","","","","","","",""
"","","","","","html-slider-response","45","152900","0.0-17.0-0.9","efc2d14c-97b7-4589-bf8a-1208192b43a0","1000","
                  <p style=""text-align: center;"">₪36
                                                <br>30%</p>
                  <p id=""wtp"" style=""text-align:center; margin-top: 0px; margin-bottom: 0px; font-size: 40px"";>&ensp;</p>","-","viewing","0","11","3C,20A,22A","","","","","","","","","","","","","","","","","","","","",""
"","","","","","html-slider-response","46","156733","0.0-17.0-1.9","efc2d14c-97b7-4589-bf8a-1208192b43a0","3832","
                  <p style=""text-align: center;"">₪36
                                                <br>30%</p>
                  <p id=""wtp"" style=""text-align:center; margin-top: 0px; margin-bottom: 0px; font-size: 40px"";>מוכנים לשלם: <span id=""c_p_y""></span></p>","32","evaluation","53","11","3C,20A,22A","30","36","32","","","","","","","","","","","","","","","","","",""
"","","","","","html-keyboard-response","47","157504","0.0-17.0-2.9","efc2d14c-97b7-4589-bf8a-1208192b43a0","null","<p style=""text-align: center;"">+</p>","null","fixation","","","","","","","","","","","","","","","","","","","","","","","",""
"","","","","","html-slider-response","48","158506","0.0-17.0-0.10","efc2d14c-97b7-4589-bf8a-1208192b43a0","1000","
                  <p style=""text-align: center;"">₪79
                                                <br>40%</p>
                  <p id=""wtp"" style=""text-align:center; margin-top: 0px; margin-bottom: 0px; font-size: 40px"";>&ensp;</p>","-","viewing","0","30","9B","","","","","","","","","","","","","","","","","","","","",""
"","","","","","html-slider-response","49","162522","0.0-17.0-1.10","efc2d14c-97b7-4589-bf8a-1208192b43a0","null","
                  <p style=""text-align: center;"">₪79
                                                <br>40%</p>
                  <p id=""wtp"" style=""text-align:center; margin-top: 0px; margin-bottom: 0px; font-size: 40px"";>מוכנים לשלם: <span id=""c_p_y""></span></p>","null","evaluation","51","30","9B","40","79","70","","","","","","","","","","","","","","","","","",""
"","","","","","html-keyboard-response","50","163686","0.0-17.0-2.10","efc2d14c-97b7-4589-bf8a-1208192b43a0","null","<p style=""text-align: center;"">+</p>","null","fixation","","","","","","","","","","","","","","","","","","","","","","","",""
"","","","","","html-slider-response","51","164687","0.0-17.0-0.11","efc2d14c-97b7-4589-bf8a-1208192b43a0","1000","
                  <p style=""text-align: center;"">₪4
                                                <br>50%</p>
                  <p id=""wtp"" style=""text-align:center; margin-top: 0px; margin-bottom: 0px; font-size: 40px"";>&ensp;</p>","-","viewing","0","2","4C,17B","","","","","","","","","","","","","","","","","","","","",""
"","","","","","html-slider-response","52","166605","0.0-17.0-1.11","efc2d14c-97b7-4589-bf8a-1208192b43a0","1917","
                  <p style=""text-align: center;"">₪4
                                                <br>50%</p>
                  <p id=""wtp"" style=""text-align:center; margin-top: 0px; margin-bottom: 0px; font-size: 40px"";>מוכנים לשלם: <span id=""c_p_y""></span></p>","7","evaluation","62","2","4C,17B","50","4","7","","","","","","","","","","","","","","","","","",""
"","","","","","html-keyboard-response","53","167974","0.0-17.0-2.11","efc2d14c-97b7-4589-bf8a-1208192b43a0","null","<p style=""text-align: center;"">+</p>","null","fixation","","","","","","","","","","","","","","","","","","","","","","","",""
"","","","","","html-slider-response","54","168981","0.0-17.0-0.12","efc2d14c-97b7-4589-bf8a-1208192b43a0","1000","
                  <p style=""text-align: center;"">₪58
                                                <br>40%</p>
                  <p id=""wtp"" style=""text-align:center; margin-top: 0px; margin-bottom: 0px; font-size: 40px"";>&ensp;</p>","-","viewing","0","20","10C,13A,19C,21B","","","","","","","","","","","","","","","","","","","","",""
"","","","","","html-slider-response","55","171860","0.0-17.0-1.12","efc2d14c-97b7-4589-bf8a-1208192b43a0","2878","
                  <p style=""text-align: center;"">₪58
                                                <br>40%</p>
                  <p id=""wtp"" style=""text-align:center; margin-top: 0px; margin-bottom: 0px; font-size: 40px"";>מוכנים לשלם: <span id=""c_p_y""></span></p>","52","evaluation","23","20","10C,13A,19C,21B","40","58","52","","","","","","","","","","","","","","","","","",""
"","","","","","html-keyboard-response","56","173346","0.0-17.0-2.12","efc2d14c-97b7-4589-bf8a-1208192b43a0","null","<p style=""text-align: center;"">+</p>","null","fixation","","","","","","","","","","","","","","","","","","","","","","","",""
"","","","","","html-slider-response","57","174351","0.0-17.0-0.13","efc2d14c-97b7-4589-bf8a-1208192b43a0","1000","
                  <p style=""text-align: center;"">₪11
                                                <br>25%</p>
                  <p id=""wtp"" style=""text-align:center; margin-top: 0px; margin-bottom: 0px; font-size: 40px"";>&ensp;</p>","-","viewing","0","5","12A,27B,28B,30B","","","","","","","","","","","","","","","","","","","","",""
"","","","","","html-slider-response","58","177133","0.0-17.0-1.13","efc2d14c-97b7-4589-bf8a-1208192b43a0","2781","
                  <p style=""text-align: center;"">₪11
                                                <br>25%</p>
                  <p id=""wtp"" style=""text-align:center; margin-top: 0px; margin-bottom: 0px; font-size: 40px"";>מוכנים לשלם: <span id=""c_p_y""></span></p>","9","evaluation","64","5","12A,27B,28B,30B","25","11","9","","","","","","","","","","","","","","","","","",""
"","","","","","html-keyboard-response","59","178563","0.0-17.0-2.13","efc2d14c-97b7-4589-bf8a-1208192b43a0","null","<p style=""text-align: center;"">+</p>","null","fixation","","","","","","","","","","","","","","","","","","","","","","","",""
"","","","","","html-slider-response","60","179575","0.0-17.0-0.14","efc2d14c-97b7-4589-bf8a-1208192b43a0","1000","
                  <p style=""text-align: center;"">₪11
                                                <br>45%</p>
                  <p id=""wtp"" style=""text-align:center; margin-top: 0px; margin-bottom: 0px; font-size: 40px"";>&ensp;</p>","-","viewing","0","6","14B,21C,25C","","","","","","","","","","","","","","","","","","","","",""
"","","","","","html-slider-response","61","183578","0.0-17.0-1.14","efc2d14c-97b7-4589-bf8a-1208192b43a0","null","
                  <p style=""text-align: center;"">₪11
                                                <br>45%</p>
                  <p id=""wtp"" style=""text-align:center; margin-top: 0px; margin-bottom: 0px; font-size: 40px"";>מוכנים לשלם: <span id=""c_p_y""></span></p>","null","evaluation","58","6","14B,21C,25C","45","11","9","","","","","","","","","","","","","","","","","",""
"","","","","","html-keyboard-response","62","184920","0.0-17.0-2.14","efc2d14c-97b7-4589-bf8a-1208192b43a0","null","<p style=""text-align: center;"">+</p>","null","fixation","","","","","","","","","","","","","","","","","","","","","","","",""
"","","","","","html-slider-response","63","185932","0.0-17.0-0.15","efc2d14c-97b7-4589-bf8a-1208192b43a0","1000","
                  <p style=""text-align: center;"">₪58
                                                <br>30%</p>
                  <p id=""wtp"" style=""text-align:center; margin-top: 0px; margin-bottom: 0px; font-size: 40px"";>&ensp;</p>","-","viewing","0","19","13C,30A","","","","","","","","","","","","","","","","","","","","",""
"","","","","","html-slider-response","64","187597","0.0-17.0-1.15","efc2d14c-97b7-4589-bf8a-1208192b43a0","1664","
                  <p style=""text-align: center;"">₪58
                                                <br>30%</p>
                  <p id=""wtp"" style=""text-align:center; margin-top: 0px; margin-bottom: 0px; font-size: 40px"";>מוכנים לשלם: <span id=""c_p_y""></span></p>","48","evaluation","40","19","13C,30A","30","58","48","","","","","","","","","","","","","","","","","",""
"","","","","","html-keyboard-response","65","188463","0.0-17.0-2.15","efc2d14c-97b7-4589-bf8a-1208192b43a0","null","<p style=""text-align: center;"">+</p>","null","fixation","","","","","","","","","","","","","","","","","","","","","","","",""
"","","","","","html-slider-response","66","189470","0.0-17.0-0.16","efc2d14c-97b7-4589-bf8a-1208192b43a0","1000","
                  <p style=""text-align: center;"">₪64
                                                <br>25%</p>
                  <p id=""wtp"" style=""text-align:center; margin-top: 0px; margin-bottom: 0px; font-size: 40px"";>&ensp;</p>","-","viewing","0","24","6A,21A","","","","","","","","","","","","","","","","","","","","",""
"","","","","","html-slider-response","67","191069","0.0-17.0-1.16","efc2d14c-97b7-4589-bf8a-1208192b43a0","1598","
                  <p style=""text-align: center;"">₪64
                                                <br>25%</p>
                  <p id=""wtp"" style=""text-align:center; margin-top: 0px; margin-bottom: 0px; font-size: 40px"";>מוכנים לשלם: <span id=""c_p_y""></span></p>","59","evaluation","6","24","6A,21A","25","64","59","","","","","","","","","","","","","","","","","",""
"","","","","","html-keyboard-response","68","192183","0.0-17.0-2.16","efc2d14c-97b7-4589-bf8a-1208192b43a0","null","<p style=""text-align: center;"">+</p>","null","fixation","","","","","","","","","","","","","","","","","","","","","","","",""
"","","","","","html-slider-response","69","193190","0.0-17.0-0.17","efc2d14c-97b7-4589-bf8a-1208192b43a0","1000","
                  <p style=""text-align: center;"">₪71
                                                <br>45%</p>
                  <p id=""wtp"" style=""text-align:center; margin-top: 0px; margin-bottom: 0px; font-size: 40px"";>&ensp;</p>","-","viewing","0","26","2B,16A","","","","","","","","","","","","","","","","","","","","",""
"","","","","","html-slider-response","70","194173","0.0-17.0-1.17","efc2d14c-97b7-4589-bf8a-1208192b43a0","983","
                  <p style=""text-align: center;"">₪71
                                                <br>45%</p>
                  <p id=""wtp"" style=""text-align:center; margin-top: 0px; margin-bottom: 0px; font-size: 40px"";>מוכנים לשלם: <span id=""c_p_y""></span></p>","60","evaluation","28","26","2B,16A","45","71","60","","","","","","","","","","","","","","","","","",""
"","","","","","html-keyboard-response","71","195098","0.0-17.0-2.17","efc2d14c-97b7-4589-bf8a-1208192b43a0","null","<p style=""text-align: center;"">+</p>","null","fixation","","","","","","","","","","","","","","","","","","","","","","","",""
"","","","","","html-slider-response","72","196109","0.0-17.0-0.18","efc2d14c-97b7-4589-bf8a-1208192b43a0","1000","
                  <p style=""text-align: center;"">₪79
                                                <br>65%</p>
                  <p id=""wtp"" style=""text-align:center; margin-top: 0px; margin-bottom: 0px; font-size: 40px"";>&ensp;</p>","-","viewing","0","31","8A","","","","","","","","","","","","","","","","","","","","",""
"","","","","","html-slider-response","73","196821","0.0-17.0-1.18","efc2d14c-97b7-4589-bf8a-1208192b43a0","711","
                  <p style=""text-align: center;"">₪79
                                                <br>65%</p>
                  <p id=""wtp"" style=""text-align:center; margin-top: 0px; margin-bottom: 0px; font-size: 40px"";>מוכנים לשלם: <span id=""c_p_y""></span></p>","60","evaluation","33","31","8A","65","79","60","","","","","","","","","","","","","","","","","",""
"","","","","","html-keyboard-response","74","197749","0.0-17.0-2.18","efc2d14c-97b7-4589-bf8a-1208192b43a0","null","<p style=""text-align: center;"">+</p>","null","fixation","","","","","","","","","","","","","","","","","","","","","","","",""
"","","","","","html-slider-response","75","198759","0.0-17.0-0.19","efc2d14c-97b7-4589-bf8a-1208192b43a0","1000","
                  <p style=""text-align: center;"">₪36
                                                <br>75%</p>
                  <p id=""wtp"" style=""text-align:center; margin-top: 0px; margin-bottom: 0px; font-size: 40px"";>&ensp;</p>","-","viewing","0","14","4B,5A,13B,16B","","","","","","","","","","","","","","","","","","","","",""
"","","","","","html-slider-response","76","199677","0.0-17.0-1.19","efc2d14c-97b7-4589-bf8a-1208192b43a0","917","
                  <p style=""text-align: center;"">₪36
                                                <br>75%</p>
                  <p id=""wtp"" style=""text-align:center; margin-top: 0px; margin-bottom: 0px; font-size: 40px"";>מוכנים לשלם: <span id=""c_p_y""></span></p>","20","evaluation","35","14","4B,5A,13B,16B","75","36","20","","","","","","","","","","","","","","","","","",""
"","","","","","html-keyboard-response","77","200854","0.0-17.0-2.19","efc2d14c-97b7-4589-bf8a-1208192b43a0","null","<p style=""text-align: center;"">+</p>","null","fixation","","","","","","","","","","","","","","","","","","","","","","","",""
"","","","","","html-slider-response","78","201865","0.0-17.0-0.20","efc2d14c-97b7-4589-bf8a-1208192b43a0","1000","
                  <p style=""text-align: center;"">₪36
                                                <br>70%</p>
                  <p id=""wtp"" style=""text-align:center; margin-top: 0px; margin-bottom: 0px; font-size: 40px"";>&ensp;</p>","-","viewing","0","13","3A,5C,10B","","","","","","","","","","","","","","","","","","","","",""
"","","","","","html-slider-response","79","203197","0.0-17.0-1.20","efc2d14c-97b7-4589-bf8a-1208192b43a0","1332","
                  <p style=""text-align: center;"">₪36
                                                <br>70%</p>
                  <p id=""wtp"" style=""text-align:center; margin-top: 0px; margin-bottom: 0px; font-size: 40px"";>מוכנים לשלם: <span id=""c_p_y""></span></p>","29","evaluation","37","13","3A,5C,10B","70","36","29","","","","","","","","","","","","","","","","","",""
"","","","","","html-keyboard-response","80","204092","0.0-17.0-2.20","efc2d14c-97b7-4589-bf8a-1208192b43a0","null","<p style=""text-align: center;"">+</p>","null","fixation","","","","","","","","","","","","","","","","","","","","","","","",""
"","","","","","html-slider-response","81","205101","0.0-17.0-0.21","efc2d14c-97b7-4589-bf8a-1208192b43a0","1000","
                  <p style=""text-align: center;"">₪58
                                                <br>45%</p>
                  <p id=""wtp"" style=""text-align:center; margin-top: 0px; margin-bottom: 0px; font-size: 40px"";>&ensp;</p>","-","viewing","0","21","11C,18C,25A","","","","","","","","","","","","","","","","","","","","",""
"","","","","","html-slider-response","82","206989","0.0-17.0-1.21","efc2d14c-97b7-4589-bf8a-1208192b43a0","1887","
                  <p style=""text-align: center;"">₪58
                                                <br>45%</p>
                  <p id=""wtp"" style=""text-align:center; margin-top: 0px; margin-bottom: 0px; font-size: 40px"";>מוכנים לשלם: <span id=""c_p_y""></span></p>","53","evaluation","64","21","11C,18C,25A","45","58","53","","","","","","","","","","","","","","","","","",""
"","","","","","html-keyboard-response","83","208426","0.0-17.0-2.21","efc2d14c-97b7-4589-bf8a-1208192b43a0","null","<p style=""text-align: center;"">+</p>","null","fixation","","","","","","","","","","","","","","","","","","","","","","","",""
"","","","","","html-slider-response","84","209438","0.0-17.0-0.22","efc2d14c-97b7-4589-bf8a-1208192b43a0","1000","
                  <p style=""text-align: center;"">₪16
                                                <br>20%</p>
                  <p id=""wtp"" style=""text-align:center; margin-top: 0px; margin-bottom: 0px; font-size: 40px"";>&ensp;</p>","-","viewing","0","8","14C,17A,20C,27A","","","","","","","","","","","","","","","","","","","","",""
"","","","","","html-slider-response","85","211909","0.0-17.0-1.22","efc2d14c-97b7-4589-bf8a-1208192b43a0","2470","
                  <p style=""text-align: center;"">₪16
                                                <br>20%</p>
                  <p id=""wtp"" style=""text-align:center; margin-top: 0px; margin-bottom: 0px; font-size: 40px"";>מוכנים לשלם: <span id=""c_p_y""></span></p>","11","evaluation","53","8","14C,17A,20C,27A","20","16","11","","","","","","","","","","","","","","","","","",""
"","","","","","html-keyboard-response","86","213163","0.0-17.0-2.22","efc2d14c-97b7-4589-bf8a-1208192b43a0","null","<p style=""text-align: center;"">+</p>","null","fixation","","","","","","","","","","","","","","","","","","","","","","","",""
"","","","","","html-slider-response","87","214176","0.0-17.0-0.23","efc2d14c-97b7-4589-bf8a-1208192b43a0","1000","
                  <p style=""text-align: center;"">₪11
                                                <br>75%</p>
                  <p id=""wtp"" style=""text-align:center; margin-top: 0px; margin-bottom: 0px; font-size: 40px"";>&ensp;</p>","-","viewing","0","7","6B,18B,22C,24C,29A","","","","","","","","","","","","","","","","","","","","",""
"","","","","","html-slider-response","88","216357","0.0-17.0-1.23","efc2d14c-97b7-4589-bf8a-1208192b43a0","2180","
                  <p style=""text-align: center;"">₪11
                                                <br>75%</p>
                  <p id=""wtp"" style=""text-align:center; margin-top: 0px; margin-bottom: 0px; font-size: 40px"";>מוכנים לשלם: <span id=""c_p_y""></span></p>","5","evaluation","29","7","6B,18B,22C,24C,29A","75","11","5","","","","","","","","","","","","","","","","","",""
"","","","","","html-keyboard-response","89","217341","0.0-17.0-2.23","efc2d14c-97b7-4589-bf8a-1208192b43a0","null","<p style=""text-align: center;"">+</p>","null","fixation","","","","","","","","","","","","","","","","","","","","","","","",""
"","","","","","html-slider-response","90","218350","0.0-17.0-0.24","efc2d14c-97b7-4589-bf8a-1208192b43a0","1000","
                  <p style=""text-align: center;"">₪4
                                                <br>75%</p>
                  <p id=""wtp"" style=""text-align:center; margin-top: 0px; margin-bottom: 0px; font-size: 40px"";>&ensp;</p>","-","viewing","0","3","12B,20B,23B,27C,29C","","","","","","","","","","","","","","","","","","","","",""
"","","","","","html-slider-response","91","220509","0.0-17.0-1.24","efc2d14c-97b7-4589-bf8a-1208192b43a0","2159","
                  <p style=""text-align: center;"">₪4
                                                <br>75%</p>
                  <p id=""wtp"" style=""text-align:center; margin-top: 0px; margin-bottom: 0px; font-size: 40px"";>מוכנים לשלם: <span id=""c_p_y""></span></p>","4","evaluation","44","3","12B,20B,23B,27C,29C","75","4","4","","","","","","","","","","","","","","","","","",""
"","","","","","html-keyboard-response","92","221720","0.0-17.0-2.24","efc2d14c-97b7-4589-bf8a-1208192b43a0","null","<p style=""text-align: center;"">+</p>","null","fixation","","","","","","","","","","","","","","","","","","","","","","","",""
"","","","","","html-slider-response","93","222726","0.0-17.0-0.25","efc2d14c-97b7-4589-bf8a-1208192b43a0","1000","
                  <p style=""text-align: center;"">₪18
                                                <br>50%</p>
                  <p id=""wtp"" style=""text-align:center; margin-top: 0px; margin-bottom: 0px; font-size: 40px"";>&ensp;</p>","-","viewing","0","10","2C,16C,22B,28A","","","","","","","","","","","","","","","","","","","","",""
"","","","","","html-slider-response","94","224589","0.0-17.0-1.25","efc2d14c-97b7-4589-bf8a-1208192b43a0","1862","
                  <p style=""text-align: center;"">₪18
                                                <br>50%</p>
                  <p id=""wtp"" style=""text-align:center; margin-top: 0px; margin-bottom: 0px; font-size: 40px"";>מוכנים לשלם: <span id=""c_p_y""></span></p>","12","evaluation","14","10","2C,16C,22B,28A","50","18","12","","","","","","","","","","","","","","","","","",""
"","","","","","html-keyboard-response","95","225934","0.0-17.0-2.25","efc2d14c-97b7-4589-bf8a-1208192b43a0","null","<p style=""text-align: center;"">+</p>","null","fixation","","","","","","","","","","","","","","","","","","","","","","","",""
"","","","","","html-slider-response","96","226937","0.0-17.0-0.26","efc2d14c-97b7-4589-bf8a-1208192b43a0","1000","
                  <p style=""text-align: center;"">₪18
                                                <br>25%</p>
                  <p id=""wtp"" style=""text-align:center; margin-top: 0px; margin-bottom: 0px; font-size: 40px"";>&ensp;</p>","-","viewing","0","9","14A,23A","","","","","","","","","","","","","","","","","","","","",""
"","","","","","html-slider-response","97","228253","0.0-17.0-1.26","efc2d14c-97b7-4589-bf8a-1208192b43a0","1316","
                  <p style=""text-align: center;"">₪18
                                                <br>25%</p>
                  <p id=""wtp"" style=""text-align:center; margin-top: 0px; margin-bottom: 0px; font-size: 40px"";>מוכנים לשלם: <span id=""c_p_y""></span></p>","10","evaluation","75","9","14A,23A","25","18","10","","","","","","","","","","","","","","","","","",""
"","","","","","html-keyboard-response","98","229740","0.0-17.0-2.26","efc2d14c-97b7-4589-bf8a-1208192b43a0","null","<p style=""text-align: center;"">+</p>","null","fixation","","","","","","","","","","","","","","","","","","","","","","","",""
"","","","","","html-slider-response","99","230750","0.0-17.0-0.27","efc2d14c-97b7-4589-bf8a-1208192b43a0","1000","
                  <p style=""text-align: center;"">₪11
                                                <br>20%</p>
                  <p id=""wtp"" style=""text-align:center; margin-top: 0px; margin-bottom: 0px; font-size: 40px"";>&ensp;</p>","-","viewing","0","4","12C,17C,23C,28C","","","","","","","","","","","","","","","","","","","","",""
"","","","","","html-slider-response","100","231837","0.0-17.0-1.27","efc2d14c-97b7-4589-bf8a-1208192b43a0","1086","
                  <p style=""text-align: center;"">₪11
                                                <br>20%</p>
                  <p id=""wtp"" style=""text-align:center; margin-top: 0px; margin-bottom: 0px; font-size: 40px"";>מוכנים לשלם: <span id=""c_p_y""></span></p>","8","evaluation","57","4","12C,17C,23C,28C","20","11","8","","","","","","","","","","","","","","","","","",""
"","","","","","html-keyboard-response","101","232705","0.0-17.0-2.27","efc2d14c-97b7-4589-bf8a-1208192b43a0","null","<p style=""text-align: center;"">+</p>","null","fixation","","","","","","","","","","","","","","","","","","","","","","","",""
"","","","","","html-slider-response","102","233712","0.0-17.0-0.28","efc2d14c-97b7-4589-bf8a-1208192b43a0","1000","
                  <p style=""text-align: center;"">₪36
                                                <br>60%</p>
                  <p id=""wtp"" style=""text-align:center; margin-top: 0px; margin-bottom: 0px; font-size: 40px"";>&ensp;</p>","-","viewing","0","12","1C,7C,15C","","","","","","","","","","","","","","","","","","","","",""
"","","","","","html-slider-response","103","235981","0.0-17.0-1.28","efc2d14c-97b7-4589-bf8a-1208192b43a0","2268","
                  <p style=""text-align: center;"">₪36
                                                <br>60%</p>
                  <p id=""wtp"" style=""text-align:center; margin-top: 0px; margin-bottom: 0px; font-size: 40px"";>מוכנים לשלם: <span id=""c_p_y""></span></p>","31","evaluation","45","12","1C,7C,15C","60","36","31","","","","","","","","","","","","","","","","","",""
"","","","","","html-keyboard-response","104","237468","0.0-17.0-2.28","efc2d14c-97b7-4589-bf8a-1208192b43a0","null","<p style=""text-align: center;"">+</p>","null","fixation","","","","","","","","","","","","","","","","","","","","","","","",""
"","","","","","html-slider-response","105","238485","0.0-17.0-0.29","efc2d14c-97b7-4589-bf8a-1208192b43a0","1000","
                  <p style=""text-align: center;"">₪76
                                                <br>65%</p>
                  <p id=""wtp"" style=""text-align:center; margin-top: 0px; margin-bottom: 0px; font-size: 40px"";>&ensp;</p>","-","viewing","0","29","8C,19A,24B","","","","","","","","","","","","","","","","","","","","",""
"","","","","","html-slider-response","106","240221","0.0-17.0-1.29","efc2d14c-97b7-4589-bf8a-1208192b43a0","1736","
                  <p style=""text-align: center;"">₪76
                                                <br>65%</p>
                  <p id=""wtp"" style=""text-align:center; margin-top: 0px; margin-bottom: 0px; font-size: 40px"";>מוכנים לשלם: <span id=""c_p_y""></span></p>","66","evaluation","31","29","8C,19A,24B","65","76","66","","","","","","","","","","","","","","","","","",""
"","","","","","html-keyboard-response","107","241520","0.0-17.0-2.29","efc2d14c-97b7-4589-bf8a-1208192b43a0","null","<p style=""text-align: center;"">+</p>","null","fixation","","","","","","","","","","","","","","","","","","","","","","","",""
"","","","","","html-slider-response","108","242522","0.0-17.0-0.30","efc2d14c-97b7-4589-bf8a-1208192b43a0","1000","
                  <p style=""text-align: center;"">₪4
                                                <br>25%</p>
                  <p id=""wtp"" style=""text-align:center; margin-top: 0px; margin-bottom: 0px; font-size: 40px"";>&ensp;</p>","-","viewing","0","1","6C,29B,30C","","","","","","","","","","","","","","","","","","","","",""
"","","","","","html-slider-response","109","244573","0.0-17.0-1.30","efc2d14c-97b7-4589-bf8a-1208192b43a0","2050","
                  <p style=""text-align: center;"">₪4
                                                <br>25%</p>
                  <p id=""wtp"" style=""text-align:center; margin-top: 0px; margin-bottom: 0px; font-size: 40px"";>מוכנים לשלם: <span id=""c_p_y""></span></p>","2","evaluation","22","1","6C,29B,30C","25","4","2","","","","","","","","","","","","","","","","","",""
"","","","","","html-keyboard-response","110","245355","0.0-17.0-2.30","efc2d14c-97b7-4589-bf8a-1208192b43a0","null","<p style=""text-align: center;"">+</p>","null","fixation","","","","","","","","","","","","","","","","","","","","","","","",""
"","","","","","html-keyboard-response","111","246361","0.0-18.0","efc2d14c-97b7-4589-bf8a-1208192b43a0","null","<p style=""text-align: center;"">+</p>","null","fixation","","","","","","","","","","","","","","","","","","","","","","","",""
"","","","","","html-keyboard-response","112","247645","0.0-19.0","efc2d14c-97b7-4589-bf8a-1208192b43a0","null","<p>הפסקה.
          <br>לחצו כדי להמשיך.</p>","1","scan_wait","","","","","","","","","","","","","","","","","","","","","","","",""
"","","","","","html-keyboard-response","113","248661","0.0-20.0","efc2d14c-97b7-4589-bf8a-1208192b43a0","null","<p style=""text-align: center;"">+</p>","null","fixation","","","","","","","","","","","","","","","","","","","","","","","",""
"","","","","","html-slider-response","114","249663","0.0-21.0-0.0","efc2d14c-97b7-4589-bf8a-1208192b43a0","1000","
                  <p style=""text-align: center;"">₪18
                                                <br>25%</p>
                  <p id=""wtp"" style=""text-align:center; margin-top: 0px; margin-bottom: 0px; font-size: 40px"";>&ensp;</p>","-","viewing","0","9","14A,23A","","","","","","","","","","","","","","","","","","","","",""
"","","","","","html-slider-response","115","250941","0.0-21.0-1.0","efc2d14c-97b7-4589-bf8a-1208192b43a0","1278","
                  <p style=""text-align: center;"">₪18
                                                <br>25%</p>
                  <p id=""wtp"" style=""text-align:center; margin-top: 0px; margin-bottom: 0px; font-size: 40px"";>מוכנים לשלם: <span id=""c_p_y""></span></p>","9","evaluation","50","9","14A,23A","25","18","10","","","","","","","","","","","","","","","","","",""
"","","","","","html-keyboard-response","116","251792","0.0-21.0-2.0","efc2d14c-97b7-4589-bf8a-1208192b43a0","null","<p style=""text-align: center;"">+</p>","null","fixation","","","","","","","","","","","","","","","","","","","","","","","",""
"","","","","","html-slider-response","117","252801","0.0-21.0-0.1","efc2d14c-97b7-4589-bf8a-1208192b43a0","1000","
                  <p style=""text-align: center;"">₪18
                                                <br>50%</p>
                  <p id=""wtp"" style=""text-align:center; margin-top: 0px; margin-bottom: 0px; font-size: 40px"";>&ensp;</p>","-","viewing","0","10","2C,16C,22B,28A","","","","","","","","","","","","","","","","","","","","",""
"","","","","","html-slider-response","118","254973","0.0-21.0-1.1","efc2d14c-97b7-4589-bf8a-1208192b43a0","2171","
                  <p style=""text-align: center;"">₪18
                                                <br>50%</p>
                  <p id=""wtp"" style=""text-align:center; margin-top: 0px; margin-bottom: 0px; font-size: 40px"";>מוכנים לשלם: <span id=""c_p_y""></span></p>","8","evaluation","57","10","2C,16C,22B,28A","50","18","8","","","","","","","","","","","","","","","","","",""
"","","","","","html-keyboard-response","119","256017","0.0-21.0-2.1","efc2d14c-97b7-4589-bf8a-1208192b43a0","null","<p style=""text-align: center;"">+</p>","null","fixation","","","","","","","","","","","","","","","","","","","","","","","",""
"","","","","","html-slider-response","120","257019","0.0-21.0-0.2","efc2d14c-97b7-4589-bf8a-1208192b43a0","1000","
                  <p style=""text-align: center;"">₪64
                                                <br>25%</p>
                  <p id=""wtp"" style=""text-align:center; margin-top: 0px; margin-bottom: 0px; font-size: 40px"";>&ensp;</p>","-","viewing","0","24","6A,21A","","","","","","","","","","","","","","","","","","","","",""
"","","","","","html-slider-response","121","258301","0.0-21.0-1.2","efc2d14c-97b7-4589-bf8a-1208192b43a0","1281","
                  <p style=""text-align: center;"">₪64
                                                <br>25%</p>
                  <p id=""wtp"" style=""text-align:center; margin-top: 0px; margin-bottom: 0px; font-size: 40px"";>מוכנים לשלם: <span id=""c_p_y""></span></p>","29","evaluation","2","24","6A,21A","25","64","29","","","","","","","","","","","","","","","","","",""
"","","","","","html-keyboard-response","122","259308","0.0-21.0-2.2","efc2d14c-97b7-4589-bf8a-1208192b43a0","null","<p style=""text-align: center;"">+</p>","null","fixation","","","","","","","","","","","","","","","","","","","","","","","",""
"","","","","","html-slider-response","123","260323","0.0-21.0-0.3","efc2d14c-97b7-4589-bf8a-1208192b43a0","1000","
                  <p style=""text-align: center;"">₪61
                                                <br>55%</p>
                  <p id=""wtp"" style=""text-align:center; margin-top: 0px; margin-bottom: 0px; font-size: 40px"";>&ensp;</p>","-","viewing","0","23","7B,26B","","","","","","","","","","","","","","","","","","","","",""
"","","","","","html-slider-response","124","262037","0.0-21.0-1.3","efc2d14c-97b7-4589-bf8a-1208192b43a0","1713","
                  <p style=""text-align: center;"">₪61
                                                <br>55%</p>
                  <p id=""wtp"" style=""text-align:center; margin-top: 0px; margin-bottom: 0px; font-size: 40px"";>מוכנים לשלם: <span id=""c_p_y""></span></p>","31","evaluation","72","23","7B,26B","55","61","31","","","","","","","","","","","","","","","","","",""
"","","","","","html-keyboard-response","125","262557","0.0-21.0-2.3","efc2d14c-97b7-4589-bf8a-1208192b43a0","null","<p style=""text-align: center;"">+</p>","null","fixation","","","","","","","","","","","","","","","","","","","","","","","",""
"","","","","","html-slider-response","126","263562","0.0-21.0-0.4","efc2d14c-97b7-4589-bf8a-1208192b43a0","1000","
                  <p style=""text-align: center;"">₪71
                                                <br>75%</p>
                  <p id=""wtp"" style=""text-align:center; margin-top: 0px; margin-bottom: 0px; font-size: 40px"";>&ensp;</p>","-","viewing","0","28","8B","","","","","","","","","","","","","","","","","","","","",""
"","","","","","html-slider-response","127","265485","0.0-21.0-1.4","efc2d14c-97b7-4589-bf8a-1208192b43a0","1922","
                  <p style=""text-align: center;"">₪71
                                                <br>75%</p>
                  <p id=""wtp"" style=""text-align:center; margin-top: 0px; margin-bottom: 0px; font-size: 40px"";>מוכנים לשלם: <span id=""c_p_y""></span></p>","56","evaluation","74","28","8B","75","71","56","","","","","","","","","","","","","","","","","",""
"","","","","","html-keyboard-response","128","266761","0.0-21.0-2.4","efc2d14c-97b7-4589-bf8a-1208192b43a0","null","<p style=""text-align: center;"">+</p>","null","fixation","","","","","","","","","","","","","","","","","","","","","","","",""
"","","","","","html-slider-response","129","267765","0.0-21.0-0.5","efc2d14c-97b7-4589-bf8a-1208192b43a0","1000","
                  <p style=""text-align: center;"">₪43
                                                <br>60%</p>
                  <p id=""wtp"" style=""text-align:center; margin-top: 0px; margin-bottom: 0px; font-size: 40px"";>&ensp;</p>","-","viewing","0","17","2A,7A,9A,15B","","","","","","","","","","","","","","","","","","","","",""
"","","","","","html-slider-response","130","269789","0.0-21.0-1.5","efc2d14c-97b7-4589-bf8a-1208192b43a0","2024","
                  <p style=""text-align: center;"">₪43
                                                <br>60%</p>
                  <p id=""wtp"" style=""text-align:center; margin-top: 0px; margin-bottom: 0px; font-size: 40px"";>מוכנים לשלם: <span id=""c_p_y""></span></p>","29","evaluation","7","17","2A,7A,9A,15B","60","43","29","","","","","","","","","","","","","","","","","",""
"","","","","","html-keyboard-response","131","271097","0.0-21.0-2.5","efc2d14c-97b7-4589-bf8a-1208192b43a0","null","<p style=""text-align: center;"">+</p>","null","fixation","","","","","","","","","","","","","","","","","","","","","","","",""
"","","","","","html-slider-response","132","272099","0.0-21.0-0.6","efc2d14c-97b7-4589-bf8a-1208192b43a0","1000","
                  <p style=""text-align: center;"">₪43
                                                <br>75%</p>
                  <p id=""wtp"" style=""text-align:center; margin-top: 0px; margin-bottom: 0px; font-size: 40px"";>&ensp;</p>","-","viewing","0","18","11B,19B,24A,26A","","","","","","","","","","","","","","","","","","","","",""
"","","","","","html-slider-response","133","275237","0.0-21.0-1.6","efc2d14c-97b7-4589-bf8a-1208192b43a0","3137","
                  <p style=""text-align: center;"">₪43
                                                <br>75%</p>
                  <p id=""wtp"" style=""text-align:center; margin-top: 0px; margin-bottom: 0px; font-size: 40px"";>מוכנים לשלם: <span id=""c_p_y""></span></p>","30","evaluation","70","18","11B,19B,24A,26A","75","43","30","","","","","","","","","","","","","","","","","",""
"","","","","","html-keyboard-response","134","275817","0.0-21.0-2.6","efc2d14c-97b7-4589-bf8a-1208192b43a0","null","<p style=""text-align: center;"">+</p>","null","fixation","","","","","","","","","","","","","","","","","","","","","","","",""
"","","","","","html-slider-response","135","276824","0.0-21.0-0.7","efc2d14c-97b7-4589-bf8a-1208192b43a0","1000","
                  <p style=""text-align: center;"">₪79
                                                <br>40%</p>
                  <p id=""wtp"" style=""text-align:center; margin-top: 0px; margin-bottom: 0px; font-size: 40px"";>&ensp;</p>","-","viewing","0","30","9B","","","","","","","","","","","","","","","","","","","","",""
"","","","","","html-slider-response","136","280565","0.0-21.0-1.7","efc2d14c-97b7-4589-bf8a-1208192b43a0","3740","
                  <p style=""text-align: center;"">₪79
                                                <br>40%</p>
                  <p id=""wtp"" style=""text-align:center; margin-top: 0px; margin-bottom: 0px; font-size: 40px"";>מוכנים לשלם: <span id=""c_p_y""></span></p>","60","evaluation","72","30","9B","40","79","60","","","","","","","","","","","","","","","","","",""
"","","","","","html-keyboard-response","137","281724","0.0-21.0-2.7","efc2d14c-97b7-4589-bf8a-1208192b43a0","null","<p style=""text-align: center;"">+</p>","null","fixation","","","","","","","","","","","","","","","","","","","","","","","",""
"","","","","","html-slider-response","138","282730","0.0-21.0-0.8","efc2d14c-97b7-4589-bf8a-1208192b43a0","1000","
                  <p style=""text-align: center;"">₪61
                                                <br>45%</p>
                  <p id=""wtp"" style=""text-align:center; margin-top: 0px; margin-bottom: 0px; font-size: 40px"";>&ensp;</p>","-","viewing","0","22","10A,11A","","","","","","","","","","","","","","","","","","","","",""
"","","","","","html-slider-response","139","286197","0.0-21.0-1.8","efc2d14c-97b7-4589-bf8a-1208192b43a0","3466","
                  <p style=""text-align: center;"">₪61
                                                <br>45%</p>
                  <p id=""wtp"" style=""text-align:center; margin-top: 0px; margin-bottom: 0px; font-size: 40px"";>מוכנים לשלם: <span id=""c_p_y""></span></p>","12","evaluation","80","22","10A,11A","45","61","12","","","","","","","","","","","","","","","","","",""
"","","","","","html-keyboard-response","140","286756","0.0-21.0-2.8","efc2d14c-97b7-4589-bf8a-1208192b43a0","null","<p style=""text-align: center;"">+</p>","null","fixation","","","","","","","","","","","","","","","","","","","","","","","",""
"","","","","","html-slider-response","141","287758","0.0-21.0-0.9","efc2d14c-97b7-4589-bf8a-1208192b43a0","1000","
                  <p style=""text-align: center;"">₪4
                                                <br>50%</p>
                  <p id=""wtp"" style=""text-align:center; margin-top: 0px; margin-bottom: 0px; font-size: 40px"";>&ensp;</p>","-","viewing","0","2","4C,17B","","","","","","","","","","","","","","","","","","","","",""
"","","","","","html-slider-response","142","290933","0.0-21.0-1.9","efc2d14c-97b7-4589-bf8a-1208192b43a0","3174","
                  <p style=""text-align: center;"">₪4
                                                <br>50%</p>
                  <p id=""wtp"" style=""text-align:center; margin-top: 0px; margin-bottom: 0px; font-size: 40px"";>מוכנים לשלם: <span id=""c_p_y""></span></p>","0","evaluation","69","2","4C,17B","50","4","0","","","","","","","","","","","","","","","","","",""
"","","","","","html-keyboard-response","143","291714","0.0-21.0-2.9","efc2d14c-97b7-4589-bf8a-1208192b43a0","null","<p style=""text-align: center;"">+</p>","null","fixation","","","","","","","","","","","","","","","","","","","","","","","",""
"","","","","","html-slider-response","144","292723","0.0-21.0-0.10","efc2d14c-97b7-4589-bf8a-1208192b43a0","1000","
                  <p style=""text-align: center;"">₪36
                                                <br>60%</p>
                  <p id=""wtp"" style=""text-align:center; margin-top: 0px; margin-bottom: 0px; font-size: 40px"";>&ensp;</p>","-","viewing","0","12","1C,7C,15C","","","","","","","","","","","","","","","","","","","","",""
"","","","","","html-slider-response","145","293925","0.0-21.0-1.10","efc2d14c-97b7-4589-bf8a-1208192b43a0","1201","
                  <p style=""text-align: center;"">₪36
                                                <br>60%</p>
                  <p id=""wtp"" style=""text-align:center; margin-top: 0px; margin-bottom: 0px; font-size: 40px"";>מוכנים לשלם: <span id=""c_p_y""></span></p>","20","evaluation","41","12","1C,7C,15C","60","36","20","","","","","","","","","","","","","","","","","",""
"","","","","","html-keyboard-response","146","295197","0.0-21.0-2.10","efc2d14c-97b7-4589-bf8a-1208192b43a0","null","<p style=""text-align: center;"">+</p>","null","fixation","","","","","","","","","","","","","","","","","","","","","","","",""
"","","","","","html-slider-response","147","296208","0.0-21.0-0.11","efc2d14c-97b7-4589-bf8a-1208192b43a0","1000","
                  <p style=""text-align: center;"">₪11
                                                <br>75%</p>
                  <p id=""wtp"" style=""text-align:center; margin-top: 0px; margin-bottom: 0px; font-size: 40px"";>&ensp;</p>","-","viewing","0","7","6B,18B,22C,24C,29A","","","","","","","","","","","","","","","","","","","","",""
"","","","","","html-slider-response","148","298501","0.0-21.0-1.11","efc2d14c-97b7-4589-bf8a-1208192b43a0","2292","
                  <p style=""text-align: center;"">₪11
                                                <br>75%</p>
                  <p id=""wtp"" style=""text-align:center; margin-top: 0px; margin-bottom: 0px; font-size: 40px"";>מוכנים לשלם: <span id=""c_p_y""></span></p>","5","evaluation","62","7","6B,18B,22C,24C,29A","75","11","5","","","","","","","","","","","","","","","","","",""
"","","","","","html-keyboard-response","149","299418","0.0-21.0-2.11","efc2d14c-97b7-4589-bf8a-1208192b43a0","null","<p style=""text-align: center;"">+</p>","null","fixation","","","","","","","","","","","","","","","","","","","","","","","",""
"","","","","","html-slider-response","150","300421","0.0-21.0-0.12","efc2d14c-97b7-4589-bf8a-1208192b43a0","1000","
                  <p style=""text-align: center;"">₪79
                                                <br>65%</p>
                  <p id=""wtp"" style=""text-align:center; margin-top: 0px; margin-bottom: 0px; font-size: 40px"";>&ensp;</p>","-","viewing","0","31","8A","","","","","","","","","","","","","","","","","","","","",""
"","","","","","html-slider-response","151","302205","0.0-21.0-1.12","efc2d14c-97b7-4589-bf8a-1208192b43a0","1784","
                  <p style=""text-align: center;"">₪79
                                                <br>65%</p>
                  <p id=""wtp"" style=""text-align:center; margin-top: 0px; margin-bottom: 0px; font-size: 40px"";>מוכנים לשלם: <span id=""c_p_y""></span></p>","71","evaluation","4","31","8A","65","79","71","","","","","","","","","","","","","","","","","",""
"","","","","","html-keyboard-response","152","303121","0.0-21.0-2.12","efc2d14c-97b7-4589-bf8a-1208192b43a0","null","<p style=""text-align: center;"">+</p>","null","fixation","","","","","","","","","","","","","","","","","","","","","","","",""
"","","","","","html-slider-response","153","304139","0.0-21.0-0.13","efc2d14c-97b7-4589-bf8a-1208192b43a0","1000","
                  <p style=""text-align: center;"">₪11
                                                <br>45%</p>
                  <p id=""wtp"" style=""text-align:center; margin-top: 0px; margin-bottom: 0px; font-size: 40px"";>&ensp;</p>","-","viewing","0","6","14B,21C,25C","","","","","","","","","","","","","","","","","","","","",""
"","","","","","html-slider-response","154","307941","0.0-21.0-1.13","efc2d14c-97b7-4589-bf8a-1208192b43a0","3801","
                  <p style=""text-align: center;"">₪11
                                                <br>45%</p>
                  <p id=""wtp"" style=""text-align:center; margin-top: 0px; margin-bottom: 0px; font-size: 40px"";>מוכנים לשלם: <span id=""c_p_y""></span></p>","4","evaluation","65","6","14B,21C,25C","45","11","4","","","","","","","","","","","","","","","","","",""
"","","","","","html-keyboard-response","155","308736","0.0-21.0-2.13","efc2d14c-97b7-4589-bf8a-1208192b43a0","null","<p style=""text-align: center;"">+</p>","null","fixation","","","","","","","","","","","","","","","","","","","","","","","",""
"","","","","","html-slider-response","156","309740","0.0-21.0-0.14","efc2d14c-97b7-4589-bf8a-1208192b43a0","1000","
                  <p style=""text-align: center;"">₪36
                                                <br>30%</p>
                  <p id=""wtp"" style=""text-align:center; margin-top: 0px; margin-bottom: 0px; font-size: 40px"";>&ensp;</p>","-","viewing","0","11","3C,20A,22A","","","","","","","","","","","","","","","","","","","","",""
"","","","","","html-slider-response","157","311693","0.0-21.0-1.14","efc2d14c-97b7-4589-bf8a-1208192b43a0","1952","
                  <p style=""text-align: center;"">₪36
                                                <br>30%</p>
                  <p id=""wtp"" style=""text-align:center; margin-top: 0px; margin-bottom: 0px; font-size: 40px"";>מוכנים לשלם: <span id=""c_p_y""></span></p>","10","evaluation","61","11","3C,20A,22A","30","36","10","","","","","","","","","","","","","","","","","",""
"","","","","","html-keyboard-response","158","312584","0.0-21.0-2.14","efc2d14c-97b7-4589-bf8a-1208192b43a0","null","<p style=""text-align: center;"">+</p>","null","fixation","","","","","","","","","","","","","","","","","","","","","","","",""
"","","","","","html-slider-response","159","313593","0.0-21.0-0.15","efc2d14c-97b7-4589-bf8a-1208192b43a0","1000","
                  <p style=""text-align: center;"">₪36
                                                <br>75%</p>
                  <p id=""wtp"" style=""text-align:center; margin-top: 0px; margin-bottom: 0px; font-size: 40px"";>&ensp;</p>","-","viewing","0","14","4B,5A,13B,16B","","","","","","","","","","","","","","","","","","","","",""
"","","","","","html-slider-response","160","315765","0.0-21.0-1.15","efc2d14c-97b7-4589-bf8a-1208192b43a0","2171","
                  <p style=""text-align: center;"">₪36
                                                <br>75%</p>
                  <p id=""wtp"" style=""text-align:center; margin-top: 0px; margin-bottom: 0px; font-size: 40px"";>מוכנים לשלם: <span id=""c_p_y""></span></p>","29","evaluation","13","14","4B,5A,13B,16B","75","36","29","","","","","","","","","","","","","","","","","",""
"","","","","","html-keyboard-response","161","317233","0.0-21.0-2.15","efc2d14c-97b7-4589-bf8a-1208192b43a0","null","<p style=""text-align: center;"">+</p>","null","fixation","","","","","","","","","","","","","","","","","","","","","","","",""
"","","","","","html-slider-response","162","318238","0.0-21.0-0.16","efc2d14c-97b7-4589-bf8a-1208192b43a0","1000","
                  <p style=""text-align: center;"">₪58
                                                <br>30%</p>
                  <p id=""wtp"" style=""text-align:center; margin-top: 0px; margin-bottom: 0px; font-size: 40px"";>&ensp;</p>","-","viewing","0","19","13C,30A","","","","","","","","","","","","","","","","","","","","",""
"","","","","","html-slider-response","163","319293","0.0-21.0-1.16","efc2d14c-97b7-4589-bf8a-1208192b43a0","1054","
                  <p style=""text-align: center;"">₪58
                                                <br>30%</p>
                  <p id=""wtp"" style=""text-align:center; margin-top: 0px; margin-bottom: 0px; font-size: 40px"";>מוכנים לשלם: <span id=""c_p_y""></span></p>","11","evaluation","13","19","13C,30A","30","58","11","","","","","","","","","","","","","","","","","",""
"","","","","","html-keyboard-response","164","320628","0.0-21.0-2.16","efc2d14c-97b7-4589-bf8a-1208192b43a0","null","<p style=""text-align: center;"">+</p>","null","fixation","","","","","","","","","","","","","","","","","","","","","","","",""
"","","","","","html-slider-response","165","321629","0.0-21.0-0.17","efc2d14c-97b7-4589-bf8a-1208192b43a0","1000","
                  <p style=""text-align: center;"">₪36
                                                <br>70%</p>
                  <p id=""wtp"" style=""text-align:center; margin-top: 0px; margin-bottom: 0px; font-size: 40px"";>&ensp;</p>","-","viewing","0","13","3A,5C,10B","","","","","","","","","","","","","","","","","","","","",""
"","","","","","html-slider-response","166","324693","0.0-21.0-1.17","efc2d14c-97b7-4589-bf8a-1208192b43a0","3063","
                  <p style=""text-align: center;"">₪36
                                                <br>70%</p>
                  <p id=""wtp"" style=""text-align:center; margin-top: 0px; margin-bottom: 0px; font-size: 40px"";>מוכנים לשלם: <span id=""c_p_y""></span></p>","29","evaluation","58","13","3A,5C,10B","70","36","29","","","","","","","","","","","","","","","","","",""
"","","","","","html-keyboard-response","167","325596","0.0-21.0-2.17","efc2d14c-97b7-4589-bf8a-1208192b43a0","null","<p style=""text-align: center;"">+</p>","null","fixation","","","","","","","","","","","","","","","","","","","","","","","",""
"","","","","","html-slider-response","168","326606","0.0-21.0-0.18","efc2d14c-97b7-4589-bf8a-1208192b43a0","1000","
                  <p style=""text-align: center;"">₪39
                                                <br>60%</p>
                  <p id=""wtp"" style=""text-align:center; margin-top: 0px; margin-bottom: 0px; font-size: 40px"";>&ensp;</p>","-","viewing","0","15","9C,25B","","","","","","","","","","","","","","","","","","","","",""
"","","","","","html-slider-response","169","328117","0.0-21.0-1.18","efc2d14c-97b7-4589-bf8a-1208192b43a0","1510","
                  <p style=""text-align: center;"">₪39
                                                <br>60%</p>
                  <p id=""wtp"" style=""text-align:center; margin-top: 0px; margin-bottom: 0px; font-size: 40px"";>מוכנים לשלם: <span id=""c_p_y""></span></p>","20","evaluation","64","15","9C,25B","60","39","20","","","","","","","","","","","","","","","","","",""
"","","","","","html-keyboard-response","170","328968","0.0-21.0-2.18","efc2d14c-97b7-4589-bf8a-1208192b43a0","null","<p style=""text-align: center;"">+</p>","null","fixation","","","","","","","","","","","","","","","","","","","","","","","",""
"","","","","","html-slider-response","171","329975","0.0-21.0-0.19","efc2d14c-97b7-4589-bf8a-1208192b43a0","1000","
                  <p style=""text-align: center;"">₪11
                                                <br>20%</p>
                  <p id=""wtp"" style=""text-align:center; margin-top: 0px; margin-bottom: 0px; font-size: 40px"";>&ensp;</p>","-","viewing","0","4","12C,17C,23C,28C","","","","","","","","","","","","","","","","","","","","",""
"","","","","","html-slider-response","172","332373","0.0-21.0-1.19","efc2d14c-97b7-4589-bf8a-1208192b43a0","2397","
                  <p style=""text-align: center;"">₪11
                                                <br>20%</p>
                  <p id=""wtp"" style=""text-align:center; margin-top: 0px; margin-bottom: 0px; font-size: 40px"";>מוכנים לשלם: <span id=""c_p_y""></span></p>","2","evaluation","30","4","12C,17C,23C,28C","20","11","2","","","","","","","","","","","","","","","","","",""
"","","","","","html-keyboard-response","173","333536","0.0-21.0-2.19","efc2d14c-97b7-4589-bf8a-1208192b43a0","null","<p style=""text-align: center;"">+</p>","null","fixation","","","","","","","","","","","","","","","","","","","","","","","",""
"","","","","","html-slider-response","174","334547","0.0-21.0-0.20","efc2d14c-97b7-4589-bf8a-1208192b43a0","1000","
                  <p style=""text-align: center;"">₪16
                                                <br>20%</p>
                  <p id=""wtp"" style=""text-align:center; margin-top: 0px; margin-bottom: 0px; font-size: 40px"";>&ensp;</p>","-","viewing","0","8","14C,17A,20C,27A","","","","","","","","","","","","","","","","","","","","",""
"","","","","","html-slider-response","175","337637","0.0-21.0-1.20","efc2d14c-97b7-4589-bf8a-1208192b43a0","3089","
                  <p style=""text-align: center;"">₪16
                                                <br>20%</p>
                  <p id=""wtp"" style=""text-align:center; margin-top: 0px; margin-bottom: 0px; font-size: 40px"";>מוכנים לשלם: <span id=""c_p_y""></span></p>","1","evaluation","28","8","14C,17A,20C,27A","20","16","1","","","","","","","","","","","","","","","","","",""
"","","","","","html-keyboard-response","176","338274","0.0-21.0-2.20","efc2d14c-97b7-4589-bf8a-1208192b43a0","null","<p style=""text-align: center;"">+</p>","null","fixation","","","","","","","","","","","","","","","","","","","","","","","",""
"","","","","","html-slider-response","177","339276","0.0-21.0-0.21","efc2d14c-97b7-4589-bf8a-1208192b43a0","1000","
                  <p style=""text-align: center;"">₪58
                                                <br>45%</p>
                  <p id=""wtp"" style=""text-align:center; margin-top: 0px; margin-bottom: 0px; font-size: 40px"";>&ensp;</p>","-","viewing","0","21","11C,18C,25A","","","","","","","","","","","","","","","","","","","","",""
"","","","","","html-slider-response","178","341861","0.0-21.0-1.21","efc2d14c-97b7-4589-bf8a-1208192b43a0","2584","
                  <p style=""text-align: center;"">₪58
                                                <br>45%</p>
                  <p id=""wtp"" style=""text-align:center; margin-top: 0px; margin-bottom: 0px; font-size: 40px"";>מוכנים לשלם: <span id=""c_p_y""></span></p>","27","evaluation","14","21","11C,18C,25A","45","58","27","","","","","","","","","","","","","","","","","",""
"","","","","","html-keyboard-response","179","342396","0.0-21.0-2.21","efc2d14c-97b7-4589-bf8a-1208192b43a0","null","<p style=""text-align: center;"">+</p>","null","fixation","","","","","","","","","","","","","","","","","","","","","","","",""
"","","","","","html-slider-response","180","343406","0.0-21.0-0.22","efc2d14c-97b7-4589-bf8a-1208192b43a0","1000","
                  <p style=""text-align: center;"">₪11
                                                <br>25%</p>
                  <p id=""wtp"" style=""text-align:center; margin-top: 0px; margin-bottom: 0px; font-size: 40px"";>&ensp;</p>","-","viewing","0","5","12A,27B,28B,30B","","","","","","","","","","","","","","","","","","","","",""
"","","","","","html-slider-response","181","344541","0.0-21.0-1.22","efc2d14c-97b7-4589-bf8a-1208192b43a0","1134","
                  <p style=""text-align: center;"">₪11
                                                <br>25%</p>
                  <p id=""wtp"" style=""text-align:center; margin-top: 0px; margin-bottom: 0px; font-size: 40px"";>מוכנים לשלם: <span id=""c_p_y""></span></p>","0","evaluation","76","5","12A,27B,28B,30B","25","11","0","","","","","","","","","","","","","","","","","",""
"","","","","","html-keyboard-response","182","345155","0.0-21.0-2.22","efc2d14c-97b7-4589-bf8a-1208192b43a0","null","<p style=""text-align: center;"">+</p>","null","fixation","","","","","","","","","","","","","","","","","","","","","","","",""
"","","","","","html-slider-response","183","346157","0.0-21.0-0.23","efc2d14c-97b7-4589-bf8a-1208192b43a0","1000","
                  <p style=""text-align: center;"">₪71
                                                <br>45%</p>
                  <p id=""wtp"" style=""text-align:center; margin-top: 0px; margin-bottom: 0px; font-size: 40px"";>&ensp;</p>","-","viewing","0","26","2B,16A","","","","","","","","","","","","","","","","","","","","",""
"","","","","","html-slider-response","184","348637","0.0-21.0-1.23","efc2d14c-97b7-4589-bf8a-1208192b43a0","2479","
                  <p style=""text-align: center;"">₪71
                                                <br>45%</p>
                  <p id=""wtp"" style=""text-align:center; margin-top: 0px; margin-bottom: 0px; font-size: 40px"";>מוכנים לשלם: <span id=""c_p_y""></span></p>","26","evaluation","52","26","2B,16A","45","71","26","","","","","","","","","","","","","","","","","",""
"","","","","","html-keyboard-response","185","349161","0.0-21.0-2.23","efc2d14c-97b7-4589-bf8a-1208192b43a0","null","<p style=""text-align: center;"">+</p>","null","fixation","","","","","","","","","","","","","","","","","","","","","","","",""
"","","","","","html-slider-response","186","350163","0.0-21.0-0.24","efc2d14c-97b7-4589-bf8a-1208192b43a0","1000","
                  <p style=""text-align: center;"">₪58
                                                <br>40%</p>
                  <p id=""wtp"" style=""text-align:center; margin-top: 0px; margin-bottom: 0px; font-size: 40px"";>&ensp;</p>","-","viewing","0","20","10C,13A,19C,21B","","","","","","","","","","","","","","","","","","","","",""
"","","","","","html-slider-response","187","351717","0.0-21.0-1.24","efc2d14c-97b7-4589-bf8a-1208192b43a0","1553","
                  <p style=""text-align: center;"">₪58
                                                <br>40%</p>
                  <p id=""wtp"" style=""text-align:center; margin-top: 0px; margin-bottom: 0px; font-size: 40px"";>מוכנים לשלם: <span id=""c_p_y""></span></p>","23","evaluation","11","20","10C,13A,19C,21B","40","58","23","","","","","","","","","","","","","","","","","",""
"","","","","","html-keyboard-response","188","352763","0.0-21.0-2.24","efc2d14c-97b7-4589-bf8a-1208192b43a0","null","<p style=""text-align: center;"">+</p>","null","fixation","","","","","","","","","","","","","","","","","","","","","","","",""
"","","","","","html-slider-response","189","353768","0.0-21.0-0.25","efc2d14c-97b7-4589-bf8a-1208192b43a0","1000","
                  <p style=""text-align: center;"">₪4
                                                <br>75%</p>
                  <p id=""wtp"" style=""text-align:center; margin-top: 0px; margin-bottom: 0px; font-size: 40px"";>&ensp;</p>","-","viewing","0","3","12B,20B,23B,27C,29C","","","","","","","","","","","","","","","","","","","","",""
"","","","","","html-slider-response","190","355333","0.0-21.0-1.25","efc2d14c-97b7-4589-bf8a-1208192b43a0","1564","
                  <p style=""text-align: center;"">₪4
                                                <br>75%</p>
                  <p id=""wtp"" style=""text-align:center; margin-top: 0px; margin-bottom: 0px; font-size: 40px"";>מוכנים לשלם: <span id=""c_p_y""></span></p>","1","evaluation","28","3","12B,20B,23B,27C,29C","75","4","1","","","","","","","","","","","","","","","","","",""
"","","","","","html-keyboard-response","191","356649","0.0-21.0-2.25","efc2d14c-97b7-4589-bf8a-1208192b43a0","null","<p style=""text-align: center;"">+</p>","null","fixation","","","","","","","","","","","","","","","","","","","","","","","",""
"","","","","","html-slider-response","192","357652","0.0-21.0-0.26","efc2d14c-97b7-4589-bf8a-1208192b43a0","1000","
                  <p style=""text-align: center;"">₪76
                                                <br>65%</p>
                  <p id=""wtp"" style=""text-align:center; margin-top: 0px; margin-bottom: 0px; font-size: 40px"";>&ensp;</p>","-","viewing","0","29","8C,19A,24B","","","","","","","","","","","","","","","","","","","","",""
"","","","","","html-slider-response","193","360013","0.0-21.0-1.26","efc2d14c-97b7-4589-bf8a-1208192b43a0","2360","
                  <p style=""text-align: center;"">₪76
                                                <br>65%</p>
                  <p id=""wtp"" style=""text-align:center; margin-top: 0px; margin-bottom: 0px; font-size: 40px"";>מוכנים לשלם: <span id=""c_p_y""></span></p>","38","evaluation","25","29","8C,19A,24B","65","76","38","","","","","","","","","","","","","","","","","",""
"","","","","","html-keyboard-response","194","360598","0.0-21.0-2.26","efc2d14c-97b7-4589-bf8a-1208192b43a0","null","<p style=""text-align: center;"">+</p>","null","fixation","","","","","","","","","","","","","","","","","","","","","","","",""
"","","","","","html-slider-response","195","361607","0.0-21.0-0.27","efc2d14c-97b7-4589-bf8a-1208192b43a0","1000","
                  <p style=""text-align: center;"">₪64
                                                <br>50%</p>
                  <p id=""wtp"" style=""text-align:center; margin-top: 0px; margin-bottom: 0px; font-size: 40px"";>&ensp;</p>","-","viewing","0","25","1B,3B,4A","","","","","","","","","","","","","","","","","","","","",""
"","","","","","html-slider-response","196","363605","0.0-21.0-1.27","efc2d14c-97b7-4589-bf8a-1208192b43a0","1997","
                  <p style=""text-align: center;"">₪64
                                                <br>50%</p>
                  <p id=""wtp"" style=""text-align:center; margin-top: 0px; margin-bottom: 0px; font-size: 40px"";>מוכנים לשלם: <span id=""c_p_y""></span></p>","36","evaluation","28","25","1B,3B,4A","50","64","36","","","","","","","","","","","","","","","","","",""
"","","","","","html-keyboard-response","197","364907","0.0-21.0-2.27","efc2d14c-97b7-4589-bf8a-1208192b43a0","null","<p style=""text-align: center;"">+</p>","null","fixation","","","","","","","","","","","","","","","","","","","","","","","",""
"","","","","","html-slider-response","198","365914","0.0-21.0-0.28","efc2d14c-97b7-4589-bf8a-1208192b43a0","1000","
                  <p style=""text-align: center;"">₪71
                                                <br>55%</p>
                  <p id=""wtp"" style=""text-align:center; margin-top: 0px; margin-bottom: 0px; font-size: 40px"";>&ensp;</p>","-","viewing","0","27","5B,18A","","","","","","","","","","","","","","","","","","","","",""
"","","","","","html-slider-response","199","367253","0.0-21.0-1.28","efc2d14c-97b7-4589-bf8a-1208192b43a0","1338","
                  <p style=""text-align: center;"">₪71
                                                <br>55%</p>
                  <p id=""wtp"" style=""text-align:center; margin-top: 0px; margin-bottom: 0px; font-size: 40px"";>מוכנים לשלם: <span id=""c_p_y""></span></p>","34","evaluation","41","27","5B,18A","55","71","34","","","","","","","","","","","","","","","","","",""
"","","","","","html-keyboard-response","200","367873","0.0-21.0-2.28","efc2d14c-97b7-4589-bf8a-1208192b43a0","null","<p style=""text-align: center;"">+</p>","null","fixation","","","","","","","","","","","","","","","","","","","","","","","",""
"","","","","","html-slider-response","201","368879","0.0-21.0-0.29","efc2d14c-97b7-4589-bf8a-1208192b43a0","1000","
                  <p style=""text-align: center;"">₪4
                                                <br>25%</p>
                  <p id=""wtp"" style=""text-align:center; margin-top: 0px; margin-bottom: 0px; font-size: 40px"";>&ensp;</p>","-","viewing","0","1","6C,29B,30C","","","","","","","","","","","","","","","","","","","","",""
"","","","","","html-slider-response","202","371693","0.0-21.0-1.29","efc2d14c-97b7-4589-bf8a-1208192b43a0","2812","
                  <p style=""text-align: center;"">₪4
                                                <br>25%</p>
                  <p id=""wtp"" style=""text-align:center; margin-top: 0px; margin-bottom: 0px; font-size: 40px"";>מוכנים לשלם: <span id=""c_p_y""></span></p>","0","evaluation","15","1","6C,29B,30C","25","4","0","","","","","","","","","","","","","","","","","",""
"","","","","","html-keyboard-response","203","372759","0.0-21.0-2.29","efc2d14c-97b7-4589-bf8a-1208192b43a0","null","<p style=""text-align: center;"">+</p>","null","fixation","","","","","","","","","","","","","","","","","","","","","","","",""
"","","","","","html-slider-response","204","373776","0.0-21.0-0.30","efc2d14c-97b7-4589-bf8a-1208192b43a0","1000","
                  <p style=""text-align: center;"">₪39
                                                <br>65%</p>
                  <p id=""wtp"" style=""text-align:center; margin-top: 0px; margin-bottom: 0px; font-size: 40px"";>&ensp;</p>","-","viewing","0","16","1A,15A,26C","","","","","","","","","","","","","","","","","","","","",""
"","","","","","html-slider-response","205","375861","0.0-21.0-1.30","efc2d14c-97b7-4589-bf8a-1208192b43a0","2084","
                  <p style=""text-align: center;"">₪39
                                                <br>65%</p>
                  <p id=""wtp"" style=""text-align:center; margin-top: 0px; margin-bottom: 0px; font-size: 40px"";>מוכנים לשלם: <span id=""c_p_y""></span></p>","12","evaluation","33","16","1A,15A,26C","65","39","12","","","","","","","","","","","","","","","","","",""
"","","","","","html-keyboard-response","206","376701","0.0-21.0-2.30","efc2d14c-97b7-4589-bf8a-1208192b43a0","null","<p style=""text-align: center;"">+</p>","null","fixation","","","","","","","","","","","","","","","","","","","","","","","",""
"","","","","","html-keyboard-response","207","377707","0.0-22.0","efc2d14c-97b7-4589-bf8a-1208192b43a0","null","<p style=""text-align: center;"">+</p>","null","fixation","","","","","","","","","","","","","","","","","","","","","","","",""
"","","","","","html-keyboard-response","208","378957","0.0-23.0","efc2d14c-97b7-4589-bf8a-1208192b43a0","null","<p>הפסקה.
          <br>לחצו כדי להמשיך.</p>","1","scan_wait","","","","","","","","","","","","","","","","","","","","","","","",""
"","","","","","html-keyboard-response","209","379960","0.0-24.0","efc2d14c-97b7-4589-bf8a-1208192b43a0","null","<p style=""text-align: center;"">+</p>","null","fixation","","","","","","","","","","","","","","","","","","","","","","","",""
"","","","","","html-slider-response","210","380966","0.0-25.0-0.0","efc2d14c-97b7-4589-bf8a-1208192b43a0","1000","
                  <p style=""text-align: center;"">₪11
                                                <br>75%</p>
                  <p id=""wtp"" style=""text-align:center; margin-top: 0px; margin-bottom: 0px; font-size: 40px"";>&ensp;</p>","-","viewing","0","7","6B,18B,22C,24C,29A","","","","","","","","","","","","","","","","","","","","",""
"","","","","","html-slider-response","211","382517","0.0-25.0-1.0","efc2d14c-97b7-4589-bf8a-1208192b43a0","1550","
                  <p style=""text-align: center;"">₪11
                                                <br>75%</p>
                  <p id=""wtp"" style=""text-align:center; margin-top: 0px; margin-bottom: 0px; font-size: 40px"";>מוכנים לשלם: <span id=""c_p_y""></span></p>","6","evaluation","63","7","6B,18B,22C,24C,29A","75","11","6","","","","","","","","","","","","","","","","","",""
"","","","","","html-keyboard-response","212","383717","0.0-25.0-2.0","efc2d14c-97b7-4589-bf8a-1208192b43a0","null","<p style=""text-align: center;"">+</p>","null","fixation","","","","","","","","","","","","","","","","","","","","","","","",""
"","","","","","html-slider-response","213","384730","0.0-25.0-0.1","efc2d14c-97b7-4589-bf8a-1208192b43a0","1000","
                  <p style=""text-align: center;"">₪36
                                                <br>30%</p>
                  <p id=""wtp"" style=""text-align:center; margin-top: 0px; margin-bottom: 0px; font-size: 40px"";>&ensp;</p>","-","viewing","0","11","3C,20A,22A","","","","","","","","","","","","","","","","","","","","",""
"","","","","","html-slider-response","214","386653","0.0-25.0-1.1","efc2d14c-97b7-4589-bf8a-1208192b43a0","1922","
                  <p style=""text-align: center;"">₪36
                                                <br>30%</p>
                  <p id=""wtp"" style=""text-align:center; margin-top: 0px; margin-bottom: 0px; font-size: 40px"";>מוכנים לשלם: <span id=""c_p_y""></span></p>","7","evaluation","25","11","3C,20A,22A","30","36","7","","","","","","","","","","","","","","","","","",""
"","","","","","html-keyboard-response","215","387401","0.0-25.0-2.1","efc2d14c-97b7-4589-bf8a-1208192b43a0","null","<p style=""text-align: center;"">+</p>","null","fixation","","","","","","","","","","","","","","","","","","","","","","","",""
"","","","","","html-slider-response","216","388414","0.0-25.0-0.2","efc2d14c-97b7-4589-bf8a-1208192b43a0","1000","
                  <p style=""text-align: center;"">₪71
                                                <br>45%</p>
                  <p id=""wtp"" style=""text-align:center; margin-top: 0px; margin-bottom: 0px; font-size: 40px"";>&ensp;</p>","-","viewing","0","26","2B,16A","","","","","","","","","","","","","","","","","","","","",""
"","","","","","html-slider-response","217","390581","0.0-25.0-1.2","efc2d14c-97b7-4589-bf8a-1208192b43a0","2166","
                  <p style=""text-align: center;"">₪71
                                                <br>45%</p>
                  <p id=""wtp"" style=""text-align:center; margin-top: 0px; margin-bottom: 0px; font-size: 40px"";>מוכנים לשלם: <span id=""c_p_y""></span></p>","33","evaluation","40","26","2B,16A","45","71","33","","","","","","","","","","","","","","","","","",""
"","","","","","html-keyboard-response","218","391313","0.0-25.0-2.2","efc2d14c-97b7-4589-bf8a-1208192b43a0","null","<p style=""text-align: center;"">+</p>","null","fixation","","","","","","","","","","","","","","","","","","","","","","","",""
"","","","","","html-slider-response","219","392318","0.0-25.0-0.3","efc2d14c-97b7-4589-bf8a-1208192b43a0","1000","
                  <p style=""text-align: center;"">₪16
                                                <br>20%</p>
                  <p id=""wtp"" style=""text-align:center; margin-top: 0px; margin-bottom: 0px; font-size: 40px"";>&ensp;</p>","-","viewing","0","8","14C,17A,20C,27A","","","","","","","","","","","","","","","","","","","","",""
"","","","","","html-slider-response","220","393381","0.0-25.0-1.3","efc2d14c-97b7-4589-bf8a-1208192b43a0","1061","
                  <p style=""text-align: center;"">₪16
                                                <br>20%</p>
                  <p id=""wtp"" style=""text-align:center; margin-top: 0px; margin-bottom: 0px; font-size: 40px"";>מוכנים לשלם: <span id=""c_p_y""></span></p>","7","evaluation","72","8","14C,17A,20C,27A","20","16","7","","","","","","","","","","","","","","","","","",""
"","","","","","html-keyboard-response","221","394414","0.0-25.0-2.3","efc2d14c-97b7-4589-bf8a-1208192b43a0","null","<p style=""text-align: center;"">+</p>","null","fixation","","","","","","","","","","","","","","","","","","","","","","","",""
"","","","","","html-slider-response","222","395424","0.0-25.0-0.4","efc2d14c-97b7-4589-bf8a-1208192b43a0","1000","
                  <p style=""text-align: center;"">₪39
                                                <br>60%</p>
                  <p id=""wtp"" style=""text-align:center; margin-top: 0px; margin-bottom: 0px; font-size: 40px"";>&ensp;</p>","-","viewing","0","15","9C,25B","","","","","","","","","","","","","","","","","","","","",""
"","","","","","html-slider-response","223","396717","0.0-25.0-1.4","efc2d14c-97b7-4589-bf8a-1208192b43a0","1291","
                  <p style=""text-align: center;"">₪39
                                                <br>60%</p>
                  <p id=""wtp"" style=""text-align:center; margin-top: 0px; margin-bottom: 0px; font-size: 40px"";>מוכנים לשלם: <span id=""c_p_y""></span></p>","27","evaluation","58","15","9C,25B","60","39","27","","","","","","","","","","","","","","","","","",""
"","","","","","html-keyboard-response","224","397758","0.0-25.0-2.4","efc2d14c-97b7-4589-bf8a-1208192b43a0","null","<p style=""text-align: center;"">+</p>","null","fixation","","","","","","","","","","","","","","","","","","","","","","","",""
"","","","","","html-slider-response","225","398762","0.0-25.0-0.5","efc2d14c-97b7-4589-bf8a-1208192b43a0","1000","
                  <p style=""text-align: center;"">₪76
                                                <br>65%</p>
                  <p id=""wtp"" style=""text-align:center; margin-top: 0px; margin-bottom: 0px; font-size: 40px"";>&ensp;</p>","-","viewing","0","29","8C,19A,24B","","","","","","","","","","","","","","","","","","","","",""
"","","","","","html-slider-response","226","402270","0.0-25.0-1.5","efc2d14c-97b7-4589-bf8a-1208192b43a0","3507","
                  <p style=""text-align: center;"">₪76
                                                <br>65%</p>
                  <p id=""wtp"" style=""text-align:center; margin-top: 0px; margin-bottom: 0px; font-size: 40px"";>מוכנים לשלם: <span id=""c_p_y""></span></p>","58","evaluation","41","29","8C,19A,24B","65","76","58","","","","","","","","","","","","","","","","","",""
"","","","","","html-keyboard-response","227","403191","0.0-25.0-2.5","efc2d14c-97b7-4589-bf8a-1208192b43a0","null","<p style=""text-align: center;"">+</p>","null","fixation","","","","","","","","","","","","","","","","","","","","","","","",""
"","","","","","html-slider-response","228","404200","0.0-25.0-0.6","efc2d14c-97b7-4589-bf8a-1208192b43a0","1000","
                  <p style=""text-align: center;"">₪18
                                                <br>50%</p>
                  <p id=""wtp"" style=""text-align:center; margin-top: 0px; margin-bottom: 0px; font-size: 40px"";>&ensp;</p>","-","viewing","0","10","2C,16C,22B,28A","","","","","","","","","","","","","","","","","","","","",""
"","","","","","html-slider-response","229","406461","0.0-25.0-1.6","efc2d14c-97b7-4589-bf8a-1208192b43a0","2260","
                  <p style=""text-align: center;"">₪18
                                                <br>50%</p>
                  <p id=""wtp"" style=""text-align:center; margin-top: 0px; margin-bottom: 0px; font-size: 40px"";>מוכנים לשלם: <span id=""c_p_y""></span></p>","8","evaluation","45","10","2C,16C,22B,28A","50","18","8","","","","","","","","","","","","","","","","","",""
"","","","","","html-keyboard-response","230","407595","0.0-25.0-2.6","efc2d14c-97b7-4589-bf8a-1208192b43a0","null","<p style=""text-align: center;"">+</p>","null","fixation","","","","","","","","","","","","","","","","","","","","","","","",""
"","","","","","html-slider-response","231","408604","0.0-25.0-0.7","efc2d14c-97b7-4589-bf8a-1208192b43a0","1000","
                  <p style=""text-align: center;"">₪58
                                                <br>30%</p>
                  <p id=""wtp"" style=""text-align:center; margin-top: 0px; margin-bottom: 0px; font-size: 40px"";>&ensp;</p>","-","viewing","0","19","13C,30A","","","","","","","","","","","","","","","","","","","","",""
"","","","","","html-slider-response","232","410461","0.0-25.0-1.7","efc2d14c-97b7-4589-bf8a-1208192b43a0","1856","
                  <p style=""text-align: center;"">₪58
                                                <br>30%</p>
                  <p id=""wtp"" style=""text-align:center; margin-top: 0px; margin-bottom: 0px; font-size: 40px"";>מוכנים לשלם: <span id=""c_p_y""></span></p>","23","evaluation","38","19","13C,30A","30","58","23","","","","","","","","","","","","","","","","","",""
"","","","","","html-keyboard-response","233","410989","0.0-25.0-2.7","efc2d14c-97b7-4589-bf8a-1208192b43a0","null","<p style=""text-align: center;"">+</p>","null","fixation","","","","","","","","","","","","","","","","","","","","","","","",""
"","","","","","html-slider-response","234","411992","0.0-25.0-0.8","efc2d14c-97b7-4589-bf8a-1208192b43a0","1000","
                  <p style=""text-align: center;"">₪64
                                                <br>25%</p>
                  <p id=""wtp"" style=""text-align:center; margin-top: 0px; margin-bottom: 0px; font-size: 40px"";>&ensp;</p>","-","viewing","0","24","6A,21A","","","","","","","","","","","","","","","","","","","","",""
"","","","","","html-slider-response","235","413140","0.0-25.0-1.8","efc2d14c-97b7-4589-bf8a-1208192b43a0","1147","
                  <p style=""text-align: center;"">₪64
                                                <br>25%</p>
                  <p id=""wtp"" style=""text-align:center; margin-top: 0px; margin-bottom: 0px; font-size: 40px"";>מוכנים לשלם: <span id=""c_p_y""></span></p>","10","evaluation","29","24","6A,21A","25","64","10","","","","","","","","","","","","","","","","","",""
"","","","","","html-keyboard-response","236","413675","0.0-25.0-2.8","efc2d14c-97b7-4589-bf8a-1208192b43a0","null","<p style=""text-align: center;"">+</p>","null","fixation","","","","","","","","","","","","","","","","","","","","","","","",""
"","","","","","html-slider-response","237","414677","0.0-25.0-0.9","efc2d14c-97b7-4589-bf8a-1208192b43a0","1000","
                  <p style=""text-align: center;"">₪4
                                                <br>75%</p>
                  <p id=""wtp"" style=""text-align:center; margin-top: 0px; margin-bottom: 0px; font-size: 40px"";>&ensp;</p>","-","viewing","0","3","12B,20B,23B,27C,29C","","","","","","","","","","","","","","","","","","","","",""
"","","","","","html-slider-response","238","417069","0.0-25.0-1.9","efc2d14c-97b7-4589-bf8a-1208192b43a0","2391","
                  <p style=""text-align: center;"">₪4
                                                <br>75%</p>
                  <p id=""wtp"" style=""text-align:center; margin-top: 0px; margin-bottom: 0px; font-size: 40px"";>מוכנים לשלם: <span id=""c_p_y""></span></p>","4","evaluation","23","3","12B,20B,23B,27C,29C","75","4","4","","","","","","","","","","","","","","","","","",""
"","","","","","html-keyboard-response","239","417643","0.0-25.0-2.9","efc2d14c-97b7-4589-bf8a-1208192b43a0","null","<p style=""text-align: center;"">+</p>","null","fixation","","","","","","","","","","","","","","","","","","","","","","","",""
"","","","","","html-slider-response","240","418659","0.0-25.0-0.10","efc2d14c-97b7-4589-bf8a-1208192b43a0","1000","
                  <p style=""text-align: center;"">₪79
                                                <br>40%</p>
                  <p id=""wtp"" style=""text-align:center; margin-top: 0px; margin-bottom: 0px; font-size: 40px"";>&ensp;</p>","-","viewing","0","30","9B","","","","","","","","","","","","","","","","","","","","",""
"","","","","","html-slider-response","241","421549","0.0-25.0-1.10","efc2d14c-97b7-4589-bf8a-1208192b43a0","2888","
                  <p style=""text-align: center;"">₪79
                                                <br>40%</p>
                  <p id=""wtp"" style=""text-align:center; margin-top: 0px; margin-bottom: 0px; font-size: 40px"";>מוכנים לשלם: <span id=""c_p_y""></span></p>","65","evaluation","69","30","9B","40","79","65","","","","","","","","","","","","","","","","","",""
"","","","","","html-keyboard-response","242","422303","0.0-25.0-2.10","efc2d14c-97b7-4589-bf8a-1208192b43a0","null","<p style=""text-align: center;"">+</p>","null","fixation","","","","","","","","","","","","","","","","","","","","","","","",""
"","","","","","html-slider-response","243","423320","0.0-25.0-0.11","efc2d14c-97b7-4589-bf8a-1208192b43a0","1000","
                  <p style=""text-align: center;"">₪61
                                                <br>55%</p>
                  <p id=""wtp"" style=""text-align:center; margin-top: 0px; margin-bottom: 0px; font-size: 40px"";>&ensp;</p>","-","viewing","0","23","7B,26B","","","","","","","","","","","","","","","","","","","","",""
"","","","","","html-slider-response","244","425685","0.0-25.0-1.11","efc2d14c-97b7-4589-bf8a-1208192b43a0","2364","
                  <p style=""text-align: center;"">₪61
                                                <br>55%</p>
                  <p id=""wtp"" style=""text-align:center; margin-top: 0px; margin-bottom: 0px; font-size: 40px"";>מוכנים לשלם: <span id=""c_p_y""></span></p>","46","evaluation","18","23","7B,26B","55","61","46","","","","","","","","","","","","","","","","","",""
"","","","","","html-keyboard-response","245","426769","0.0-25.0-2.11","efc2d14c-97b7-4589-bf8a-1208192b43a0","null","<p style=""text-align: center;"">+</p>","null","fixation","","","","","","","","","","","","","","","","","","","","","","","",""
"","","","","","html-slider-response","246","427775","0.0-25.0-0.12","efc2d14c-97b7-4589-bf8a-1208192b43a0","1000","
                  <p style=""text-align: center;"">₪71
                                                <br>75%</p>
                  <p id=""wtp"" style=""text-align:center; margin-top: 0px; margin-bottom: 0px; font-size: 40px"";>&ensp;</p>","-","viewing","0","28","8B","","","","","","","","","","","","","","","","","","","","",""
"","","","","","html-slider-response","247","431213","0.0-25.0-1.12","efc2d14c-97b7-4589-bf8a-1208192b43a0","3437","
                  <p style=""text-align: center;"">₪71
