"success","timeout","failed_images","failed_audio","failed_video","trial_type","trial_index","time_elapsed","internal_node_id","subject_id","rt","stimulus","response","part","slider_start","ID","set_ID","prob","amount","last_location","actual_choice","actual_EV","binary_id","trinary_id","catch","A_key","D_key","choice_prob","choice_amount","chosen_part","won_prize","potential_prize_amount","potential_prize_prob","total_prize","accuracy"
"true","false","[]","[]","[]","preload","0","147","0.0-0.0","306418c8-50f7-49c0-ac38-5eb3399b6a86","","","","","","","","","","","","","","","","","","","","","","","","",""
"","","","","","html-keyboard-response","1","870253","0.0-1.0","306418c8-50f7-49c0-ac38-5eb3399b6a86","null","
          <h1>שלום וברוכים הבאים!</h1>
          <p>לפניכם ניסוי בקבלת החלטות עם שני חלקים.
          <br><br>לחצו על העכבר כדי להמשיך.</p>","0","example","","","","","","","","","","","","","","","","","","","","",""
"","","","","","html-keyboard-response","2","890781","0.0-2.0","306418c8-50f7-49c0-ac38-5eb3399b6a86","null","
        <h1>חלק 1</h1>
        <p>בקרוב יוצגו בפניכם הגרלות.
        <br>עליכם לבחור את המחיר המירבי שתהיו מוכנים לשלם כדי להשתתף בהגרלה שתוצג.
        <br>יש לכם תקציב של ₪80 לכל הגרלה. 
        <br>נסו להעריך כל הגרלה בנפרד ולחשוב כמה היא שווה עבורכם, ₪80 זמינים לכל הגרלה בנפרד.
        <br><br>לחצו על העכבר כדי להמשיך.</p>","1","instructions","","","","","","","","","","","","","","","","","","","","",""
"","","","","","html-keyboard-response","3","907293","0.0-3.0","306418c8-50f7-49c0-ac38-5eb3399b6a86","null","
        <p>בסוף הניסוי, המחשב יבחר את אחת ההגרלות ויקבע מחיר לכרטיס עבורה. 
        <br>במידה והמחיר שבחרתם נמוך מהמחיר שנבחר על ידי המחשב, לא תשתתפו בהגרלה ותשארו עם מלוא התקציב.
        <br>במידה והמחיר שבחרתם גבוה מהמחיר שנבחר על ידי המחשב, תשלמו את המחיר שנקבע ותשתתפו בהגרלה.
        <br><br>לחצו על העכבר כדי להמשיך.</p>","1","instructions","","","","","","","","","","","","","","","","","","","","",""
"","","","","","html-slider-response","4","923789","0.0-4.0","306418c8-50f7-49c0-ac38-5eb3399b6a86","16382","
        <p style=""font-size: 42px;"">נתחיל עם דוגמא: 
        <br>ההגרלה מטה מציעה 65% סיכוי לזכות ב-₪40 
        <br>&emsp;&emsp;&emsp;&emsp;&emsp;&emsp;&emsp;&emsp;&ensp;35% סיכוי לזכות ב-₪0.
        <br><br>מה המחיר המירבי שתהיו מוכנים לשלם על כרטיס להגרלה זו בין 0 ל-₪80?
        <br>הזיזו את העכבר על פני המלבן ולחצו כדי לבצע בחירה.</p>
        
        <p style=""text-align: center;"">₪40<br>65%</p>

        <p id=""wtp"" style=""text-align:center; margin-top: 0px; margin-bottom: 0px; font-size: 40px"";>מוכנים לשלם: <span id=""c_p_y""></span></p>","50","example","77","","","","","","","","","","","","","","","","","","","",""
"","","","","","html-keyboard-response","5","938925","0.0-5.0","306418c8-50f7-49c0-ac38-5eb3399b6a86","null","<p>יפה מאוד!
                <br> בחרתם שתהיו מוכנים לשלם ₪50 כדי להשתתף בהגרלה:
                <br><p style=""text-align: center;"">₪40<br>65%</p>
                <p>נשמע נכון?
                <br>נניח שהגרלה זו נבחרה בסוף הניסוי.
                <br>כעת המחשב יקבע מחיר עבורה באקראי.
                <br>לחצו על העכבר להמשך.</p>","1","example","","","","","","","","","","","","","","","","","","","","",""
"","","","","","html-keyboard-response","6","950605","0.0-6.0","306418c8-50f7-49c0-ac38-5eb3399b6a86","null","<p>המחשב קבע מחיר: ₪62
                <br>ואתם בחרתם לשלם לכל היותר: ₪50
                <br><br>מכיוון שהמחיר שבחרתם נמוך מהמחיר שנקבע, לא תתשתתפו בהגרלה.
                <br>במקרה כזה, בסוף הניסוי תקבלו את כל התקציב ההתחלתי של ₪80.
                <br><br>לחצו על העכבר להמשך.</p>","1","example","","","","","","","","","","","","","","","","","","","","",""
"","","","","","html-slider-response","7","958229","0.0-7.0","306418c8-50f7-49c0-ac38-5eb3399b6a86","7372","<p style=""font-size: 42px;"">הנה עוד דוגמא:
                <br>ההגרלה מטה מציעה 35% סיכוי לזכות ב-₪18 
                <br>&emsp;&emsp;&emsp;&emsp;&emsp;&emsp;&emsp;&emsp;&ensp;65% סיכוי לזכות ב-₪0.</p>
        
                <p style=""text-align: center;"">₪18<br>35%</p>
                <p id=""wtp"" style=""text-align:center; margin-top: 0px; margin-bottom: 0px; font-size: 40px"";>מוכנים לשלם: <span id=""c_p_y""></span></p>","20","example","1","","","","","","","","","","","","","","","","","","","",""
"","","","","","html-keyboard-response","8","963397","0.0-8.0","306418c8-50f7-49c0-ac38-5eb3399b6a86","null","<p>הייתם מוכנים לשלם  ₪20 כדי להשתתף בהגרלה:
                <p style=""text-align: center;"">₪18<br>35%</p>
                <p>כעת נניח שהמחשב בחר את ההגרלה הזו בסוף הניסוי, וקבע עבורה מחיר.
                <br><br>לחצו על העכבר כדי להמשיך.</p>","1","instructions","","","","","","","","","","","","","","","","","","","","",""
"","","","","","html-keyboard-response","9","980069","0.0-9.0","306418c8-50f7-49c0-ac38-5eb3399b6a86","null","<p>המחשב קבע מחיר להגרלה: ₪4<br>ואתם בחרתם לשלם לכל היותר: ₪20
                <br><br>כעת המחיר שנקבע נמוך מזה שבחרתם, אז תשלמו את המחיר שקבע המחשב (₪4) ותשתתפו בהגרלה.
                <br>במקרה כזה, תסיימו את הניסוי עם תקציב של ₪76 ועם סיכוי לזכות ב-₪18 נוספים מההגרלה.
                <br>כלומר, תוכלו לקבל ₪76 אם לא תזכו בהגרלה, או ₪94 אם תזכו בהגרלה.
                <br><br>לחצו על העכבר להמשך.</p>","1","example","","","","","","","","","","","","","","","","","","","","",""
"","","","","","html-keyboard-response","10","989453","0.0-10.0","306418c8-50f7-49c0-ac38-5eb3399b6a86","null","<p>במהלך הניסוי, קודם תראו את ההגרלה ורק לאחר מכן תוכלו לבחור.
                <p>כמו כן, יהיו לכם מספר שניות מוגבל להגיב.
                <p>בואו ננסה זאת עם ההגרלה הקודמת.
                <br>לחצו על העכבר כדי להמשיך.</p>","1","instructions","","","","","","","","","","","","","","","","","","","","",""
"","","","","","html-slider-response","11","990706","0.0-11.0","306418c8-50f7-49c0-ac38-5eb3399b6a86","1000","
                    <p style=""text-align: center;"">₪18<br>35%</p>
                    <p id=""wtp"" style=""text-align:center; margin-top: 0px; margin-bottom: 0px; font-size: 40px"";>&ensp;</p>","29","instructions","0","","","","","","","","","","","","","","","","","","","",""
"","","","","","html-slider-response","12","992861","0.0-12.0","306418c8-50f7-49c0-ac38-5eb3399b6a86","1901","
                    <p style=""text-align: center;"">₪18<br>35%</p>
                    <p id=""wtp"" style=""text-align:center; margin-top: 0px; margin-bottom: 0px; font-size: 40px"";>מוכנים לשלם: <span id=""c_p_y""></span></p>","20","instructions","49","","","","","","","","","","","","","","","","","","","",""
"","","","","","html-keyboard-response","13","995997","0.0-13.0","306418c8-50f7-49c0-ac38-5eb3399b6a86","null","<p>יפה. הפעם בחרתם לשלם לכל היותר ₪20.
                <br><br>לחצו על העכבר כדי להמשיך.</p>","1","instructions","","","","","","","","","","","","","","","","","","","","",""
"","","","","","html-keyboard-response","14","1005509","0.0-15.0","306418c8-50f7-49c0-ac38-5eb3399b6a86","null","<p>כעת נתחיל את הניסוי.
                <br><br>אתם תראו הגרלות ותתבקשו לבחור כמה תהיו מוכנים לשלם כדי להשתתף בהן.
                <br>יש לכם תקציב של ₪80 עבור כל הגרלה.
                <br>בסוף הניסוי הגרלה אחת תבחר באקראי ותשוחק.
                <br><br>לחצו על העכבר כדי להתחיל את הניסוי.</p>","1","instructions","","","","","","","","","","","","","","","","","","","","",""
"","","","","","html-keyboard-response","15","1006766","0.0-16.0","306418c8-50f7-49c0-ac38-5eb3399b6a86","null","<p style=""text-align: center;"">+</p>","null","fixation","","","","","","","","","","","","","","","","","","","","",""
"","","","","","html-slider-response","16","1007768","0.0-17.0-0.0","306418c8-50f7-49c0-ac38-5eb3399b6a86","1000","
                  <p style=""text-align: center;"">₪18
                                                <br>25%</p>
                  <p id=""wtp"" style=""text-align:center; margin-top: 0px; margin-bottom: 0px; font-size: 40px"";>&ensp;</p>","-","viewing","0","9","14A,23A","","","","","","","","","","","","","","","","","",""
"","","","","","html-slider-response","17","1009501","0.0-17.0-1.0","306418c8-50f7-49c0-ac38-5eb3399b6a86","1731","
                  <p style=""text-align: center;"">₪18
                                                <br>25%</p>
                  <p id=""wtp"" style=""text-align:center; margin-top: 0px; margin-bottom: 0px; font-size: 40px"";>מוכנים לשלם: <span id=""c_p_y""></span></p>","21","evaluation","66","9","14A,23A","25","18","21","","","","","","","","","","","","","","",""
"","","","","","html-keyboard-response","18","1010093","0.0-17.0-2.0","306418c8-50f7-49c0-ac38-5eb3399b6a86","null","<p style=""text-align: center;"">+</p>","null","fixation","","","","","","","","","","","","","","","","","","","","",""
"","","","","","html-slider-response","19","1011095","0.0-17.0-0.1","306418c8-50f7-49c0-ac38-5eb3399b6a86","1000","
                  <p style=""text-align: center;"">₪4
                                                <br>25%</p>
                  <p id=""wtp"" style=""text-align:center; margin-top: 0px; margin-bottom: 0px; font-size: 40px"";>&ensp;</p>","-","viewing","0","1","6C,29B,30C","","","","","","","","","","","","","","","","","",""
"","","","","","html-slider-response","20","1014629","0.0-17.0-1.1","306418c8-50f7-49c0-ac38-5eb3399b6a86","3533","
                  <p style=""text-align: center;"">₪4
                                                <br>25%</p>
                  <p id=""wtp"" style=""text-align:center; margin-top: 0px; margin-bottom: 0px; font-size: 40px"";>מוכנים לשלם: <span id=""c_p_y""></span></p>","20","evaluation","16","1","6C,29B,30C","25","4","20","","","","","","","","","","","","","","",""
"","","","","","html-keyboard-response","21","1015183","0.0-17.0-2.1","306418c8-50f7-49c0-ac38-5eb3399b6a86","null","<p style=""text-align: center;"">+</p>","null","fixation","","","","","","","","","","","","","","","","","","","","",""
"","","","","","html-slider-response","22","1016188","0.0-17.0-0.2","306418c8-50f7-49c0-ac38-5eb3399b6a86","1000","
                  <p style=""text-align: center;"">₪43
                                                <br>60%</p>
                  <p id=""wtp"" style=""text-align:center; margin-top: 0px; margin-bottom: 0px; font-size: 40px"";>&ensp;</p>","-","viewing","0","17","2A,7A,9A,15B","","","","","","","","","","","","","","","","","",""
"","","","","","html-slider-response","23","1020204","0.0-17.0-1.2","306418c8-50f7-49c0-ac38-5eb3399b6a86","null","
                  <p style=""text-align: center;"">₪43
                                                <br>60%</p>
                  <p id=""wtp"" style=""text-align:center; margin-top: 0px; margin-bottom: 0px; font-size: 40px"";>מוכנים לשלם: <span id=""c_p_y""></span></p>","null","evaluation","3","17","2A,7A,9A,15B","60","43","34","","","","","","","","","","","","","","",""
"","","","","","html-keyboard-response","24","1021566","0.0-17.0-2.2","306418c8-50f7-49c0-ac38-5eb3399b6a86","null","<p style=""text-align: center;"">+</p>","null","fixation","","","","","","","","","","","","","","","","","","","","",""
"","","","","","html-slider-response","25","1022577","0.0-17.0-0.3","306418c8-50f7-49c0-ac38-5eb3399b6a86","1000","
                  <p style=""text-align: center;"">₪61
                                                <br>45%</p>
                  <p id=""wtp"" style=""text-align:center; margin-top: 0px; margin-bottom: 0px; font-size: 40px"";>&ensp;</p>","-","viewing","0","22","10A,11A","","","","","","","","","","","","","","","","","",""
"","","","","","html-slider-response","26","1024765","0.0-17.0-1.3","306418c8-50f7-49c0-ac38-5eb3399b6a86","2187","
                  <p style=""text-align: center;"">₪61
                                                <br>45%</p>
                  <p id=""wtp"" style=""text-align:center; margin-top: 0px; margin-bottom: 0px; font-size: 40px"";>מוכנים לשלם: <span id=""c_p_y""></span></p>","40","evaluation","72","22","10A,11A","45","61","40","","","","","","","","","","","","","","",""
"","","","","","html-keyboard-response","27","1025620","0.0-17.0-2.3","306418c8-50f7-49c0-ac38-5eb3399b6a86","null","<p style=""text-align: center;"">+</p>","null","fixation","","","","","","","","","","","","","","","","","","","","",""
"","","","","","html-slider-response","28","1026626","0.0-17.0-0.4","306418c8-50f7-49c0-ac38-5eb3399b6a86","1000","
                  <p style=""text-align: center;"">₪58
                                                <br>30%</p>
                  <p id=""wtp"" style=""text-align:center; margin-top: 0px; margin-bottom: 0px; font-size: 40px"";>&ensp;</p>","-","viewing","0","19","13C,30A","","","","","","","","","","","","","","","","","",""
"","","","","","html-slider-response","29","1028805","0.0-17.0-1.4","306418c8-50f7-49c0-ac38-5eb3399b6a86","2179","
                  <p style=""text-align: center;"">₪58
                                                <br>30%</p>
                  <p id=""wtp"" style=""text-align:center; margin-top: 0px; margin-bottom: 0px; font-size: 40px"";>מוכנים לשלם: <span id=""c_p_y""></span></p>","51","evaluation","19","19","13C,30A","30","58","51","","","","","","","","","","","","","","",""
"","","","","","html-keyboard-response","30","1029342","0.0-17.0-2.4","306418c8-50f7-49c0-ac38-5eb3399b6a86","null","<p style=""text-align: center;"">+</p>","null","fixation","","","","","","","","","","","","","","","","","","","","",""
"","","","","","html-slider-response","31","1030359","0.0-17.0-0.5","306418c8-50f7-49c0-ac38-5eb3399b6a86","1000","
                  <p style=""text-align: center;"">₪58
                                                <br>40%</p>
                  <p id=""wtp"" style=""text-align:center; margin-top: 0px; margin-bottom: 0px; font-size: 40px"";>&ensp;</p>","-","viewing","0","20","10C,13A,19C,21B","","","","","","","","","","","","","","","","","",""
"","","","","","html-slider-response","32","1032829","0.0-17.0-1.5","306418c8-50f7-49c0-ac38-5eb3399b6a86","2469","
                  <p style=""text-align: center;"">₪58
                                                <br>40%</p>
                  <p id=""wtp"" style=""text-align:center; margin-top: 0px; margin-bottom: 0px; font-size: 40px"";>מוכנים לשלם: <span id=""c_p_y""></span></p>","58","evaluation","14","20","10C,13A,19C,21B","40","58","58","","","","","","","","","","","","","","",""
"","","","","","html-keyboard-response","33","1033702","0.0-17.0-2.5","306418c8-50f7-49c0-ac38-5eb3399b6a86","null","<p style=""text-align: center;"">+</p>","null","fixation","","","","","","","","","","","","","","","","","","","","",""
"","","","","","html-slider-response","34","1034712","0.0-17.0-0.6","306418c8-50f7-49c0-ac38-5eb3399b6a86","1000","
                  <p style=""text-align: center;"">₪79
                                                <br>65%</p>
                  <p id=""wtp"" style=""text-align:center; margin-top: 0px; margin-bottom: 0px; font-size: 40px"";>&ensp;</p>","-","viewing","0","31","8A","","","","","","","","","","","","","","","","","",""
"","","","","","html-slider-response","35","1037309","0.0-17.0-1.6","306418c8-50f7-49c0-ac38-5eb3399b6a86","2596","
                  <p style=""text-align: center;"">₪79
                                                <br>65%</p>
                  <p id=""wtp"" style=""text-align:center; margin-top: 0px; margin-bottom: 0px; font-size: 40px"";>מוכנים לשלם: <span id=""c_p_y""></span></p>","59","evaluation","24","31","8A","65","79","59","","","","","","","","","","","","","","",""
"","","","","","html-keyboard-response","36","1038779","0.0-17.0-2.6","306418c8-50f7-49c0-ac38-5eb3399b6a86","null","<p style=""text-align: center;"">+</p>","null","fixation","","","","","","","","","","","","","","","","","","","","",""
"","","","","","html-slider-response","37","1039782","0.0-17.0-0.7","306418c8-50f7-49c0-ac38-5eb3399b6a86","1000","
                  <p style=""text-align: center;"">₪36
                                                <br>75%</p>
                  <p id=""wtp"" style=""text-align:center; margin-top: 0px; margin-bottom: 0px; font-size: 40px"";>&ensp;</p>","-","viewing","0","14","4B,5A,13B,16B","","","","","","","","","","","","","","","","","",""
"","","","","","html-slider-response","38","1041117","0.0-17.0-1.7","306418c8-50f7-49c0-ac38-5eb3399b6a86","1334","
                  <p style=""text-align: center;"">₪36
                                                <br>75%</p>
                  <p id=""wtp"" style=""text-align:center; margin-top: 0px; margin-bottom: 0px; font-size: 40px"";>מוכנים לשלם: <span id=""c_p_y""></span></p>","20","evaluation","3","14","4B,5A,13B,16B","75","36","20","","","","","","","","","","","","","","",""
"","","","","","html-keyboard-response","39","1041754","0.0-17.0-2.7","306418c8-50f7-49c0-ac38-5eb3399b6a86","null","<p style=""text-align: center;"">+</p>","null","fixation","","","","","","","","","","","","","","","","","","","","",""
"","","","","","html-slider-response","40","1042763","0.0-17.0-0.8","306418c8-50f7-49c0-ac38-5eb3399b6a86","1000","
                  <p style=""text-align: center;"">₪36
                                                <br>30%</p>
                  <p id=""wtp"" style=""text-align:center; margin-top: 0px; margin-bottom: 0px; font-size: 40px"";>&ensp;</p>","-","viewing","0","11","3C,20A,22A","","","","","","","","","","","","","","","","","",""
"","","","","","html-slider-response","41","1046149","0.0-17.0-1.8","306418c8-50f7-49c0-ac38-5eb3399b6a86","3385","
                  <p style=""text-align: center;"">₪36
                                                <br>30%</p>
                  <p id=""wtp"" style=""text-align:center; margin-top: 0px; margin-bottom: 0px; font-size: 40px"";>מוכנים לשלם: <span id=""c_p_y""></span></p>","32","evaluation","20","11","3C,20A,22A","30","36","32","","","","","","","","","","","","","","",""
"","","","","","html-keyboard-response","42","1047183","0.0-17.0-2.8","306418c8-50f7-49c0-ac38-5eb3399b6a86","null","<p style=""text-align: center;"">+</p>","null","fixation","","","","","","","","","","","","","","","","","","","","",""
"","","","","","html-slider-response","43","1048186","0.0-17.0-0.9","306418c8-50f7-49c0-ac38-5eb3399b6a86","1000","
                  <p style=""text-align: center;"">₪11
                                                <br>75%</p>
                  <p id=""wtp"" style=""text-align:center; margin-top: 0px; margin-bottom: 0px; font-size: 40px"";>&ensp;</p>","-","viewing","0","7","6B,18B,22C,24C,29A","","","","","","","","","","","","","","","","","",""
"","","","","","html-slider-response","44","1051237","0.0-17.0-1.9","306418c8-50f7-49c0-ac38-5eb3399b6a86","3049","
                  <p style=""text-align: center;"">₪11
                                                <br>75%</p>
                  <p id=""wtp"" style=""text-align:center; margin-top: 0px; margin-bottom: 0px; font-size: 40px"";>מוכנים לשלם: <span id=""c_p_y""></span></p>","40","evaluation","12","7","6B,18B,22C,24C,29A","75","11","40","","","","","","","","","","","","","","",""
"","","","","","html-keyboard-response","45","1052494","0.0-17.0-2.9","306418c8-50f7-49c0-ac38-5eb3399b6a86","null","<p style=""text-align: center;"">+</p>","null","fixation","","","","","","","","","","","","","","","","","","","","",""
"","","","","","html-slider-response","46","1053507","0.0-17.0-0.10","306418c8-50f7-49c0-ac38-5eb3399b6a86","1000","
                  <p style=""text-align: center;"">₪71
                                                <br>55%</p>
                  <p id=""wtp"" style=""text-align:center; margin-top: 0px; margin-bottom: 0px; font-size: 40px"";>&ensp;</p>","-","viewing","0","27","5B,18A","","","","","","","","","","","","","","","","","",""
"","","","","","html-slider-response","47","1056973","0.0-17.0-1.10","306418c8-50f7-49c0-ac38-5eb3399b6a86","3465","
                  <p style=""text-align: center;"">₪71
                                                <br>55%</p>
                  <p id=""wtp"" style=""text-align:center; margin-top: 0px; margin-bottom: 0px; font-size: 40px"";>מוכנים לשלם: <span id=""c_p_y""></span></p>","51","evaluation","1","27","5B,18A","55","71","51","","","","","","","","","","","","","","",""
"","","","","","html-keyboard-response","48","1057886","0.0-17.0-2.10","306418c8-50f7-49c0-ac38-5eb3399b6a86","null","<p style=""text-align: center;"">+</p>","null","fixation","","","","","","","","","","","","","","","","","","","","",""
"","","","","","html-slider-response","49","1058901","0.0-17.0-0.11","306418c8-50f7-49c0-ac38-5eb3399b6a86","1000","
                  <p style=""text-align: center;"">₪39
                                                <br>60%</p>
                  <p id=""wtp"" style=""text-align:center; margin-top: 0px; margin-bottom: 0px; font-size: 40px"";>&ensp;</p>","-","viewing","0","15","9C,25B","","","","","","","","","","","","","","","","","",""
"","","","","","html-slider-response","50","1061365","0.0-17.0-1.11","306418c8-50f7-49c0-ac38-5eb3399b6a86","2463","
                  <p style=""text-align: center;"">₪39
                                                <br>60%</p>
                  <p id=""wtp"" style=""text-align:center; margin-top: 0px; margin-bottom: 0px; font-size: 40px"";>מוכנים לשלם: <span id=""c_p_y""></span></p>","41","evaluation","46","15","9C,25B","60","39","41","","","","","","","","","","","","","","",""
"","","","","","html-keyboard-response","51","1062173","0.0-17.0-2.11","306418c8-50f7-49c0-ac38-5eb3399b6a86","null","<p style=""text-align: center;"">+</p>","null","fixation","","","","","","","","","","","","","","","","","","","","",""
"","","","","","html-slider-response","52","1063180","0.0-17.0-0.12","306418c8-50f7-49c0-ac38-5eb3399b6a86","1000","
                  <p style=""text-align: center;"">₪4
                                                <br>75%</p>
                  <p id=""wtp"" style=""text-align:center; margin-top: 0px; margin-bottom: 0px; font-size: 40px"";>&ensp;</p>","-","viewing","0","3","12B,20B,23B,27C,29C","","","","","","","","","","","","","","","","","",""
"","","","","","html-slider-response","53","1066453","0.0-17.0-1.12","306418c8-50f7-49c0-ac38-5eb3399b6a86","3272","
                  <p style=""text-align: center;"">₪4
                                                <br>75%</p>
                  <p id=""wtp"" style=""text-align:center; margin-top: 0px; margin-bottom: 0px; font-size: 40px"";>מוכנים לשלם: <span id=""c_p_y""></span></p>","40","evaluation","2","3","12B,20B,23B,27C,29C","75","4","40","","","","","","","","","","","","","","",""
"","","","","","html-keyboard-response","54","1067617","0.0-17.0-2.12","306418c8-50f7-49c0-ac38-5eb3399b6a86","null","<p style=""text-align: center;"">+</p>","null","fixation","","","","","","","","","","","","","","","","","","","","",""
"","","","","","html-slider-response","55","1068622","0.0-17.0-0.13","306418c8-50f7-49c0-ac38-5eb3399b6a86","1000","
                  <p style=""text-align: center;"">₪43
                                                <br>75%</p>
                  <p id=""wtp"" style=""text-align:center; margin-top: 0px; margin-bottom: 0px; font-size: 40px"";>&ensp;</p>","-","viewing","0","18","11B,19B,24A,26A","","","","","","","","","","","","","","","","","",""
"","","","","","html-slider-response","56","1071989","0.0-17.0-1.13","306418c8-50f7-49c0-ac38-5eb3399b6a86","3366","
                  <p style=""text-align: center;"">₪43
                                                <br>75%</p>
                  <p id=""wtp"" style=""text-align:center; margin-top: 0px; margin-bottom: 0px; font-size: 40px"";>מוכנים לשלם: <span id=""c_p_y""></span></p>","50","evaluation","42","18","11B,19B,24A,26A","75","43","50","","","","","","","","","","","","","","",""
"","","","","","html-keyboard-response","57","1073385","0.0-17.0-2.13","306418c8-50f7-49c0-ac38-5eb3399b6a86","null","<p style=""text-align: center;"">+</p>","null","fixation","","","","","","","","","","","","","","","","","","","","",""
"","","","","","html-slider-response","58","1074394","0.0-17.0-0.14","306418c8-50f7-49c0-ac38-5eb3399b6a86","1000","
                  <p style=""text-align: center;"">₪36
                                                <br>60%</p>
                  <p id=""wtp"" style=""text-align:center; margin-top: 0px; margin-bottom: 0px; font-size: 40px"";>&ensp;</p>","-","viewing","0","12","1C,7C,15C","","","","","","","","","","","","","","","","","",""
"","","","","","html-slider-response","59","1076637","0.0-17.0-1.14","306418c8-50f7-49c0-ac38-5eb3399b6a86","2242","
                  <p style=""text-align: center;"">₪36
                                                <br>60%</p>
                  <p id=""wtp"" style=""text-align:center; margin-top: 0px; margin-bottom: 0px; font-size: 40px"";>מוכנים לשלם: <span id=""c_p_y""></span></p>","40","evaluation","46","12","1C,7C,15C","60","36","40","","","","","","","","","","","","","","",""
"","","","","","html-keyboard-response","60","1077305","0.0-17.0-2.14","306418c8-50f7-49c0-ac38-5eb3399b6a86","null","<p style=""text-align: center;"">+</p>","null","fixation","","","","","","","","","","","","","","","","","","","","",""
"","","","","","html-slider-response","61","1078315","0.0-17.0-0.15","306418c8-50f7-49c0-ac38-5eb3399b6a86","1000","
                  <p style=""text-align: center;"">₪71
                                                <br>75%</p>
                  <p id=""wtp"" style=""text-align:center; margin-top: 0px; margin-bottom: 0px; font-size: 40px"";>&ensp;</p>","-","viewing","0","28","8B","","","","","","","","","","","","","","","","","",""
"","","","","","html-slider-response","62","1081581","0.0-17.0-1.15","306418c8-50f7-49c0-ac38-5eb3399b6a86","3264","
                  <p style=""text-align: center;"">₪71
                                                <br>75%</p>
                  <p id=""wtp"" style=""text-align:center; margin-top: 0px; margin-bottom: 0px; font-size: 40px"";>מוכנים לשלם: <span id=""c_p_y""></span></p>","70","evaluation","11","28","8B","75","71","70","","","","","","","","","","","","","","",""
"","","","","","html-keyboard-response","63","1082879","0.0-17.0-2.15","306418c8-50f7-49c0-ac38-5eb3399b6a86","null","<p style=""text-align: center;"">+</p>","null","fixation","","","","","","","","","","","","","","","","","","","","",""
"","","","","","html-slider-response","64","1083895","0.0-17.0-0.16","306418c8-50f7-49c0-ac38-5eb3399b6a86","1000","
                  <p style=""text-align: center;"">₪11
                                                <br>20%</p>
                  <p id=""wtp"" style=""text-align:center; margin-top: 0px; margin-bottom: 0px; font-size: 40px"";>&ensp;</p>","-","viewing","0","4","12C,17C,23C,28C","","","","","","","","","","","","","","","","","",""
"","","","","","html-slider-response","65","1086925","0.0-17.0-1.16","306418c8-50f7-49c0-ac38-5eb3399b6a86","3029","
                  <p style=""text-align: center;"">₪11
                                                <br>20%</p>
                  <p id=""wtp"" style=""text-align:center; margin-top: 0px; margin-bottom: 0px; font-size: 40px"";>מוכנים לשלם: <span id=""c_p_y""></span></p>","10","evaluation","29","4","12C,17C,23C,28C","20","11","10","","","","","","","","","","","","","","",""
"","","","","","html-keyboard-response","66","1088379","0.0-17.0-2.16","306418c8-50f7-49c0-ac38-5eb3399b6a86","null","<p style=""text-align: center;"">+</p>","null","fixation","","","","","","","","","","","","","","","","","","","","",""
"","","","","","html-slider-response","67","1089393","0.0-17.0-0.17","306418c8-50f7-49c0-ac38-5eb3399b6a86","1000","
                  <p style=""text-align: center;"">₪58
                                                <br>45%</p>
                  <p id=""wtp"" style=""text-align:center; margin-top: 0px; margin-bottom: 0px; font-size: 40px"";>&ensp;</p>","-","viewing","0","21","11C,18C,25A","","","","","","","","","","","","","","","","","",""
"","","","","","html-slider-response","68","1093173","0.0-17.0-1.17","306418c8-50f7-49c0-ac38-5eb3399b6a86","3779","
                  <p style=""text-align: center;"">₪58
                                                <br>45%</p>
                  <p id=""wtp"" style=""text-align:center; margin-top: 0px; margin-bottom: 0px; font-size: 40px"";>מוכנים לשלם: <span id=""c_p_y""></span></p>","40","evaluation","44","21","11C,18C,25A","45","58","40","","","","","","","","","","","","","","",""
"","","","","","html-keyboard-response","69","1094428","0.0-17.0-2.17","306418c8-50f7-49c0-ac38-5eb3399b6a86","null","<p style=""text-align: center;"">+</p>","null","fixation","","","","","","","","","","","","","","","","","","","","",""
"","","","","","html-slider-response","70","1095430","0.0-17.0-0.18","306418c8-50f7-49c0-ac38-5eb3399b6a86","1000","
                  <p style=""text-align: center;"">₪36
                                                <br>70%</p>
                  <p id=""wtp"" style=""text-align:center; margin-top: 0px; margin-bottom: 0px; font-size: 40px"";>&ensp;</p>","-","viewing","0","13","3A,5C,10B","","","","","","","","","","","","","","","","","",""
"","","","","","html-slider-response","71","1098589","0.0-17.0-1.18","306418c8-50f7-49c0-ac38-5eb3399b6a86","3158","
                  <p style=""text-align: center;"">₪36
                                                <br>70%</p>
                  <p id=""wtp"" style=""text-align:center; margin-top: 0px; margin-bottom: 0px; font-size: 40px"";>מוכנים לשלם: <span id=""c_p_y""></span></p>","40","evaluation","53","13","3A,5C,10B","70","36","40","","","","","","","","","","","","","","",""
"","","","","","html-keyboard-response","72","1099572","0.0-17.0-2.18","306418c8-50f7-49c0-ac38-5eb3399b6a86","null","<p style=""text-align: center;"">+</p>","null","fixation","","","","","","","","","","","","","","","","","","","","",""
"","","","","","html-slider-response","73","1100587","0.0-17.0-0.19","306418c8-50f7-49c0-ac38-5eb3399b6a86","1000","
                  <p style=""text-align: center;"">₪4
                                                <br>50%</p>
                  <p id=""wtp"" style=""text-align:center; margin-top: 0px; margin-bottom: 0px; font-size: 40px"";>&ensp;</p>","-","viewing","0","2","4C,17B","","","","","","","","","","","","","","","","","",""
"","","","","","html-slider-response","74","1102949","0.0-17.0-1.19","306418c8-50f7-49c0-ac38-5eb3399b6a86","2361","
                  <p style=""text-align: center;"">₪4
                                                <br>50%</p>
                  <p id=""wtp"" style=""text-align:center; margin-top: 0px; margin-bottom: 0px; font-size: 40px"";>מוכנים לשלם: <span id=""c_p_y""></span></p>","20","evaluation","22","2","4C,17B","50","4","20","","","","","","","","","","","","","","",""
"","","","","","html-keyboard-response","75","1103489","0.0-17.0-2.19","306418c8-50f7-49c0-ac38-5eb3399b6a86","null","<p style=""text-align: center;"">+</p>","null","fixation","","","","","","","","","","","","","","","","","","","","",""
"","","","","","html-slider-response","76","1104498","0.0-17.0-0.20","306418c8-50f7-49c0-ac38-5eb3399b6a86","1000","
                  <p style=""text-align: center;"">₪64
                                                <br>25%</p>
                  <p id=""wtp"" style=""text-align:center; margin-top: 0px; margin-bottom: 0px; font-size: 40px"";>&ensp;</p>","-","viewing","0","24","6A,21A","","","","","","","","","","","","","","","","","",""
"","","","","","html-slider-response","77","1107797","0.0-17.0-1.20","306418c8-50f7-49c0-ac38-5eb3399b6a86","3298","
                  <p style=""text-align: center;"">₪64
                                                <br>25%</p>
                  <p id=""wtp"" style=""text-align:center; margin-top: 0px; margin-bottom: 0px; font-size: 40px"";>מוכנים לשלם: <span id=""c_p_y""></span></p>","20","evaluation","54","24","6A,21A","25","64","20","","","","","","","","","","","","","","",""
"","","","","","html-keyboard-response","78","1108884","0.0-17.0-2.20","306418c8-50f7-49c0-ac38-5eb3399b6a86","null","<p style=""text-align: center;"">+</p>","null","fixation","","","","","","","","","","","","","","","","","","","","",""
"","","","","","html-slider-response","79","1109897","0.0-17.0-0.21","306418c8-50f7-49c0-ac38-5eb3399b6a86","1000","
                  <p style=""text-align: center;"">₪61
                                                <br>55%</p>
                  <p id=""wtp"" style=""text-align:center; margin-top: 0px; margin-bottom: 0px; font-size: 40px"";>&ensp;</p>","-","viewing","0","23","7B,26B","","","","","","","","","","","","","","","","","",""
"","","","","","html-slider-response","80","1113885","0.0-17.0-1.21","306418c8-50f7-49c0-ac38-5eb3399b6a86","3987","
                  <p style=""text-align: center;"">₪61
                                                <br>55%</p>
                  <p id=""wtp"" style=""text-align:center; margin-top: 0px; margin-bottom: 0px; font-size: 40px"";>מוכנים לשלם: <span id=""c_p_y""></span></p>","50","evaluation","55","23","7B,26B","55","61","50","","","","","","","","","","","","","","",""
"","","","","","html-keyboard-response","81","1114943","0.0-17.0-2.21","306418c8-50f7-49c0-ac38-5eb3399b6a86","null","<p style=""text-align: center;"">+</p>","null","fixation","","","","","","","","","","","","","","","","","","","","",""
"","","","","","html-slider-response","82","1115953","0.0-17.0-0.22","306418c8-50f7-49c0-ac38-5eb3399b6a86","1000","
                  <p style=""text-align: center;"">₪39
                                                <br>65%</p>
                  <p id=""wtp"" style=""text-align:center; margin-top: 0px; margin-bottom: 0px; font-size: 40px"";>&ensp;</p>","-","viewing","0","16","1A,15A,26C","","","","","","","","","","","","","","","","","",""
"","","","","","html-slider-response","83","1119477","0.0-17.0-1.22","306418c8-50f7-49c0-ac38-5eb3399b6a86","3523","
                  <p style=""text-align: center;"">₪39
                                                <br>65%</p>
                  <p id=""wtp"" style=""text-align:center; margin-top: 0px; margin-bottom: 0px; font-size: 40px"";>מוכנים לשלם: <span id=""c_p_y""></span></p>","40","evaluation","48","16","1A,15A,26C","65","39","40","","","","","","","","","","","","","","",""
"","","","","","html-keyboard-response","84","1120725","0.0-17.0-2.22","306418c8-50f7-49c0-ac38-5eb3399b6a86","null","<p style=""text-align: center;"">+</p>","null","fixation","","","","","","","","","","","","","","","","","","","","",""
"","","","","","html-slider-response","85","1121727","0.0-17.0-0.23","306418c8-50f7-49c0-ac38-5eb3399b6a86","1000","
                  <p style=""text-align: center;"">₪11
                                                <br>25%</p>
                  <p id=""wtp"" style=""text-align:center; margin-top: 0px; margin-bottom: 0px; font-size: 40px"";>&ensp;</p>","-","viewing","0","5","12A,27B,28B,30B","","","","","","","","","","","","","","","","","",""
"","","","","","html-slider-response","86","1125229","0.0-17.0-1.23","306418c8-50f7-49c0-ac38-5eb3399b6a86","3501","
                  <p style=""text-align: center;"">₪11
                                                <br>25%</p>
                  <p id=""wtp"" style=""text-align:center; margin-top: 0px; margin-bottom: 0px; font-size: 40px"";>מוכנים לשלם: <span id=""c_p_y""></span></p>","10","evaluation","43","5","12A,27B,28B,30B","25","11","10","","","","","","","","","","","","","","",""
"","","","","","html-keyboard-response","87","1126644","0.0-17.0-2.23","306418c8-50f7-49c0-ac38-5eb3399b6a86","null","<p style=""text-align: center;"">+</p>","null","fixation","","","","","","","","","","","","","","","","","","","","",""
"","","","","","html-slider-response","88","1127660","0.0-17.0-0.24","306418c8-50f7-49c0-ac38-5eb3399b6a86","1000","
                  <p style=""text-align: center;"">₪64
                                                <br>50%</p>
                  <p id=""wtp"" style=""text-align:center; margin-top: 0px; margin-bottom: 0px; font-size: 40px"";>&ensp;</p>","-","viewing","0","25","1B,3B,4A","","","","","","","","","","","","","","","","","",""
"","","","","","html-slider-response","89","1130093","0.0-17.0-1.24","306418c8-50f7-49c0-ac38-5eb3399b6a86","2433","
                  <p style=""text-align: center;"">₪64
                                                <br>50%</p>
                  <p id=""wtp"" style=""text-align:center; margin-top: 0px; margin-bottom: 0px; font-size: 40px"";>מוכנים לשלם: <span id=""c_p_y""></span></p>","50","evaluation","80","25","1B,3B,4A","50","64","50","","","","","","","","","","","","","","",""
"","","","","","html-keyboard-response","90","1131517","0.0-17.0-2.24","306418c8-50f7-49c0-ac38-5eb3399b6a86","null","<p style=""text-align: center;"">+</p>","null","fixation","","","","","","","","","","","","","","","","","","","","",""
"","","","","","html-slider-response","91","1132530","0.0-17.0-0.25","306418c8-50f7-49c0-ac38-5eb3399b6a86","1000","
                  <p style=""text-align: center;"">₪16
                                                <br>20%</p>
                  <p id=""wtp"" style=""text-align:center; margin-top: 0px; margin-bottom: 0px; font-size: 40px"";>&ensp;</p>","-","viewing","0","8","14C,17A,20C,27A","","","","","","","","","","","","","","","","","",""
"","","","","","html-slider-response","92","1135941","0.0-17.0-1.25","306418c8-50f7-49c0-ac38-5eb3399b6a86","3410","
                  <p style=""text-align: center;"">₪16
                                                <br>20%</p>
                  <p id=""wtp"" style=""text-align:center; margin-top: 0px; margin-bottom: 0px; font-size: 40px"";>מוכנים לשלם: <span id=""c_p_y""></span></p>","10","evaluation","9","8","14C,17A,20C,27A","20","16","10","","","","","","","","","","","","","","",""
"","","","","","html-keyboard-response","93","1136692","0.0-17.0-2.25","306418c8-50f7-49c0-ac38-5eb3399b6a86","null","<p style=""text-align: center;"">+</p>","null","fixation","","","","","","","","","","","","","","","","","","","","",""
"","","","","","html-slider-response","94","1137708","0.0-17.0-0.26","306418c8-50f7-49c0-ac38-5eb3399b6a86","1000","
                  <p style=""text-align: center;"">₪71
                                                <br>45%</p>
                  <p id=""wtp"" style=""text-align:center; margin-top: 0px; margin-bottom: 0px; font-size: 40px"";>&ensp;</p>","-","viewing","0","26","2B,16A","","","","","","","","","","","","","","","","","",""
"","","","","","html-slider-response","95","1141501","0.0-17.0-1.26","306418c8-50f7-49c0-ac38-5eb3399b6a86","3792","
                  <p style=""text-align: center;"">₪71
                                                <br>45%</p>
                  <p id=""wtp"" style=""text-align:center; margin-top: 0px; margin-bottom: 0px; font-size: 40px"";>מוכנים לשלם: <span id=""c_p_y""></span></p>","40","evaluation","76","26","2B,16A","45","71","40","","","","","","","","","","","","","","",""
"","","","","","html-keyboard-response","96","1142483","0.0-17.0-2.26","306418c8-50f7-49c0-ac38-5eb3399b6a86","null","<p style=""text-align: center;"">+</p>","null","fixation","","","","","","","","","","","","","","","","","","","","",""
"","","","","","html-slider-response","97","1143498","0.0-17.0-0.27","306418c8-50f7-49c0-ac38-5eb3399b6a86","1000","
                  <p style=""text-align: center;"">₪11
                                                <br>45%</p>
                  <p id=""wtp"" style=""text-align:center; margin-top: 0px; margin-bottom: 0px; font-size: 40px"";>&ensp;</p>","-","viewing","0","6","14B,21C,25C","","","","","","","","","","","","","","","","","",""
"","","","","","html-slider-response","98","1145373","0.0-17.0-1.27","306418c8-50f7-49c0-ac38-5eb3399b6a86","1873","
                  <p style=""text-align: center;"">₪11
                                                <br>45%</p>
                  <p id=""wtp"" style=""text-align:center; margin-top: 0px; margin-bottom: 0px; font-size: 40px"";>מוכנים לשלם: <span id=""c_p_y""></span></p>","20","evaluation","15","6","14B,21C,25C","45","11","20","","","","","","","","","","","","","","",""
"","","","","","html-keyboard-response","99","1146040","0.0-17.0-2.27","306418c8-50f7-49c0-ac38-5eb3399b6a86","null","<p style=""text-align: center;"">+</p>","null","fixation","","","","","","","","","","","","","","","","","","","","",""
"","","","","","html-slider-response","100","1147051","0.0-17.0-0.28","306418c8-50f7-49c0-ac38-5eb3399b6a86","1000","
                  <p style=""text-align: center;"">₪79
                                                <br>40%</p>
                  <p id=""wtp"" style=""text-align:center; margin-top: 0px; margin-bottom: 0px; font-size: 40px"";>&ensp;</p>","-","viewing","0","30","9B","","","","","","","","","","","","","","","","","",""
"","","","","","html-slider-response","101","1149677","0.0-17.0-1.28","306418c8-50f7-49c0-ac38-5eb3399b6a86","2625","
                  <p style=""text-align: center;"">₪79
                                                <br>40%</p>
                  <p id=""wtp"" style=""text-align:center; margin-top: 0px; margin-bottom: 0px; font-size: 40px"";>מוכנים לשלם: <span id=""c_p_y""></span></p>","40","evaluation","64","30","9B","40","79","40","","","","","","","","","","","","","","",""
"","","","","","html-keyboard-response","102","1150578","0.0-17.0-2.28","306418c8-50f7-49c0-ac38-5eb3399b6a86","null","<p style=""text-align: center;"">+</p>","null","fixation","","","","","","","","","","","","","","","","","","","","",""
"","","","","","html-slider-response","103","1151589","0.0-17.0-0.29","306418c8-50f7-49c0-ac38-5eb3399b6a86","1000","
                  <p style=""text-align: center;"">₪18
                                                <br>50%</p>
                  <p id=""wtp"" style=""text-align:center; margin-top: 0px; margin-bottom: 0px; font-size: 40px"";>&ensp;</p>","-","viewing","0","10","2C,16C,22B,28A","","","","","","","","","","","","","","","","","",""
"","","","","","html-slider-response","104","1154221","0.0-17.0-1.29","306418c8-50f7-49c0-ac38-5eb3399b6a86","2631","
                  <p style=""text-align: center;"">₪18
                                                <br>50%</p>
                  <p id=""wtp"" style=""text-align:center; margin-top: 0px; margin-bottom: 0px; font-size: 40px"";>מוכנים לשלם: <span id=""c_p_y""></span></p>","40","evaluation","23","10","2C,16C,22B,28A","50","18","40","","","","","","","","","","","","","","",""
"","","","","","html-keyboard-response","105","1155722","0.0-17.0-2.29","306418c8-50f7-49c0-ac38-5eb3399b6a86","null","<p style=""text-align: center;"">+</p>","null","fixation","","","","","","","","","","","","","","","","","","","","",""
"","","","","","html-slider-response","106","1156728","0.0-17.0-0.30","306418c8-50f7-49c0-ac38-5eb3399b6a86","1000","
                  <p style=""text-align: center;"">₪76
                                                <br>65%</p>
                  <p id=""wtp"" style=""text-align:center; margin-top: 0px; margin-bottom: 0px; font-size: 40px"";>&ensp;</p>","-","viewing","0","29","8C,19A,24B","","","","","","","","","","","","","","","","","",""
"","","","","","html-slider-response","107","1159029","0.0-17.0-1.30","306418c8-50f7-49c0-ac38-5eb3399b6a86","2300","
                  <p style=""text-align: center;"">₪76
                                                <br>65%</p>
                  <p id=""wtp"" style=""text-align:center; margin-top: 0px; margin-bottom: 0px; font-size: 40px"";>מוכנים לשלם: <span id=""c_p_y""></span></p>","60","evaluation","52","29","8C,19A,24B","65","76","60","","","","","","","","","","","","","","",""
"","","","","","html-keyboard-response","108","1160063","0.0-17.0-2.30","306418c8-50f7-49c0-ac38-5eb3399b6a86","null","<p style=""text-align: center;"">+</p>","null","fixation","","","","","","","","","","","","","","","","","","","","",""
"","","","","","html-keyboard-response","109","1161065","0.0-18.0","306418c8-50f7-49c0-ac38-5eb3399b6a86","null","<p style=""text-align: center;"">+</p>","null","fixation","","","","","","","","","","","","","","","","","","","","",""
"","","","","","html-keyboard-response","110","1164565","0.0-19.0","306418c8-50f7-49c0-ac38-5eb3399b6a86","null","<p>הפסקה.
          <br>לחצו כדי להמשיך.</p>","1","scan_wait","","","","","","","","","","","","","","","","","","","","",""
"","","","","","html-keyboard-response","111","1165565","0.0-20.0","306418c8-50f7-49c0-ac38-5eb3399b6a86","null","<p style=""text-align: center;"">+</p>","null","fixation","","","","","","","","","","","","","","","","","","","","",""
"","","","","","html-slider-response","112","1166567","0.0-21.0-0.0","306418c8-50f7-49c0-ac38-5eb3399b6a86","1000","
                  <p style=""text-align: center;"">₪58
                                                <br>45%</p>
                  <p id=""wtp"" style=""text-align:center; margin-top: 0px; margin-bottom: 0px; font-size: 40px"";>&ensp;</p>","-","viewing","0","21","11C,18C,25A","","","","","","","","","","","","","","","","","",""
"","","","","","html-slider-response","113","1168349","0.0-21.0-1.0","306418c8-50f7-49c0-ac38-5eb3399b6a86","1781","
                  <p style=""text-align: center;"">₪58
                                                <br>45%</p>
                  <p id=""wtp"" style=""text-align:center; margin-top: 0px; margin-bottom: 0px; font-size: 40px"";>מוכנים לשלם: <span id=""c_p_y""></span></p>","40","evaluation","18","21","11C,18C,25A","45","58","40","","","","","","","","","","","","","","",""
"","","","","","html-keyboard-response","114","1169169","0.0-21.0-2.0","306418c8-50f7-49c0-ac38-5eb3399b6a86","null","<p style=""text-align: center;"">+</p>","null","fixation","","","","","","","","","","","","","","","","","","","","",""
"","","","","","html-slider-response","115","1170174","0.0-21.0-0.1","306418c8-50f7-49c0-ac38-5eb3399b6a86","1000","
                  <p style=""text-align: center;"">₪79
                                                <br>40%</p>
                  <p id=""wtp"" style=""text-align:center; margin-top: 0px; margin-bottom: 0px; font-size: 40px"";>&ensp;</p>","-","viewing","0","30","9B","","","","","","","","","","","","","","","","","",""
"","","","","","html-slider-response","116","1174176","0.0-21.0-1.1","306418c8-50f7-49c0-ac38-5eb3399b6a86","null","
                  <p style=""text-align: center;"">₪79
                                                <br>40%</p>
                  <p id=""wtp"" style=""text-align:center; margin-top: 0px; margin-bottom: 0px; font-size: 40px"";>מוכנים לשלם: <span id=""c_p_y""></span></p>","null","evaluation","70","30","9B","40","79","39","","","","","","","","","","","","","","",""
"","","","","","html-keyboard-response","117","1175381","0.0-21.0-2.1","306418c8-50f7-49c0-ac38-5eb3399b6a86","null","<p style=""text-align: center;"">+</p>","null","fixation","","","","","","","","","","","","","","","","","","","","",""
"","","","","","html-slider-response","118","1176390","0.0-21.0-0.2","306418c8-50f7-49c0-ac38-5eb3399b6a86","1000","
                  <p style=""text-align: center;"">₪18
                                                <br>50%</p>
                  <p id=""wtp"" style=""text-align:center; margin-top: 0px; margin-bottom: 0px; font-size: 40px"";>&ensp;</p>","-","viewing","0","10","2C,16C,22B,28A","","","","","","","","","","","","","","","","","",""
"","","","","","html-slider-response","119","1179077","0.0-21.0-1.2","306418c8-50f7-49c0-ac38-5eb3399b6a86","2686","
                  <p style=""text-align: center;"">₪18
                                                <br>50%</p>
                  <p id=""wtp"" style=""text-align:center; margin-top: 0px; margin-bottom: 0px; font-size: 40px"";>מוכנים לשלם: <span id=""c_p_y""></span></p>","20","evaluation","32","10","2C,16C,22B,28A","50","18","20","","","","","","","","","","","","","","",""
"","","","","","html-keyboard-response","120","1180223","0.0-21.0-2.2","306418c8-50f7-49c0-ac38-5eb3399b6a86","null","<p style=""text-align: center;"">+</p>","null","fixation","","","","","","","","","","","","","","","","","","","","",""
"","","","","","html-slider-response","121","1181235","0.0-21.0-0.3","306418c8-50f7-49c0-ac38-5eb3399b6a86","1000","
                  <p style=""text-align: center;"">₪61
                                                <br>55%</p>
                  <p id=""wtp"" style=""text-align:center; margin-top: 0px; margin-bottom: 0px; font-size: 40px"";>&ensp;</p>","-","viewing","0","23","7B,26B","","","","","","","","","","","","","","","","","",""
"","","","","","html-slider-response","122","1184189","0.0-21.0-1.3","306418c8-50f7-49c0-ac38-5eb3399b6a86","2953","
                  <p style=""text-align: center;"">₪61
                                                <br>55%</p>
                  <p id=""wtp"" style=""text-align:center; margin-top: 0px; margin-bottom: 0px; font-size: 40px"";>מוכנים לשלם: <span id=""c_p_y""></span></p>","59","evaluation","7","23","7B,26B","55","61","59","","","","","","","","","","","","","","",""
"","","","","","html-keyboard-response","123","1185086","0.0-21.0-2.3","306418c8-50f7-49c0-ac38-5eb3399b6a86","null","<p style=""text-align: center;"">+</p>","null","fixation","","","","","","","","","","","","","","","","","","","","",""
"","","","","","html-slider-response","124","1186089","0.0-21.0-0.4","306418c8-50f7-49c0-ac38-5eb3399b6a86","1000","
                  <p style=""text-align: center;"">₪36
                                                <br>75%</p>
                  <p id=""wtp"" style=""text-align:center; margin-top: 0px; margin-bottom: 0px; font-size: 40px"";>&ensp;</p>","-","viewing","0","14","4B,5A,13B,16B","","","","","","","","","","","","","","","","","",""
"","","","","","html-slider-response","125","1187437","0.0-21.0-1.4","306418c8-50f7-49c0-ac38-5eb3399b6a86","1347","
                  <p style=""text-align: center;"">₪36
                                                <br>75%</p>
                  <p id=""wtp"" style=""text-align:center; margin-top: 0px; margin-bottom: 0px; font-size: 40px"";>מוכנים לשלם: <span id=""c_p_y""></span></p>","40","evaluation","4","14","4B,5A,13B,16B","75","36","40","","","","","","","","","","","","","","",""
"","","","","","html-keyboard-response","126","1188269","0.0-21.0-2.4","306418c8-50f7-49c0-ac38-5eb3399b6a86","null","<p style=""text-align: center;"">+</p>","null","fixation","","","","","","","","","","","","","","","","","","","","",""
"","","","","","html-slider-response","127","1189277","0.0-21.0-0.5","306418c8-50f7-49c0-ac38-5eb3399b6a86","1000","
                  <p style=""text-align: center;"">₪4
                                                <br>25%</p>
                  <p id=""wtp"" style=""text-align:center; margin-top: 0px; margin-bottom: 0px; font-size: 40px"";>&ensp;</p>","-","viewing","0","1","6C,29B,30C","","","","","","","","","","","","","","","","","",""
"","","","","","html-slider-response","128","1191733","0.0-21.0-1.5","306418c8-50f7-49c0-ac38-5eb3399b6a86","2454","
                  <p style=""text-align: center;"">₪4
                                                <br>25%</p>
                  <p id=""wtp"" style=""text-align:center; margin-top: 0px; margin-bottom: 0px; font-size: 40px"";>מוכנים לשלם: <span id=""c_p_y""></span></p>","7","evaluation","67","1","6C,29B,30C","25","4","7","","","","","","","","","","","","","","",""
"","","","","","html-keyboard-response","129","1193235","0.0-21.0-2.5","306418c8-50f7-49c0-ac38-5eb3399b6a86","null","<p style=""text-align: center;"">+</p>","null","fixation","","","","","","","","","","","","","","","","","","","","",""
"","","","","","html-slider-response","130","1194244","0.0-21.0-0.6","306418c8-50f7-49c0-ac38-5eb3399b6a86","1000","
                  <p style=""text-align: center;"">₪71
                                                <br>75%</p>
                  <p id=""wtp"" style=""text-align:center; margin-top: 0px; margin-bottom: 0px; font-size: 40px"";>&ensp;</p>","-","viewing","0","28","8B","","","","","","","","","","","","","","","","","",""
"","","","","","html-slider-response","131","1195789","0.0-21.0-1.6","306418c8-50f7-49c0-ac38-5eb3399b6a86","1543","
                  <p style=""text-align: center;"">₪71
                                                <br>75%</p>
                  <p id=""wtp"" style=""text-align:center; margin-top: 0px; margin-bottom: 0px; font-size: 40px"";>מוכנים לשלם: <span id=""c_p_y""></span></p>","60","evaluation","77","28","8B","75","71","60","","","","","","","","","","","","","","",""
"","","","","","html-keyboard-response","132","1197081","0.0-21.0-2.6","306418c8-50f7-49c0-ac38-5eb3399b6a86","null","<p style=""text-align: center;"">+</p>","null","fixation","","","","","","","","","","","","","","","","","","","","",""
"","","","","","html-slider-response","133","1198086","0.0-21.0-0.7","306418c8-50f7-49c0-ac38-5eb3399b6a86","1000","
                  <p style=""text-align: center;"">₪36
                                                <br>60%</p>
                  <p id=""wtp"" style=""text-align:center; margin-top: 0px; margin-bottom: 0px; font-size: 40px"";>&ensp;</p>","-","viewing","0","12","1C,7C,15C","","","","","","","","","","","","","","","","","",""
"","","","","","html-slider-response","134","1200141","0.0-21.0-1.7","306418c8-50f7-49c0-ac38-5eb3399b6a86","2054","
                  <p style=""text-align: center;"">₪36
                                                <br>60%</p>
                  <p id=""wtp"" style=""text-align:center; margin-top: 0px; margin-bottom: 0px; font-size: 40px"";>מוכנים לשלם: <span id=""c_p_y""></span></p>","40","evaluation","64","12","1C,7C,15C","60","36","40","","","","","","","","","","","","","","",""
"","","","","","html-keyboard-response","135","1201280","0.0-21.0-2.7","306418c8-50f7-49c0-ac38-5eb3399b6a86","null","<p style=""text-align: center;"">+</p>","null","fixation","","","","","","","","","","","","","","","","","","","","",""
"","","","","","html-slider-response","136","1202290","0.0-21.0-0.8","306418c8-50f7-49c0-ac38-5eb3399b6a86","1000","
                  <p style=""text-align: center;"">₪64
                                                <br>50%</p>
                  <p id=""wtp"" style=""text-align:center; margin-top: 0px; margin-bottom: 0px; font-size: 40px"";>&ensp;</p>","-","viewing","0","25","1B,3B,4A","","","","","","","","","","","","","","","","","",""
"","","","","","html-slider-response","137","1204829","0.0-21.0-1.8","306418c8-50f7-49c0-ac38-5eb3399b6a86","2538","
                  <p style=""text-align: center;"">₪64
                                                <br>50%</p>
                  <p id=""wtp"" style=""text-align:center; margin-top: 0px; margin-bottom: 0px; font-size: 40px"";>מוכנים לשלם: <span id=""c_p_y""></span></p>","40","evaluation","52","25","1B,3B,4A","50","64","40","","","","","","","","","","","","","","",""
"","","","","","html-keyboard-response","138","1206027","0.0-21.0-2.8","306418c8-50f7-49c0-ac38-5eb3399b6a86","null","<p style=""text-align: center;"">+</p>","null","fixation","","","","","","","","","","","","","","","","","","","","",""
"","","","","","html-slider-response","139","1207036","0.0-21.0-0.9","306418c8-50f7-49c0-ac38-5eb3399b6a86","1000","
                  <p style=""text-align: center;"">₪16
                                                <br>20%</p>
                  <p id=""wtp"" style=""text-align:center; margin-top: 0px; margin-bottom: 0px; font-size: 40px"";>&ensp;</p>","-","viewing","0","8","14C,17A,20C,27A","","","","","","","","","","","","","","","","","",""
"","","","","","html-slider-response","140","1209549","0.0-21.0-1.9","306418c8-50f7-49c0-ac38-5eb3399b6a86","2512","
                  <p style=""text-align: center;"">₪16
                                                <br>20%</p>
                  <p id=""wtp"" style=""text-align:center; margin-top: 0px; margin-bottom: 0px; font-size: 40px"";>מוכנים לשלם: <span id=""c_p_y""></span></p>","15","evaluation","46","8","14C,17A,20C,27A","20","16","15","","","","","","","","","","","","","","",""
"","","","","","html-keyboard-response","141","1210174","0.0-21.0-2.9","306418c8-50f7-49c0-ac38-5eb3399b6a86","null","<p style=""text-align: center;"">+</p>","null","fixation","","","","","","","","","","","","","","","","","","","","",""
"","","","","","html-slider-response","142","1211189","0.0-21.0-0.10","306418c8-50f7-49c0-ac38-5eb3399b6a86","1000","
                  <p style=""text-align: center;"">₪58
                                                <br>30%</p>
                  <p id=""wtp"" style=""text-align:center; margin-top: 0px; margin-bottom: 0px; font-size: 40px"";>&ensp;</p>","-","viewing","0","19","13C,30A","","","","","","","","","","","","","","","","","",""
"","","","","","html-slider-response","143","1213621","0.0-21.0-1.10","306418c8-50f7-49c0-ac38-5eb3399b6a86","2431","
                  <p style=""text-align: center;"">₪58
                                                <br>30%</p>
                  <p id=""wtp"" style=""text-align:center; margin-top: 0px; margin-bottom: 0px; font-size: 40px"";>מוכנים לשלם: <span id=""c_p_y""></span></p>","41","evaluation","0","19","13C,30A","30","58","41","","","","","","","","","","","","","","",""
"","","","","","html-keyboard-response","144","1215103","0.0-21.0-2.10","306418c8-50f7-49c0-ac38-5eb3399b6a86","null","<p style=""text-align: center;"">+</p>","null","fixation","","","","","","","","","","","","","","","","","","","","",""
"","","","","","html-slider-response","145","1216120","0.0-21.0-0.11","306418c8-50f7-49c0-ac38-5eb3399b6a86","1000","
                  <p style=""text-align: center;"">₪43
                                                <br>75%</p>
                  <p id=""wtp"" style=""text-align:center; margin-top: 0px; margin-bottom: 0px; font-size: 40px"";>&ensp;</p>","-","viewing","0","18","11B,19B,24A,26A","","","","","","","","","","","","","","","","","",""
"","","","","","html-slider-response","146","1218317","0.0-21.0-1.11","306418c8-50f7-49c0-ac38-5eb3399b6a86","2196","
                  <p style=""text-align: center;"">₪43
                                                <br>75%</p>
                  <p id=""wtp"" style=""text-align:center; margin-top: 0px; margin-bottom: 0px; font-size: 40px"";>מוכנים לשלם: <span id=""c_p_y""></span></p>","50","evaluation","23","18","11B,19B,24A,26A","75","43","50","","","","","","","","","","","","","","",""
"","","","","","html-keyboard-response","147","1219775","0.0-21.0-2.11","306418c8-50f7-49c0-ac38-5eb3399b6a86","null","<p style=""text-align: center;"">+</p>","null","fixation","","","","","","","","","","","","","","","","","","","","",""
"","","","","","html-slider-response","148","1220776","0.0-21.0-0.12","306418c8-50f7-49c0-ac38-5eb3399b6a86","1000","
                  <p style=""text-align: center;"">₪61
                                                <br>45%</p>
                  <p id=""wtp"" style=""text-align:center; margin-top: 0px; margin-bottom: 0px; font-size: 40px"";>&ensp;</p>","-","viewing","0","22","10A,11A","","","","","","","","","","","","","","","","","",""
"","","","","","html-slider-response","149","1224093","0.0-21.0-1.12","306418c8-50f7-49c0-ac38-5eb3399b6a86","3316","
                  <p style=""text-align: center;"">₪61
                                                <br>45%</p>
                  <p id=""wtp"" style=""text-align:center; margin-top: 0px; margin-bottom: 0px; font-size: 40px"";>מוכנים לשלם: <span id=""c_p_y""></span></p>","49","evaluation","52","22","10A,11A","45","61","49","","","","","","","","","","","","","","",""
"","","","","","html-keyboard-response","150","1225424","0.0-21.0-2.12","306418c8-50f7-49c0-ac38-5eb3399b6a86","null","<p style=""text-align: center;"">+</p>","null","fixation","","","","","","","","","","","","","","","","","","","","",""
"","","","","","html-slider-response","151","1226436","0.0-21.0-0.13","306418c8-50f7-49c0-ac38-5eb3399b6a86","1000","
                  <p style=""text-align: center;"">₪79
                                                <br>65%</p>
                  <p id=""wtp"" style=""text-align:center; margin-top: 0px; margin-bottom: 0px; font-size: 40px"";>&ensp;</p>","-","viewing","0","31","8A","","","","","","","","","","","","","","","","","",""
"","","","","","html-slider-response","152","1228925","0.0-21.0-1.13","306418c8-50f7-49c0-ac38-5eb3399b6a86","2488","
                  <p style=""text-align: center;"">₪79
                                                <br>65%</p>
                  <p id=""wtp"" style=""text-align:center; margin-top: 0px; margin-bottom: 0px; font-size: 40px"";>מוכנים לשלם: <span id=""c_p_y""></span></p>","53","evaluation","68","31","8A","65","79","53","","","","","","","","","","","","","","",""
"","","","","","html-keyboard-response","153","1230422","0.0-21.0-2.13","306418c8-50f7-49c0-ac38-5eb3399b6a86","null","<p style=""text-align: center;"">+</p>","null","fixation","","","","","","","","","","","","","","","","","","","","",""
"","","","","","html-slider-response","154","1231435","0.0-21.0-0.14","306418c8-50f7-49c0-ac38-5eb3399b6a86","1000","
                  <p style=""text-align: center;"">₪71
                                                <br>55%</p>
                  <p id=""wtp"" style=""text-align:center; margin-top: 0px; margin-bottom: 0px; font-size: 40px"";>&ensp;</p>","-","viewing","0","27","5B,18A","","","","","","","","","","","","","","","","","",""
"","","","","","html-slider-response","155","1232693","0.0-21.0-1.14","306418c8-50f7-49c0-ac38-5eb3399b6a86","1257","
                  <p style=""text-align: center;"">₪71
                                                <br>55%</p>
                  <p id=""wtp"" style=""text-align:center; margin-top: 0px; margin-bottom: 0px; font-size: 40px"";>מוכנים לשלם: <span id=""c_p_y""></span></p>","60","evaluation","63","27","5B,18A","55","71","60","","","","","","","","","","","","","","",""
"","","","","","html-keyboard-response","156","1233704","0.0-21.0-2.14","306418c8-50f7-49c0-ac38-5eb3399b6a86","null","<p style=""text-align: center;"">+</p>","null","fixation","","","","","","","","","","","","","","","","","","","","",""
"","","","","","html-slider-response","157","1234718","0.0-21.0-0.15","306418c8-50f7-49c0-ac38-5eb3399b6a86","1000","
                  <p style=""text-align: center;"">₪11
                                                <br>75%</p>
                  <p id=""wtp"" style=""text-align:center; margin-top: 0px; margin-bottom: 0px; font-size: 40px"";>&ensp;</p>","-","viewing","0","7","6B,18B,22C,24C,29A","","","","","","","","","","","","","","","","","",""
"","","","","","html-slider-response","158","1237645","0.0-21.0-1.15","306418c8-50f7-49c0-ac38-5eb3399b6a86","2926","
                  <p style=""text-align: center;"">₪11
                                                <br>75%</p>
                  <p id=""wtp"" style=""text-align:center; margin-top: 0px; margin-bottom: 0px; font-size: 40px"";>מוכנים לשלם: <span id=""c_p_y""></span></p>","21","evaluation","38","7","6B,18B,22C,24C,29A","75","11","21","","","","","","","","","","","","","","",""
"","","","","","html-keyboard-response","159","1238500","0.0-21.0-2.15","306418c8-50f7-49c0-ac38-5eb3399b6a86","null","<p style=""text-align: center;"">+</p>","null","fixation","","","","","","","","","","","","","","","","","","","","",""
"","","","","","html-slider-response","160","1239506","0.0-21.0-0.16","306418c8-50f7-49c0-ac38-5eb3399b6a86","1000","
                  <p style=""text-align: center;"">₪11
                                                <br>20%</p>
                  <p id=""wtp"" style=""text-align:center; margin-top: 0px; margin-bottom: 0px; font-size: 40px"";>&ensp;</p>","-","viewing","0","4","12C,17C,23C,28C","","","","","","","","","","","","","","","","","",""
"","","","","","html-slider-response","161","1242925","0.0-21.0-1.16","306418c8-50f7-49c0-ac38-5eb3399b6a86","3418","
                  <p style=""text-align: center;"">₪11
                                                <br>20%</p>
                  <p id=""wtp"" style=""text-align:center; margin-top: 0px; margin-bottom: 0px; font-size: 40px"";>מוכנים לשלם: <span id=""c_p_y""></span></p>","11","evaluation","64","4","12C,17C,23C,28C","20","11","11","","","","","","","","","","","","","","",""
"","","","","","html-keyboard-response","162","1244087","0.0-21.0-2.16","306418c8-50f7-49c0-ac38-5eb3399b6a86","null","<p style=""text-align: center;"">+</p>","null","fixation","","","","","","","","","","","","","","","","","","","","",""
"","","","","","html-slider-response","163","1245099","0.0-21.0-0.17","306418c8-50f7-49c0-ac38-5eb3399b6a86","1000","
                  <p style=""text-align: center;"">₪58
                                                <br>40%</p>
                  <p id=""wtp"" style=""text-align:center; margin-top: 0px; margin-bottom: 0px; font-size: 40px"";>&ensp;</p>","-","viewing","0","20","10C,13A,19C,21B","","","","","","","","","","","","","","","","","",""
"","","","","","html-slider-response","164","1247189","0.0-21.0-1.17","306418c8-50f7-49c0-ac38-5eb3399b6a86","2089","
                  <p style=""text-align: center;"">₪58
                                                <br>40%</p>
                  <p id=""wtp"" style=""text-align:center; margin-top: 0px; margin-bottom: 0px; font-size: 40px"";>מוכנים לשלם: <span id=""c_p_y""></span></p>","51","evaluation","26","20","10C,13A,19C,21B","40","58","51","","","","","","","","","","","","","","",""
"","","","","","html-keyboard-response","165","1248476","0.0-21.0-2.17","306418c8-50f7-49c0-ac38-5eb3399b6a86","null","<p style=""text-align: center;"">+</p>","null","fixation","","","","","","","","","","","","","","","","","","","","",""
"","","","","","html-slider-response","166","1249487","0.0-21.0-0.18","306418c8-50f7-49c0-ac38-5eb3399b6a86","1000","
                  <p style=""text-align: center;"">₪11
                                                <br>25%</p>
                  <p id=""wtp"" style=""text-align:center; margin-top: 0px; margin-bottom: 0px; font-size: 40px"";>&ensp;</p>","-","viewing","0","5","12A,27B,28B,30B","","","","","","","","","","","","","","","","","",""
"","","","","","html-slider-response","167","1252197","0.0-21.0-1.18","306418c8-50f7-49c0-ac38-5eb3399b6a86","2709","
                  <p style=""text-align: center;"">₪11
                                                <br>25%</p>
                  <p id=""wtp"" style=""text-align:center; margin-top: 0px; margin-bottom: 0px; font-size: 40px"";>מוכנים לשלם: <span id=""c_p_y""></span></p>","28","evaluation","26","5","12A,27B,28B,30B","25","11","28","","","","","","","","","","","","","","",""
"","","","","","html-keyboard-response","168","1253066","0.0-21.0-2.18","306418c8-50f7-49c0-ac38-5eb3399b6a86","null","<p style=""text-align: center;"">+</p>","null","fixation","","","","","","","","","","","","","","","","","","","","",""
"","","","","","html-slider-response","169","1254076","0.0-21.0-0.19","306418c8-50f7-49c0-ac38-5eb3399b6a86","1000","
                  <p style=""text-align: center;"">₪39
                                                <br>65%</p>
                  <p id=""wtp"" style=""text-align:center; margin-top: 0px; margin-bottom: 0px; font-size: 40px"";>&ensp;</p>","-","viewing","0","16","1A,15A,26C","","","","","","","","","","","","","","","","","",""
"","","","","","html-slider-response","170","1256149","0.0-21.0-1.19","306418c8-50f7-49c0-ac38-5eb3399b6a86","2072","
                  <p style=""text-align: center;"">₪39
                                                <br>65%</p>
                  <p id=""wtp"" style=""text-align:center; margin-top: 0px; margin-bottom: 0px; font-size: 40px"";>מוכנים לשלם: <span id=""c_p_y""></span></p>","40","evaluation","38","16","1A,15A,26C","65","39","40","","","","","","","","","","","","","","",""
"","","","","","html-keyboard-response","171","1257458","0.0-21.0-2.19","306418c8-50f7-49c0-ac38-5eb3399b6a86","null","<p style=""text-align: center;"">+</p>","null","fixation","","","","","","","","","","","","","","","","","","","","",""
"","","","","","html-slider-response","172","1258463","0.0-21.0-0.20","306418c8-50f7-49c0-ac38-5eb3399b6a86","1000","
                  <p style=""text-align: center;"">₪43
                                                <br>60%</p>
                  <p id=""wtp"" style=""text-align:center; margin-top: 0px; margin-bottom: 0px; font-size: 40px"";>&ensp;</p>","-","viewing","0","17","2A,7A,9A,15B","","","","","","","","","","","","","","","","","",""
"","","","","","html-slider-response","173","1260797","0.0-21.0-1.20","306418c8-50f7-49c0-ac38-5eb3399b6a86","2333","
                  <p style=""text-align: center;"">₪43
                                                <br>60%</p>
                  <p id=""wtp"" style=""text-align:center; margin-top: 0px; margin-bottom: 0px; font-size: 40px"";>מוכנים לשלם: <span id=""c_p_y""></span></p>","40","evaluation","9","17","2A,7A,9A,15B","60","43","40","","","","","","","","","","","","","","",""
"","","","","","html-keyboard-response","174","1261675","0.0-21.0-2.20","306418c8-50f7-49c0-ac38-5eb3399b6a86","null","<p style=""text-align: center;"">+</p>","null","fixation","","","","","","","","","","","","","","","","","","","","",""
"","","","","","html-slider-response","175","1262684","0.0-21.0-0.21","306418c8-50f7-49c0-ac38-5eb3399b6a86","1000","
                  <p style=""text-align: center;"">₪36
                                                <br>70%</p>
                  <p id=""wtp"" style=""text-align:center; margin-top: 0px; margin-bottom: 0px; font-size: 40px"";>&ensp;</p>","-","viewing","0","13","3A,5C,10B","","","","","","","","","","","","","","","","","",""
"","","","","","html-slider-response","176","1264069","0.0-21.0-1.21","306418c8-50f7-49c0-ac38-5eb3399b6a86","1384","
                  <p style=""text-align: center;"">₪36
                                                <br>70%</p>
                  <p id=""wtp"" style=""text-align:center; margin-top: 0px; margin-bottom: 0px; font-size: 40px"";>מוכנים לשלם: <span id=""c_p_y""></span></p>","40","evaluation","80","13","3A,5C,10B","70","36","40","","","","","","","","","","","","","","",""
"","","","","","html-keyboard-response","177","1265128","0.0-21.0-2.21","306418c8-50f7-49c0-ac38-5eb3399b6a86","null","<p style=""text-align: center;"">+</p>","null","fixation","","","","","","","","","","","","","","","","","","","","",""
"","","","","","html-slider-response","178","1266135","0.0-21.0-0.22","306418c8-50f7-49c0-ac38-5eb3399b6a86","1000","
                  <p style=""text-align: center;"">₪4
                                                <br>75%</p>
                  <p id=""wtp"" style=""text-align:center; margin-top: 0px; margin-bottom: 0px; font-size: 40px"";>&ensp;</p>","-","viewing","0","3","12B,20B,23B,27C,29C","","","","","","","","","","","","","","","","","",""
"","","","","","html-slider-response","179","1270029","0.0-21.0-1.22","306418c8-50f7-49c0-ac38-5eb3399b6a86","3893","
                  <p style=""text-align: center;"">₪4
                                                <br>75%</p>
                  <p id=""wtp"" style=""text-align:center; margin-top: 0px; margin-bottom: 0px; font-size: 40px"";>מוכנים לשלם: <span id=""c_p_y""></span></p>","50","evaluation","80","3","12B,20B,23B,27C,29C","75","4","50","","","","","","","","","","","","","","",""
"","","","","","html-keyboard-response","180","1270760","0.0-21.0-2.22","306418c8-50f7-49c0-ac38-5eb3399b6a86","null","<p style=""text-align: center;"">+</p>","null","fixation","","","","","","","","","","","","","","","","","","","","",""
"","","","","","html-slider-response","181","1271776","0.0-21.0-0.23","306418c8-50f7-49c0-ac38-5eb3399b6a86","1000","
                  <p style=""text-align: center;"">₪11
                                                <br>45%</p>
                  <p id=""wtp"" style=""text-align:center; margin-top: 0px; margin-bottom: 0px; font-size: 40px"";>&ensp;</p>","-","viewing","0","6","14B,21C,25C","","","","","","","","","","","","","","","","","",""
"","","","","","html-slider-response","182","1275790","0.0-21.0-1.23","306418c8-50f7-49c0-ac38-5eb3399b6a86","null","
                  <p style=""text-align: center;"">₪11
                                                <br>45%</p>
                  <p id=""wtp"" style=""text-align:center; margin-top: 0px; margin-bottom: 0px; font-size: 40px"";>מוכנים לשלם: <span id=""c_p_y""></span></p>","null","evaluation","40","6","14B,21C,25C","45","11","12","","","","","","","","","","","","","","",""
"","","","","","html-keyboard-response","183","1276925","0.0-21.0-2.23","306418c8-50f7-49c0-ac38-5eb3399b6a86","null","<p style=""text-align: center;"">+</p>","null","fixation","","","","","","","","","","","","","","","","","","","","",""
"","","","","","html-slider-response","184","1277932","0.0-21.0-0.24","306418c8-50f7-49c0-ac38-5eb3399b6a86","1000","
                  <p style=""text-align: center;"">₪64
                                                <br>25%</p>
                  <p id=""wtp"" style=""text-align:center; margin-top: 0px; margin-bottom: 0px; font-size: 40px"";>&ensp;</p>","-","viewing","0","24","6A,21A","","","","","","","","","","","","","","","","","",""
"","","","","","html-slider-response","185","1280709","0.0-21.0-1.24","306418c8-50f7-49c0-ac38-5eb3399b6a86","2776","
                  <p style=""text-align: center;"">₪64
                                                <br>25%</p>
                  <p id=""wtp"" style=""text-align:center; margin-top: 0px; margin-bottom: 0px; font-size: 40px"";>מוכנים לשלם: <span id=""c_p_y""></span></p>","20","evaluation","57","24","6A,21A","25","64","20","","","","","","","","","","","","","","",""
"","","","","","html-keyboard-response","186","1281297","0.0-21.0-2.24","306418c8-50f7-49c0-ac38-5eb3399b6a86","null","<p style=""text-align: center;"">+</p>","null","fixation","","","","","","","","","","","","","","","","","","","","",""
"","","","","","html-slider-response","187","1282312","0.0-21.0-0.25","306418c8-50f7-49c0-ac38-5eb3399b6a86","1000","
                  <p style=""text-align: center;"">₪76
                                                <br>65%</p>
                  <p id=""wtp"" style=""text-align:center; margin-top: 0px; margin-bottom: 0px; font-size: 40px"";>&ensp;</p>","-","viewing","0","29","8C,19A,24B","","","","","","","","","","","","","","","","","",""
"","","","","","html-slider-response","188","1284485","0.0-21.0-1.25","306418c8-50f7-49c0-ac38-5eb3399b6a86","2172","
                  <p style=""text-align: center;"">₪76
                                                <br>65%</p>
                  <p id=""wtp"" style=""text-align:center; margin-top: 0px; margin-bottom: 0px; font-size: 40px"";>מוכנים לשלם: <span id=""c_p_y""></span></p>","60","evaluation","15","29","8C,19A,24B","65","76","60","","","","","","","","","","","","","","",""
"","","","","","html-keyboard-response","189","1285615","0.0-21.0-2.25","306418c8-50f7-49c0-ac38-5eb3399b6a86","null","<p style=""text-align: center;"">+</p>","null","fixation","","","","","","","","","","","","","","","","","","","","",""
"","","","","","html-slider-response","190","1286625","0.0-21.0-0.26","306418c8-50f7-49c0-ac38-5eb3399b6a86","1000","
                  <p style=""text-align: center;"">₪71
                                                <br>45%</p>
                  <p id=""wtp"" style=""text-align:center; margin-top: 0px; margin-bottom: 0px; font-size: 40px"";>&ensp;</p>","-","viewing","0","26","2B,16A","","","","","","","","","","","","","","","","","",""
"","","","","","html-slider-response","191","1289165","0.0-21.0-1.26","306418c8-50f7-49c0-ac38-5eb3399b6a86","2539","
                  <p style=""text-align: center;"">₪71
                                                <br>45%</p>
                  <p id=""wtp"" style=""text-align:center; margin-top: 0px; margin-bottom: 0px; font-size: 40px"";>מוכנים לשלם: <span id=""c_p_y""></span></p>","51","evaluation","72","26","2B,16A","45","71","51","","","","","","","","","","","","","","",""
"","","","","","html-keyboard-response","192","1289891","0.0-21.0-2.26","306418c8-50f7-49c0-ac38-5eb3399b6a86","null","<p style=""text-align: center;"">+</p>","null","fixation","","","","","","","","","","","","","","","","","","","","",""
"","","","","","html-slider-response","193","1290902","0.0-21.0-0.27","306418c8-50f7-49c0-ac38-5eb3399b6a86","1000","
                  <p style=""text-align: center;"">₪39
                                                <br>60%</p>
                  <p id=""wtp"" style=""text-align:center; margin-top: 0px; margin-bottom: 0px; font-size: 40px"";>&ensp;</p>","-","viewing","0","15","9C,25B","","","","","","","","","","","","","","","","","",""
"","","","","","html-slider-response","194","1292973","0.0-21.0-1.27","306418c8-50f7-49c0-ac38-5eb3399b6a86","2070","
                  <p style=""text-align: center;"">₪39
                                                <br>60%</p>
                  <p id=""wtp"" style=""text-align:center; margin-top: 0px; margin-bottom: 0px; font-size: 40px"";>מוכנים לשלם: <span id=""c_p_y""></span></p>","50","evaluation","28","15","9C,25B","60","39","50","","","","","","","","","","","","","","",""
"","","","","","html-keyboard-response","195","1293778","0.0-21.0-2.27","306418c8-50f7-49c0-ac38-5eb3399b6a86","null","<p style=""text-align: center;"">+</p>","null","fixation","","","","","","","","","","","","","","","","","","","","",""
"","","","","","html-slider-response","196","1294783","0.0-21.0-0.28","306418c8-50f7-49c0-ac38-5eb3399b6a86","1000","
                  <p style=""text-align: center;"">₪18
                                                <br>25%</p>
                  <p id=""wtp"" style=""text-align:center; margin-top: 0px; margin-bottom: 0px; font-size: 40px"";>&ensp;</p>","-","viewing","0","9","14A,23A","","","","","","","","","","","","","","","","","",""
"","","","","","html-slider-response","197","1296349","0.0-21.0-1.28","306418c8-50f7-49c0-ac38-5eb3399b6a86","1565","
                  <p style=""text-align: center;"">₪18
                                                <br>25%</p>
                  <p id=""wtp"" style=""text-align:center; margin-top: 0px; margin-bottom: 0px; font-size: 40px"";>מוכנים לשלם: <span id=""c_p_y""></span></p>","12","evaluation","35","9","14A,23A","25","18","12","","","","","","","","","","","","","","",""
"","","","","","html-keyboard-response","198","1297150","0.0-21.0-2.28","306418c8-50f7-49c0-ac38-5eb3399b6a86","null","<p style=""text-align: center;"">+</p>","null","fixation","","","","","","","","","","","","","","","","","","","","",""
"","","","","","html-slider-response","199","1298165","0.0-21.0-0.29","306418c8-50f7-49c0-ac38-5eb3399b6a86","1000","
                  <p style=""text-align: center;"">₪36
                                                <br>30%</p>
                  <p id=""wtp"" style=""text-align:center; margin-top: 0px; margin-bottom: 0px; font-size: 40px"";>&ensp;</p>","-","viewing","0","11","3C,20A,22A","","","","","","","","","","","","","","","","","",""
"","","","","","html-slider-response","200","1300045","0.0-21.0-1.29","306418c8-50f7-49c0-ac38-5eb3399b6a86","1879","
                  <p style=""text-align: center;"">₪36
                                                <br>30%</p>
                  <p id=""wtp"" style=""text-align:center; margin-top: 0px; margin-bottom: 0px; font-size: 40px"";>מוכנים לשלם: <span id=""c_p_y""></span></p>","20","evaluation","5","11","3C,20A,22A","30","36","20","","","","","","","","","","","","","","",""
"","","","","","html-keyboard-response","201","1301070","0.0-21.0-2.29","306418c8-50f7-49c0-ac38-5eb3399b6a86","null","<p style=""text-align: center;"">+</p>","null","fixation","","","","","","","","","","","","","","","","","","","","",""
"","","","","","html-slider-response","202","1302073","0.0-21.0-0.30","306418c8-50f7-49c0-ac38-5eb3399b6a86","1000","
                  <p style=""text-align: center;"">₪4
                                                <br>50%</p>
                  <p id=""wtp"" style=""text-align:center; margin-top: 0px; margin-bottom: 0px; font-size: 40px"";>&ensp;</p>","-","viewing","0","2","4C,17B","","","","","","","","","","","","","","","","","",""
"","","","","","html-slider-response","203","1304109","0.0-21.0-1.30","306418c8-50f7-49c0-ac38-5eb3399b6a86","2034","
                  <p style=""text-align: center;"">₪4
                                                <br>50%</p>
                  <p id=""wtp"" style=""text-align:center; margin-top: 0px; margin-bottom: 0px; font-size: 40px"";>מוכנים לשלם: <span id=""c_p_y""></span></p>","9","evaluation","58","2","4C,17B","50","4","9","","","","","","","","","","","","","","",""
"","","","","","html-keyboard-response","204","1305032","0.0-21.0-2.30","306418c8-50f7-49c0-ac38-5eb3399b6a86","null","<p style=""text-align: center;"">+</p>","null","fixation","","","","","","","","","","","","","","","","","","","","",""
"","","","","","html-keyboard-response","205","1306044","0.0-22.0","306418c8-50f7-49c0-ac38-5eb3399b6a86","null","<p style=""text-align: center;"">+</p>","null","fixation","","","","","","","","","","","","","","","","","","","","",""
"","","","","","html-keyboard-response","206","1308981","0.0-23.0","306418c8-50f7-49c0-ac38-5eb3399b6a86","null","<p>הפסקה.
          <br>לחצו כדי להמשיך.</p>","1","scan_wait","","","","","","","","","","","","","","","","","","","","",""
"","","","","","html-keyboard-response","207","1309994","0.0-24.0","306418c8-50f7-49c0-ac38-5eb3399b6a86","null","<p style=""text-align: center;"">+</p>","null","fixation","","","","","","","","","","","","","","","","","","","","",""
"","","","","","html-slider-response","208","1310995","0.0-25.0-0.0","306418c8-50f7-49c0-ac38-5eb3399b6a86","1000","
                  <p style=""text-align: center;"">₪79
                                                <br>65%</p>
                  <p id=""wtp"" style=""text-align:center; margin-top: 0px; margin-bottom: 0px; font-size: 40px"";>&ensp;</p>","-","viewing","0","31","8A","","","","","","","","","","","","","","","","","",""
"","","","","","html-slider-response","209","1312077","0.0-25.0-1.0","306418c8-50f7-49c0-ac38-5eb3399b6a86","1081","
                  <p style=""text-align: center;"">₪79
                                                <br>65%</p>
                  <p id=""wtp"" style=""text-align:center; margin-top: 0px; margin-bottom: 0px; font-size: 40px"";>מוכנים לשלם: <span id=""c_p_y""></span></p>","60","evaluation","5","31","8A","65","79","60","","","","","","","","","","","","","","",""
"","","","","","html-keyboard-response","210","1312942","0.0-25.0-2.0","306418c8-50f7-49c0-ac38-5eb3399b6a86","null","<p style=""text-align: center;"">+</p>","null","fixation","","","","","","","","","","","","","","","","","","","","",""
"","","","","","html-slider-response","211","1313951","0.0-25.0-0.1","306418c8-50f7-49c0-ac38-5eb3399b6a86","1000","
                  <p style=""text-align: center;"">₪4
                                                <br>25%</p>
                  <p id=""wtp"" style=""text-align:center; margin-top: 0px; margin-bottom: 0px; font-size: 40px"";>&ensp;</p>","-","viewing","0","1","6C,29B,30C","","","","","","","","","","","","","","","","","",""
"","","","","","html-slider-response","212","1315069","0.0-25.0-1.1","306418c8-50f7-49c0-ac38-5eb3399b6a86","1117","
                  <p style=""text-align: center;"">₪4
                                                <br>25%</p>
                  <p id=""wtp"" style=""text-align:center; margin-top: 0px; margin-bottom: 0px; font-size: 40px"";>מוכנים לשלם: <span id=""c_p_y""></span></p>","40","evaluation","54","1","6C,29B,30C","25","4","40","","","","","","","","","","","","","","",""
"","","","","","html-keyboard-response","213","1316133","0.0-25.0-2.1","306418c8-50f7-49c0-ac38-5eb3399b6a86","null","<p style=""text-align: center;"">+</p>","null","fixation","","","","","","","","","","","","","","","","","","","","",""
"","","","","","html-slider-response","214","1317138","0.0-25.0-0.2","306418c8-50f7-49c0-ac38-5eb3399b6a86","1000","
                  <p style=""text-align: center;"">₪16
                                                <br>20%</p>
                  <p id=""wtp"" style=""text-align:center; margin-top: 0px; margin-bottom: 0px; font-size: 40px"";>&ensp;</p>","-","viewing","0","8","14C,17A,20C,27A","","","","","","","","","","","","","","","","","",""
"","","","","","html-slider-response","215","1318717","0.0-25.0-1.2","306418c8-50f7-49c0-ac38-5eb3399b6a86","1577","
                  <p style=""text-align: center;"">₪16
                                                <br>20%</p>
                  <p id=""wtp"" style=""text-align:center; margin-top: 0px; margin-bottom: 0px; font-size: 40px"";>מוכנים לשלם: <span id=""c_p_y""></span></p>","59","evaluation","26","8","14C,17A,20C,27A","20","16","59","","","","","","","","","","","","","","",""
"","","","","","html-keyboard-response","216","1319395","0.0-25.0-2.2","306418c8-50f7-49c0-ac38-5eb3399b6a86","null","<p style=""text-align: center;"">+</p>","null","fixation","","","","","","","","","","","","","","","","","","","","",""
"","","","","","html-slider-response","217","1320407","0.0-25.0-0.3","306418c8-50f7-49c0-ac38-5eb3399b6a86","1000","
                  <p style=""text-align: center;"">₪79
                                                <br>40%</p>
                  <p id=""wtp"" style=""text-align:center; margin-top: 0px; margin-bottom: 0px; font-size: 40px"";>&ensp;</p>","-","viewing","0","30","9B","","","","","","","","","","","","","","","","","",""
"","","","","","html-slider-response","218","1323517","0.0-25.0-1.3","306418c8-50f7-49c0-ac38-5eb3399b6a86","3109","
                  <p style=""text-align: center;"">₪79
                                                <br>40%</p>
                  <p id=""wtp"" style=""text-align:center; margin-top: 0px; margin-bottom: 0px; font-size: 40px"";>מוכנים לשלם: <span id=""c_p_y""></span></p>","58","evaluation","72","30","9B","40","79","58","","","","","","","","","","","","","","",""
"","","","","","html-keyboard-response","219","1324356","0.0-25.0-2.3","306418c8-50f7-49c0-ac38-5eb3399b6a86","null","<p style=""text-align: center;"">+</p>","null","fixation","","","","","","","","","","","","","","","","","","","","",""
"","","","","","html-slider-response","220","1325360","0.0-25.0-0.4","306418c8-50f7-49c0-ac38-5eb3399b6a86","1000","
                  <p style=""text-align: center;"">₪36
                                                <br>70%</p>
                  <p id=""wtp"" style=""text-align:center; margin-top: 0px; margin-bottom: 0px; font-size: 40px"";>&ensp;</p>","-","viewing","0","13","3A,5C,10B","","","","","","","","","","","","","","","","","",""
"","","","","","html-slider-response","221","1327012","0.0-25.0-1.4","306418c8-50f7-49c0-ac38-5eb3399b6a86","1652","
                  <p style=""text-align: center;"">₪36
                                                <br>70%</p>
                  <p id=""wtp"" style=""text-align:center; margin-top: 0px; margin-bottom: 0px; font-size: 40px"";>מוכנים לשלם: <span id=""c_p_y""></span></p>","40","evaluation","22","13","3A,5C,10B","70","36","40","","","","","","","","","","","","","","",""
"","","","","","html-keyboard-response","222","1327969","0.0-25.0-2.4","306418c8-50f7-49c0-ac38-5eb3399b6a86","null","<p style=""text-align: center;"">+</p>","null","fixation","","","","","","","","","","","","","","","","","","","","",""
"","","","","","html-slider-response","223","1328982","0.0-25.0-0.5","306418c8-50f7-49c0-ac38-5eb3399b6a86","1000","
                  <p style=""text-align: center;"">₪71
                                                <br>55%</p>
                  <p id=""wtp"" style=""text-align:center; margin-top: 0px; margin-bottom: 0px; font-size: 40px"";>&ensp;</p>","-","viewing","0","27","5B,18A","","","","","","","","","","","","","","","","","",""
"","","","","","html-slider-response","224","1331285","0.0-25.0-1.5","306418c8-50f7-49c0-ac38-5eb3399b6a86","2301","
                  <p style=""text-align: center;"">₪71
                                                <br>55%</p>
                  <p id=""wtp"" style=""text-align:center; margin-top: 0px; margin-bottom: 0px; font-size: 40px"";>מוכנים לשלם: <span id=""c_p_y""></span></p>","49","evaluation","75","27","5B,18A","55","71","49","","","","","","","","","","","","","","",""
"","","","","","html-keyboard-response","225","1332004","0.0-25.0-2.5","306418c8-50f7-49c0-ac38-5eb3399b6a86","null","<p style=""text-align: center;"">+</p>","null","fixation","","","","","","","","","","","","","","","","","","","","",""
"","","","","","html-slider-response","226","1333015","0.0-25.0-0.6","306418c8-50f7-49c0-ac38-5eb3399b6a86","1000","
                  <p style=""text-align: center;"">₪64
                                                <br>25%</p>
                  <p id=""wtp"" style=""text-align:center; margin-top: 0px; margin-bottom: 0px; font-size: 40px"";>&ensp;</p>","-","viewing","0","24","6A,21A","","","","","","","","","","","","","","","","","",""
"","","","","","html-slider-response","227","1336085","0.0-25.0-1.6","306418c8-50f7-49c0-ac38-5eb3399b6a86","3069","
                  <p style=""text-align: center;"">₪64
                                                <br>25%</p>
                  <p id=""wtp"" style=""text-align:center; margin-top: 0px; margin-bottom: 0px; font-size: 40px"";>מוכנים לשלם: <span id=""c_p_y""></span></p>","30","evaluation","25","24","6A,21A","25","64","30","","","","","","","","","","","","","","",""
"","","","","","html-keyboard-response","228","1336841","0.0-25.0-2.6","306418c8-50f7-49c0-ac38-5eb3399b6a86","null","<p style=""text-align: center;"">+</p>","null","fixation","","","","","","","","","","","","","","","","","","","","",""
"","","","","","html-slider-response","229","1337843","0.0-25.0-0.7","306418c8-50f7-49c0-ac38-5eb3399b6a86","1000","
                  <p style=""text-align: center;"">₪18
                                                <br>50%</p>
                  <p id=""wtp"" style=""text-align:center; margin-top: 0px; margin-bottom: 0px; font-size: 40px"";>&ensp;</p>","-","viewing","0","10","2C,16C,22B,28A","","","","","","","","","","","","","","","","","",""
"","","","","","html-slider-response","230","1339973","0.0-25.0-1.7","306418c8-50f7-49c0-ac38-5eb3399b6a86","2129","
                  <p style=""text-align: center;"">₪18
                                                <br>50%</p>
                  <p id=""wtp"" style=""text-align:center; margin-top: 0px; margin-bottom: 0px; font-size: 40px"";>מוכנים לשלם: <span id=""c_p_y""></span></p>","21","evaluation","6","10","2C,16C,22B,28A","50","18","21","","","","","","","","","","","","","","",""
"","","","","","html-keyboard-response","231","1341279","0.0-25.0-2.7","306418c8-50f7-49c0-ac38-5eb3399b6a86","null","<p style=""text-align: center;"">+</p>","null","fixation","","","","","","","","","","","","","","","","","","","","",""
"","","","","","html-slider-response","232","1342296","0.0-25.0-0.8","306418c8-50f7-49c0-ac38-5eb3399b6a86","1000","
                  <p style=""text-align: center;"">₪43
                                                <br>60%</p>
                  <p id=""wtp"" style=""text-align:center; margin-top: 0px; margin-bottom: 0px; font-size: 40px"";>&ensp;</p>","-","viewing","0","17","2A,7A,9A,15B","","","","","","","","","","","","","","","","","",""
"","","","","","html-slider-response","233","1344837","0.0-25.0-1.8","306418c8-50f7-49c0-ac38-5eb3399b6a86","2540","
                  <p style=""text-align: center;"">₪43
                                                <br>60%</p>
                  <p id=""wtp"" style=""text-align:center; margin-top: 0px; margin-bottom: 0px; font-size: 40px"";>מוכנים לשלם: <span id=""c_p_y""></span></p>","41","evaluation","48","17","2A,7A,9A,15B","60","43","41","","","","","","","","","","","","","","",""
"","","","","","html-keyboard-response","234","1345397","0.0-25.0-2.8","306418c8-50f7-49c0-ac38-5eb3399b6a86","null","<p style=""text-align: center;"">+</p>","null","fixation","","","","","","","","","","","","","","","","","","","","",""
"","","","","","html-slider-response","235","1346401","0.0-25.0-0.9","306418c8-50f7-49c0-ac38-5eb3399b6a86","1000","
                  <p style=""text-align: center;"">₪36
                                                <br>75%</p>
                  <p id=""wtp"" style=""text-align:center; margin-top: 0px; margin-bottom: 0px; font-size: 40px"";>&ensp;</p>","-","viewing","0","14","4B,5A,13B,16B","","","","","","","","","","","","","","","","","",""
"","","","","","html-slider-response","236","1348165","0.0-25.0-1.9","306418c8-50f7-49c0-ac38-5eb3399b6a86","1764","
                  <p style=""text-align: center;"">₪36
                                                <br>75%</p>
                  <p id=""wtp"" style=""text-align:center; margin-top: 0px; margin-bottom: 0px; font-size: 40px"";>מוכנים לשלם: <span id=""c_p_y""></span></p>","41","evaluation","11","14","4B,5A,13B,16B","75","36","41","","","","","","","","","","","","","","",""
"","","","","","html-keyboard-response","237","1349504","0.0-25.0-2.9","306418c8-50f7-49c0-ac38-5eb3399b6a86","null","<p style=""text-align: center;"">+</p>","null","fixation","","","","","","","","","","","","","","","","","","","","",""
"","","","","","html-slider-response","238","1350506","0.0-25.0-0.10","306418c8-50f7-49c0-ac38-5eb3399b6a86","1000","
                  <p style=""text-align: center;"">₪58
                                                <br>40%</p>
                  <p id=""wtp"" style=""text-align:center; margin-top: 0px; margin-bottom: 0px; font-size: 40px"";>&ensp;</p>","-","viewing","0","20","10C,13A,19C,21B","","","","","","","","","","","","","","","","","",""
"","","","","","html-slider-response","239","1352509","0.0-25.0-1.10","306418c8-50f7-49c0-ac38-5eb3399b6a86","2002","
                  <p style=""text-align: center;"">₪58
                                                <br>40%</p>
                  <p id=""wtp"" style=""text-align:center; margin-top: 0px; margin-bottom: 0px; font-size: 40px"";>מוכנים לשלם: <span id=""c_p_y""></span></p>","40","evaluation","62","20","10C,13A,19C,21B","40","58","40","","","","","","","","","","","","","","",""
"","","","","","html-keyboard-response","240","1353774","0.0-25.0-2.10","306418c8-50f7-49c0-ac38-5eb3399b6a86","null","<p style=""text-align: center;"">+</p>","null","fixation","","","","","","","","","","","","","","","","","","","","",""
"","","","","","html-slider-response","241","1354789","0.0-25.0-0.11","306418c8-50f7-49c0-ac38-5eb3399b6a86","1000","
                  <p style=""text-align: center;"">₪4
                                                <br>75%</p>
                  <p id=""wtp"" style=""text-align:center; margin-top: 0px; margin-bottom: 0px; font-size: 40px"";>&ensp;</p>","-","viewing","0","3","12B,20B,23B,27C,29C","","","","","","","","","","","","","","","","","",""
"","","","","","html-slider-response","242","1357437","0.0-25.0-1.11","306418c8-50f7-49c0-ac38-5eb3399b6a86","2647","
                  <p style=""text-align: center;"">₪4
                                                <br>75%</p>
                  <p id=""wtp"" style=""text-align:center; margin-top: 0px; margin-bottom: 0px; font-size: 40px"";>מוכנים לשלם: <span id=""c_p_y""></span></p>","41","evaluation","3","3","12B,20B,23B,27C,29C","75","4","41","","","","","","","","","","","","","","",""
"","","","","","html-keyboard-response","243","1358101","0.0-25.0-2.11","306418c8-50f7-49c0-ac38-5eb3399b6a86","null","<p style=""text-align: center;"">+</p>","null","fixation","","","","","","","","","","","","","","","","","","","","",""
"","","","","","html-slider-response","244","1359112","0.0-25.0-0.12","306418c8-50f7-49c0-ac38-5eb3399b6a86","1000","
                  <p style=""text-align: center;"">₪39
                                                <br>65%</p>
                  <p id=""wtp"" style=""text-align:center; margin-top: 0px; margin-bottom: 0px; font-size: 40px"";>&ensp;</p>","-","viewing","0","16","1A,15A,26C","","","","","","","","","","","","","","","","","",""
"","","","","","html-slider-response","245","1361269","0.0-25.0-1.12","306418c8-50f7-49c0-ac38-5eb3399b6a86","2157","
                  <p style=""text-align: center;"">₪39
                                                <br>65%</p>
                  <p id=""wtp"" style=""text-align:center; margin-top: 0px; margin-bottom: 0px; font-size: 40px"";>מוכנים לשלם: <span id=""c_p_y""></span></p>","50","evaluation","29","16","1A,15A,26C","65","39","50","","","","","","","","","","","","","","",""
"","","","","","html-keyboard-response","246","1362501","0.0-25.0-2.12","306418c8-50f7-49c0-ac38-5eb3399b6a86","null","<p style=""text-align: center;"">+</p>","null","fixation","","","","","","","","","","","","","","","","","","","","",""
"","","","","","html-slider-response","247","1363514","0.0-25.0-0.13","306418c8-50f7-49c0-ac38-5eb3399b6a86","1000","
                  <p style=""text-align: center;"">₪64
                                                <br>50%</p>
                  <p id=""wtp"" style=""text-align:center; margin-top: 0px; margin-bottom: 0px; font-size: 40px"";>&ensp;</p>","-","viewing","0","25","1B,3B,4A","","","","","","","","","","","","","","","","","",""
"","","","","","html-slider-response","248","1367516","0.0-25.0-1.13","306418c8-50f7-49c0-ac38-5eb3399b6a86","null","
                  <p style=""text-align: center;"">₪64
                                                <br>50%</p>
                  <p id=""wtp"" style=""text-align:center; margin-top: 0px; margin-bottom: 0px; font-size: 40px"";>מוכנים לשלם: <span id=""c_p_y""></span></p>","null","evaluation","38","25","1B,3B,4A","50","64","40","","","","","","","","","","","","","","",""
"","","","","","html-keyboard-response","249","1368453","0.0-25.0-2.13","306418c8-50f7-49c0-ac38-5eb3399b6a86","null","<p style=""text-align: center;"">+</p>","null","fixation","","","","","","","","","","","","","","","","","","","","",""
"","","","","","html-slider-response","250","1369465","0.0-25.0-0.14","306418c8-50f7-49c0-ac38-5eb3399b6a86","1000","
                  <p style=""text-align: center;"">₪71
                                                <br>75%</p>
                  <p id=""wtp"" style=""text-align:center; margin-top: 0px; margin-bottom: 0px; font-size: 40px"";>&ensp;</p>","-","viewing","0","28","8B","","","","","","","","","","","","","","","","","",""
"","","","","","html-slider-response","251","1371581","0.0-25.0-1.14","306418c8-50f7-49c0-ac38-5eb3399b6a86","2115","
                  <p style=""text-align: center;"">₪71
                                                <br>75%</p>
                  <p id=""wtp"" style=""text-align:center; margin-top: 0px; margin-bottom: 0px; font-size: 40px"";>מוכנים לשלם: <span id=""c_p_y""></span></p>","52","evaluation","24","28","8B","75","71","52","","","","","","","","","","","","","","",""
"","","","","","html-keyboard-response","252","1372483","0.0-25.0-2.14","306418c8-50f7-49c0-ac38-5eb3399b6a86","null","<p style=""text-align: center;"">+</p>","null","fixation","","","","","","","","","","","","","","","","","","","","",""
