"success","timeout","failed_images","failed_audio","failed_video","trial_type","trial_index","time_elapsed","internal_node_id","subject_id","rt","stimulus","response","part","slider_start","ID","set_ID","prob","amount","last_location","actual_choice","actual_EV","binary_id","trinary_id","catch","A_key","D_key","choice_prob","choice_amount","chosen_part","won_prize","potential_prize_amount","potential_prize_prob","total_prize","accuracy"
"true","false","[]","[]","[]","preload","0","75","0.0-0.0","6fddb33e-a9eb-4910-832f-990280fae844","","","","","","","","","","","","","","","","","","","","","","","","",""
"","","","","","html-keyboard-response","1","212467","0.0-1.0","6fddb33e-a9eb-4910-832f-990280fae844","null","
          <h1>שלום וברוכים הבאים!</h1>
          <p>לפניכם ניסוי בקבלת החלטות עם שני חלקים.
          <br><br>לחצו על העכבר כדי להמשיך.</p>","0","example","","","","","","","","","","","","","","","","","","","","",""
"","","","","","html-keyboard-response","2","779212","0.0-2.0","6fddb33e-a9eb-4910-832f-990280fae844","null","
        <h1>חלק 1</h1>
        <p>בקרוב יוצגו בפניכם הגרלות.
        <br>עליכם לבחור את המחיר המירבי שתהיו מוכנים לשלם כדי להשתתף בהגרלה שתוצג.
        <br>יש לכם תקציב של ₪80 לכל הגרלה. 
        <br>נסו להעריך כל הגרלה בנפרד ולחשוב כמה היא שווה עבורכם, ₪80 זמינים לכל הגרלה בנפרד.
        <br><br>לחצו על העכבר כדי להמשיך.</p>","1","instructions","","","","","","","","","","","","","","","","","","","","",""
"","","","","","html-keyboard-response","3","783699","0.0-3.0","6fddb33e-a9eb-4910-832f-990280fae844","null","
        <p>בסוף הניסוי, המחשב יבחר את אחת ההגרלות ויקבע מחיר לכרטיס עבורה. 
        <br>במידה והמחיר שבחרתם נמוך מהמחיר שנבחר על ידי המחשב, לא תשתתפו בהגרלה ותשארו עם מלוא התקציב.
        <br>במידה והמחיר שבחרתם גבוה מהמחיר שנבחר על ידי המחשב, תשלמו את המחיר שנקבע ותשתתפו בהגרלה.
        <br><br>לחצו על העכבר כדי להמשיך.</p>","1","instructions","","","","","","","","","","","","","","","","","","","","",""
"","","","","","html-slider-response","4","795916","0.0-4.0","6fddb33e-a9eb-4910-832f-990280fae844","12114","
        <p style=""font-size: 42px;"">נתחיל עם דוגמא: 
        <br>ההגרלה מטה מציעה 65% סיכוי לזכות ב-₪40 
        <br>&emsp;&emsp;&emsp;&emsp;&emsp;&emsp;&emsp;&emsp;&ensp;35% סיכוי לזכות ב-₪0.
        <br><br>מה המחיר המירבי שתהיו מוכנים לשלם על כרטיס להגרלה זו בין 0 ל-₪80?
        <br>הזיזו את העכבר על פני המלבן ולחצו כדי לבצע בחירה.</p>
        
        <p style=""text-align: center;"">₪40<br>65%</p>

        <p id=""wtp"" style=""text-align:center; margin-top: 0px; margin-bottom: 0px; font-size: 40px"";>מוכנים לשלם: <span id=""c_p_y""></span></p>","25","example","30","","","","","","","","","","","","","","","","","","","",""
"","","","","","html-keyboard-response","5","802883","0.0-5.0","6fddb33e-a9eb-4910-832f-990280fae844","null","<p>יפה מאוד!
                <br> בחרתם שתהיו מוכנים לשלם ₪25 כדי להשתתף בהגרלה:
                <br><p style=""text-align: center;"">₪40<br>65%</p>
                <p>נשמע נכון?
                <br>נניח שהגרלה זו נבחרה בסוף הניסוי.
                <br>כעת המחשב יקבע מחיר עבורה באקראי.
                <br>לחצו על העכבר להמשך.</p>","1","example","","","","","","","","","","","","","","","","","","","","",""
"","","","","","html-keyboard-response","6","810684","0.0-6.0","6fddb33e-a9eb-4910-832f-990280fae844","null","<p>המחשב קבע מחיר: ₪49
                <br>ואתם בחרתם לשלם לכל היותר: ₪25
                <br><br>מכיוון שהמחיר שבחרתם נמוך מהמחיר שנקבע, לא תתשתתפו בהגרלה.
                <br>במקרה כזה, בסוף הניסוי תקבלו את כל התקציב ההתחלתי של ₪80.
                <br><br>לחצו על העכבר להמשך.</p>","1","example","","","","","","","","","","","","","","","","","","","","",""
"","","","","","html-slider-response","7","823940","0.0-7.0","6fddb33e-a9eb-4910-832f-990280fae844","12998","<p style=""font-size: 42px;"">הנה עוד דוגמא:
                <br>ההגרלה מטה מציעה 35% סיכוי לזכות ב-₪18 
                <br>&emsp;&emsp;&emsp;&emsp;&emsp;&emsp;&emsp;&emsp;&ensp;65% סיכוי לזכות ב-₪0.</p>
        
                <p style=""text-align: center;"">₪18<br>35%</p>
                <p id=""wtp"" style=""text-align:center; margin-top: 0px; margin-bottom: 0px; font-size: 40px"";>מוכנים לשלם: <span id=""c_p_y""></span></p>","9","example","27","","","","","","","","","","","","","","","","","","","",""
"","","","","","html-keyboard-response","8","825387","0.0-8.0","6fddb33e-a9eb-4910-832f-990280fae844","null","<p>הייתם מוכנים לשלם  ₪9 כדי להשתתף בהגרלה:
                <p style=""text-align: center;"">₪18<br>35%</p>
                <p>כעת נניח שהמחשב בחר את ההגרלה הזו בסוף הניסוי, וקבע עבורה מחיר.
                <br><br>לחצו על העכבר כדי להמשיך.</p>","1","instructions","","","","","","","","","","","","","","","","","","","","",""
"","","","","","html-keyboard-response","9","829251","0.0-9.0","6fddb33e-a9eb-4910-832f-990280fae844","null","<p>המחשב קבע מחיר להגרלה: ₪3<br>ואתם בחרתם לשלם לכל היותר: ₪9
                <br><br>כעת המחיר שנקבע נמוך מזה שבחרתם, אז תשלמו את המחיר שקבע המחשב (₪3) ותשתתפו בהגרלה.
                <br>במקרה כזה, תסיימו את הניסוי עם תקציב של ₪77 ועם סיכוי לזכות ב-₪18 נוספים מההגרלה.
                <br>כלומר, תוכלו לקבל ₪77 אם לא תזכו בהגרלה, או ₪95 אם תזכו בהגרלה.
                <br><br>לחצו על העכבר להמשך.</p>","1","example","","","","","","","","","","","","","","","","","","","","",""
"","","","","","html-keyboard-response","10","834124","0.0-10.0","6fddb33e-a9eb-4910-832f-990280fae844","null","<p>במהלך הניסוי, קודם תראו את ההגרלה ורק לאחר מכן תוכלו לבחור.
                <p>כמו כן, יהיו לכם מספר שניות מוגבל להגיב.
                <p>בואו ננסה זאת עם ההגרלה הקודמת.
                <br>לחצו על העכבר כדי להמשיך.</p>","1","instructions","","","","","","","","","","","","","","","","","","","","",""
"","","","","","html-slider-response","11","835376","0.0-11.0","6fddb33e-a9eb-4910-832f-990280fae844","1000","
                    <p style=""text-align: center;"">₪18<br>35%</p>
                    <p id=""wtp"" style=""text-align:center; margin-top: 0px; margin-bottom: 0px; font-size: 40px"";>&ensp;</p>","34","instructions","0","","","","","","","","","","","","","","","","","","","",""
"","","","","","html-slider-response","12","839629","0.0-12.0","6fddb33e-a9eb-4910-832f-990280fae844","null","
                    <p style=""text-align: center;"">₪18<br>35%</p>
                    <p id=""wtp"" style=""text-align:center; margin-top: 0px; margin-bottom: 0px; font-size: 40px"";>מוכנים לשלם: <span id=""c_p_y""></span></p>","null","instructions","6","","","","","","","","","","","","","","","","","","","",""
"","","","","","html-keyboard-response","13","842675","0.0-13.0","6fddb33e-a9eb-4910-832f-990280fae844","null","<p>לא הגבתם בזמן המוקצב לתגובה. 
                <br>נסו להגיב מהר יותר בפעם הבאה.
                <br><br>לחצו על העכבר כדי להמשיך.</p>","1","instructions","","","","","","","","","","","","","","","","","","","","",""
"","","","","","html-slider-response","14","846928","0.0-14.0-0.0","6fddb33e-a9eb-4910-832f-990280fae844","null","
                    <p style=""text-align: center;"">₪40<br>65%</p>
                    <p id=""wtp"" style=""text-align:center; margin-top: 0px; margin-bottom: 0px; font-size: 40px"";>מוכנים לשלם: <span id=""c_p_y""></span></p>","null","instructions","26","","","","","","","","","","","","","","","","","","","",""
"","","","","","html-keyboard-response","15","847939","0.0-14.0-1.0","6fddb33e-a9eb-4910-832f-990280fae844","null","<p>לא הגבתם בזמן המוקצב לתגובה. 
                <br>נסו להגיב מהר יותר בפעם הבאה.
                <br><br>לחצו על העכבר כדי להמשיך.</p>","1","instructions","","","","","","","","","","","","","","","","","","","","",""
"","","","","","html-keyboard-response","16","851107","0.0-15.0","6fddb33e-a9eb-4910-832f-990280fae844","null","<p>כעת נתחיל את הניסוי.
                <br><br>אתם תראו הגרלות ותתבקשו לבחור כמה תהיו מוכנים לשלם כדי להשתתף בהן.
                <br>יש לכם תקציב של ₪80 עבור כל הגרלה.
                <br>בסוף הניסוי הגרלה אחת תבחר באקראי ותשוחק.
                <br><br>לחצו על העכבר כדי להתחיל את הניסוי.</p>","1","instructions","","","","","","","","","","","","","","","","","","","","",""
"","","","","","html-keyboard-response","17","852359","0.0-16.0","6fddb33e-a9eb-4910-832f-990280fae844","null","<p style=""text-align: center;"">+</p>","null","fixation","","","","","","","","","","","","","","","","","","","","",""
"","","","","","html-slider-response","18","853362","0.0-17.0-0.0","6fddb33e-a9eb-4910-832f-990280fae844","1000","
                  <p style=""text-align: center;"">₪58
                                                <br>30%</p>
                  <p id=""wtp"" style=""text-align:center; margin-top: 0px; margin-bottom: 0px; font-size: 40px"";>&ensp;</p>","-","viewing","0","19","13C,30A","","","","","","","","","","","","","","","","","",""
"","","","","","html-slider-response","19","856011","0.0-17.0-1.0","6fddb33e-a9eb-4910-832f-990280fae844","2647","
                  <p style=""text-align: center;"">₪58
                                                <br>30%</p>
                  <p id=""wtp"" style=""text-align:center; margin-top: 0px; margin-bottom: 0px; font-size: 40px"";>מוכנים לשלם: <span id=""c_p_y""></span></p>","25","evaluation","14","19","13C,30A","30","58","25","","","","","","","","","","","","","","",""
"","","","","","html-keyboard-response","20","856858","0.0-17.0-2.0","6fddb33e-a9eb-4910-832f-990280fae844","null","<p style=""text-align: center;"">+</p>","null","fixation","","","","","","","","","","","","","","","","","","","","",""
"","","","","","html-slider-response","21","857859","0.0-17.0-0.1","6fddb33e-a9eb-4910-832f-990280fae844","1000","
                  <p style=""text-align: center;"">₪11
                                                <br>75%</p>
                  <p id=""wtp"" style=""text-align:center; margin-top: 0px; margin-bottom: 0px; font-size: 40px"";>&ensp;</p>","-","viewing","0","7","6B,18B,22C,24C,29A","","","","","","","","","","","","","","","","","",""
"","","","","","html-slider-response","22","860635","0.0-17.0-1.1","6fddb33e-a9eb-4910-832f-990280fae844","2775","
                  <p style=""text-align: center;"">₪11
                                                <br>75%</p>
                  <p id=""wtp"" style=""text-align:center; margin-top: 0px; margin-bottom: 0px; font-size: 40px"";>מוכנים לשלם: <span id=""c_p_y""></span></p>","9","evaluation","54","7","6B,18B,22C,24C,29A","75","11","9","","","","","","","","","","","","","","",""
"","","","","","html-keyboard-response","23","861358","0.0-17.0-2.1","6fddb33e-a9eb-4910-832f-990280fae844","null","<p style=""text-align: center;"">+</p>","null","fixation","","","","","","","","","","","","","","","","","","","","",""
"","","","","","html-slider-response","24","862360","0.0-17.0-0.2","6fddb33e-a9eb-4910-832f-990280fae844","1000","
                  <p style=""text-align: center;"">₪36
                                                <br>70%</p>
                  <p id=""wtp"" style=""text-align:center; margin-top: 0px; margin-bottom: 0px; font-size: 40px"";>&ensp;</p>","-","viewing","0","13","3A,5C,10B","","","","","","","","","","","","","","","","","",""
"","","","","","html-slider-response","25","864827","0.0-17.0-1.2","6fddb33e-a9eb-4910-832f-990280fae844","2466","
                  <p style=""text-align: center;"">₪36
                                                <br>70%</p>
                  <p id=""wtp"" style=""text-align:center; margin-top: 0px; margin-bottom: 0px; font-size: 40px"";>מוכנים לשלם: <span id=""c_p_y""></span></p>","25","evaluation","37","13","3A,5C,10B","70","36","25","","","","","","","","","","","","","","",""
"","","","","","html-keyboard-response","26","865667","0.0-17.0-2.2","6fddb33e-a9eb-4910-832f-990280fae844","null","<p style=""text-align: center;"">+</p>","null","fixation","","","","","","","","","","","","","","","","","","","","",""
"","","","","","html-slider-response","27","866669","0.0-17.0-0.3","6fddb33e-a9eb-4910-832f-990280fae844","1000","
                  <p style=""text-align: center;"">₪64
                                                <br>50%</p>
                  <p id=""wtp"" style=""text-align:center; margin-top: 0px; margin-bottom: 0px; font-size: 40px"";>&ensp;</p>","-","viewing","0","25","1B,3B,4A","","","","","","","","","","","","","","","","","",""
"","","","","","html-slider-response","28","870611","0.0-17.0-1.3","6fddb33e-a9eb-4910-832f-990280fae844","3941","
                  <p style=""text-align: center;"">₪64
                                                <br>50%</p>
                  <p id=""wtp"" style=""text-align:center; margin-top: 0px; margin-bottom: 0px; font-size: 40px"";>מוכנים לשלם: <span id=""c_p_y""></span></p>","31","evaluation","0","25","1B,3B,4A","50","64","31","","","","","","","","","","","","","","",""
"","","","","","html-keyboard-response","29","871698","0.0-17.0-2.3","6fddb33e-a9eb-4910-832f-990280fae844","null","<p style=""text-align: center;"">+</p>","null","fixation","","","","","","","","","","","","","","","","","","","","",""
"","","","","","html-slider-response","30","872700","0.0-17.0-0.4","6fddb33e-a9eb-4910-832f-990280fae844","1000","
                  <p style=""text-align: center;"">₪4
                                                <br>25%</p>
                  <p id=""wtp"" style=""text-align:center; margin-top: 0px; margin-bottom: 0px; font-size: 40px"";>&ensp;</p>","-","viewing","0","1","6C,29B,30C","","","","","","","","","","","","","","","","","",""
"","","","","","html-slider-response","31","875299","0.0-17.0-1.4","6fddb33e-a9eb-4910-832f-990280fae844","2598","
                  <p style=""text-align: center;"">₪4
                                                <br>25%</p>
                  <p id=""wtp"" style=""text-align:center; margin-top: 0px; margin-bottom: 0px; font-size: 40px"";>מוכנים לשלם: <span id=""c_p_y""></span></p>","0","evaluation","64","1","6C,29B,30C","25","4","1","","","","","","","","","","","","","","",""
"","","","","","html-keyboard-response","32","876710","0.0-17.0-2.4","6fddb33e-a9eb-4910-832f-990280fae844","null","<p style=""text-align: center;"">+</p>","null","fixation","","","","","","","","","","","","","","","","","","","","",""
"","","","","","html-slider-response","33","877712","0.0-17.0-0.5","6fddb33e-a9eb-4910-832f-990280fae844","1000","
                  <p style=""text-align: center;"">₪11
                                                <br>20%</p>
                  <p id=""wtp"" style=""text-align:center; margin-top: 0px; margin-bottom: 0px; font-size: 40px"";>&ensp;</p>","-","viewing","0","4","12C,17C,23C,28C","","","","","","","","","","","","","","","","","",""
"","","","","","html-slider-response","34","881332","0.0-17.0-1.5","6fddb33e-a9eb-4910-832f-990280fae844","3618","
                  <p style=""text-align: center;"">₪11
                                                <br>20%</p>
                  <p id=""wtp"" style=""text-align:center; margin-top: 0px; margin-bottom: 0px; font-size: 40px"";>מוכנים לשלם: <span id=""c_p_y""></span></p>","5","evaluation","24","4","12C,17C,23C,28C","20","11","5","","","","","","","","","","","","","","",""
"","","","","","html-keyboard-response","35","882160","0.0-17.0-2.5","6fddb33e-a9eb-4910-832f-990280fae844","null","<p style=""text-align: center;"">+</p>","null","fixation","","","","","","","","","","","","","","","","","","","","",""
"","","","","","html-slider-response","36","883162","0.0-17.0-0.6","6fddb33e-a9eb-4910-832f-990280fae844","1000","
                  <p style=""text-align: center;"">₪61
                                                <br>45%</p>
                  <p id=""wtp"" style=""text-align:center; margin-top: 0px; margin-bottom: 0px; font-size: 40px"";>&ensp;</p>","-","viewing","0","22","10A,11A","","","","","","","","","","","","","","","","","",""
"","","","","","html-slider-response","37","887164","0.0-17.0-1.6","6fddb33e-a9eb-4910-832f-990280fae844","null","
                  <p style=""text-align: center;"">₪61
                                                <br>45%</p>
                  <p id=""wtp"" style=""text-align:center; margin-top: 0px; margin-bottom: 0px; font-size: 40px"";>מוכנים לשלם: <span id=""c_p_y""></span></p>","null","evaluation","51","22","10A,11A","45","61","25","","","","","","","","","","","","","","",""
"","","","","","html-keyboard-response","38","887744","0.0-17.0-2.6","6fddb33e-a9eb-4910-832f-990280fae844","null","<p style=""text-align: center;"">+</p>","null","fixation","","","","","","","","","","","","","","","","","","","","",""
"","","","","","html-slider-response","39","888746","0.0-17.0-0.7","6fddb33e-a9eb-4910-832f-990280fae844","1000","
                  <p style=""text-align: center;"">₪64
                                                <br>25%</p>
                  <p id=""wtp"" style=""text-align:center; margin-top: 0px; margin-bottom: 0px; font-size: 40px"";>&ensp;</p>","-","viewing","0","24","6A,21A","","","","","","","","","","","","","","","","","",""
"","","","","","html-slider-response","40","892411","0.0-17.0-1.7","6fddb33e-a9eb-4910-832f-990280fae844","3663","
                  <p style=""text-align: center;"">₪64
                                                <br>25%</p>
                  <p id=""wtp"" style=""text-align:center; margin-top: 0px; margin-bottom: 0px; font-size: 40px"";>מוכנים לשלם: <span id=""c_p_y""></span></p>","31","evaluation","60","24","6A,21A","25","64","31","","","","","","","","","","","","","","",""
"","","","","","html-keyboard-response","41","893034","0.0-17.0-2.7","6fddb33e-a9eb-4910-832f-990280fae844","null","<p style=""text-align: center;"">+</p>","null","fixation","","","","","","","","","","","","","","","","","","","","",""
"","","","","","html-slider-response","42","894035","0.0-17.0-0.8","6fddb33e-a9eb-4910-832f-990280fae844","1000","
                  <p style=""text-align: center;"">₪18
                                                <br>25%</p>
                  <p id=""wtp"" style=""text-align:center; margin-top: 0px; margin-bottom: 0px; font-size: 40px"";>&ensp;</p>","-","viewing","0","9","14A,23A","","","","","","","","","","","","","","","","","",""
"","","","","","html-slider-response","43","896875","0.0-17.0-1.8","6fddb33e-a9eb-4910-832f-990280fae844","2839","
                  <p style=""text-align: center;"">₪18
                                                <br>25%</p>
                  <p id=""wtp"" style=""text-align:center; margin-top: 0px; margin-bottom: 0px; font-size: 40px"";>מוכנים לשלם: <span id=""c_p_y""></span></p>","11","evaluation","18","9","14A,23A","25","18","11","","","","","","","","","","","","","","",""
"","","","","","html-keyboard-response","44","898119","0.0-17.0-2.8","6fddb33e-a9eb-4910-832f-990280fae844","null","<p style=""text-align: center;"">+</p>","null","fixation","","","","","","","","","","","","","","","","","","","","",""
"","","","","","html-slider-response","45","899120","0.0-17.0-0.9","6fddb33e-a9eb-4910-832f-990280fae844","1000","
                  <p style=""text-align: center;"">₪18
                                                <br>50%</p>
                  <p id=""wtp"" style=""text-align:center; margin-top: 0px; margin-bottom: 0px; font-size: 40px"";>&ensp;</p>","-","viewing","0","10","2C,16C,22B,28A","","","","","","","","","","","","","","","","","",""
"","","","","","html-slider-response","46","902155","0.0-17.0-1.9","6fddb33e-a9eb-4910-832f-990280fae844","3034","
                  <p style=""text-align: center;"">₪18
                                                <br>50%</p>
                  <p id=""wtp"" style=""text-align:center; margin-top: 0px; margin-bottom: 0px; font-size: 40px"";>מוכנים לשלם: <span id=""c_p_y""></span></p>","13","evaluation","47","10","2C,16C,22B,28A","50","18","13","","","","","","","","","","","","","","",""
"","","","","","html-keyboard-response","47","903548","0.0-17.0-2.9","6fddb33e-a9eb-4910-832f-990280fae844","null","<p style=""text-align: center;"">+</p>","null","fixation","","","","","","","","","","","","","","","","","","","","",""
"","","","","","html-slider-response","48","904551","0.0-17.0-0.10","6fddb33e-a9eb-4910-832f-990280fae844","1000","
                  <p style=""text-align: center;"">₪4
                                                <br>75%</p>
                  <p id=""wtp"" style=""text-align:center; margin-top: 0px; margin-bottom: 0px; font-size: 40px"";>&ensp;</p>","-","viewing","0","3","12B,20B,23B,27C,29C","","","","","","","","","","","","","","","","","",""
"","","","","","html-slider-response","49","908515","0.0-17.0-1.10","6fddb33e-a9eb-4910-832f-990280fae844","3963","
                  <p style=""text-align: center;"">₪4
                                                <br>75%</p>
                  <p id=""wtp"" style=""text-align:center; margin-top: 0px; margin-bottom: 0px; font-size: 40px"";>מוכנים לשלם: <span id=""c_p_y""></span></p>","1","evaluation","69","3","12B,20B,23B,27C,29C","75","4","2","","","","","","","","","","","","","","",""
"","","","","","html-keyboard-response","50","909682","0.0-17.0-2.10","6fddb33e-a9eb-4910-832f-990280fae844","null","<p style=""text-align: center;"">+</p>","null","fixation","","","","","","","","","","","","","","","","","","","","",""
"","","","","","html-slider-response","51","910684","0.0-17.0-0.11","6fddb33e-a9eb-4910-832f-990280fae844","1000","
                  <p style=""text-align: center;"">₪16
                                                <br>20%</p>
                  <p id=""wtp"" style=""text-align:center; margin-top: 0px; margin-bottom: 0px; font-size: 40px"";>&ensp;</p>","-","viewing","0","8","14C,17A,20C,27A","","","","","","","","","","","","","","","","","",""
"","","","","","html-slider-response","52","914443","0.0-17.0-1.11","6fddb33e-a9eb-4910-832f-990280fae844","3758","
                  <p style=""text-align: center;"">₪16
                                                <br>20%</p>
                  <p id=""wtp"" style=""text-align:center; margin-top: 0px; margin-bottom: 0px; font-size: 40px"";>מוכנים לשלם: <span id=""c_p_y""></span></p>","3","evaluation","26","8","14C,17A,20C,27A","20","16","4","","","","","","","","","","","","","","",""
"","","","","","html-keyboard-response","53","915111","0.0-17.0-2.11","6fddb33e-a9eb-4910-832f-990280fae844","null","<p style=""text-align: center;"">+</p>","null","fixation","","","","","","","","","","","","","","","","","","","","",""
"","","","","","html-slider-response","54","916113","0.0-17.0-0.12","6fddb33e-a9eb-4910-832f-990280fae844","1000","
                  <p style=""text-align: center;"">₪39
                                                <br>65%</p>
                  <p id=""wtp"" style=""text-align:center; margin-top: 0px; margin-bottom: 0px; font-size: 40px"";>&ensp;</p>","-","viewing","0","16","1A,15A,26C","","","","","","","","","","","","","","","","","",""
"","","","","","html-slider-response","55","920115","0.0-17.0-1.12","6fddb33e-a9eb-4910-832f-990280fae844","null","
                  <p style=""text-align: center;"">₪39
                                                <br>65%</p>
                  <p id=""wtp"" style=""text-align:center; margin-top: 0px; margin-bottom: 0px; font-size: 40px"";>מוכנים לשלם: <span id=""c_p_y""></span></p>","null","evaluation","4","16","1A,15A,26C","65","39","28","","","","","","","","","","","","","","",""
"","","","","","html-keyboard-response","56","921182","0.0-17.0-2.12","6fddb33e-a9eb-4910-832f-990280fae844","null","<p style=""text-align: center;"">+</p>","null","fixation","","","","","","","","","","","","","","","","","","","","",""
"","","","","","html-slider-response","57","922185","0.0-17.0-0.13","6fddb33e-a9eb-4910-832f-990280fae844","1000","
                  <p style=""text-align: center;"">₪39
                                                <br>60%</p>
                  <p id=""wtp"" style=""text-align:center; margin-top: 0px; margin-bottom: 0px; font-size: 40px"";>&ensp;</p>","-","viewing","0","15","9C,25B","","","","","","","","","","","","","","","","","",""
"","","","","","html-slider-response","58","924107","0.0-17.0-1.13","6fddb33e-a9eb-4910-832f-990280fae844","1921","
                  <p style=""text-align: center;"">₪39
                                                <br>60%</p>
                  <p id=""wtp"" style=""text-align:center; margin-top: 0px; margin-bottom: 0px; font-size: 40px"";>מוכנים לשלם: <span id=""c_p_y""></span></p>","28","evaluation","13","15","9C,25B","60","39","28","","","","","","","","","","","","","","",""
"","","","","","html-keyboard-response","59","925569","0.0-17.0-2.13","6fddb33e-a9eb-4910-832f-990280fae844","null","<p style=""text-align: center;"">+</p>","null","fixation","","","","","","","","","","","","","","","","","","","","",""
"","","","","","html-slider-response","60","926570","0.0-17.0-0.14","6fddb33e-a9eb-4910-832f-990280fae844","1000","
                  <p style=""text-align: center;"">₪79
                                                <br>65%</p>
                  <p id=""wtp"" style=""text-align:center; margin-top: 0px; margin-bottom: 0px; font-size: 40px"";>&ensp;</p>","-","viewing","0","31","8A","","","","","","","","","","","","","","","","","",""
"","","","","","html-slider-response","61","930573","0.0-17.0-1.14","6fddb33e-a9eb-4910-832f-990280fae844","null","
                  <p style=""text-align: center;"">₪79
                                                <br>65%</p>
                  <p id=""wtp"" style=""text-align:center; margin-top: 0px; margin-bottom: 0px; font-size: 40px"";>מוכנים לשלם: <span id=""c_p_y""></span></p>","null","evaluation","21","31","8A","65","79","43","","","","","","","","","","","","","","",""
"","","","","","html-keyboard-response","62","931098","0.0-17.0-2.14","6fddb33e-a9eb-4910-832f-990280fae844","null","<p style=""text-align: center;"">+</p>","null","fixation","","","","","","","","","","","","","","","","","","","","",""
"","","","","","html-slider-response","63","932099","0.0-17.0-0.15","6fddb33e-a9eb-4910-832f-990280fae844","1000","
                  <p style=""text-align: center;"">₪71
                                                <br>45%</p>
                  <p id=""wtp"" style=""text-align:center; margin-top: 0px; margin-bottom: 0px; font-size: 40px"";>&ensp;</p>","-","viewing","0","26","2B,16A","","","","","","","","","","","","","","","","","",""
"","","","","","html-slider-response","64","934331","0.0-17.0-1.15","6fddb33e-a9eb-4910-832f-990280fae844","2231","
                  <p style=""text-align: center;"">₪71
                                                <br>45%</p>
                  <p id=""wtp"" style=""text-align:center; margin-top: 0px; margin-bottom: 0px; font-size: 40px"";>מוכנים לשלם: <span id=""c_p_y""></span></p>","27","evaluation","61","26","2B,16A","45","71","27","","","","","","","","","","","","","","",""
"","","","","","html-keyboard-response","65","934841","0.0-17.0-2.15","6fddb33e-a9eb-4910-832f-990280fae844","null","<p style=""text-align: center;"">+</p>","null","fixation","","","","","","","","","","","","","","","","","","","","",""
"","","","","","html-slider-response","66","935842","0.0-17.0-0.16","6fddb33e-a9eb-4910-832f-990280fae844","1000","
                  <p style=""text-align: center;"">₪11
                                                <br>25%</p>
                  <p id=""wtp"" style=""text-align:center; margin-top: 0px; margin-bottom: 0px; font-size: 40px"";>&ensp;</p>","-","viewing","0","5","12A,27B,28B,30B","","","","","","","","","","","","","","","","","",""
"","","","","","html-slider-response","67","936971","0.0-17.0-1.16","6fddb33e-a9eb-4910-832f-990280fae844","1128","
                  <p style=""text-align: center;"">₪11
                                                <br>25%</p>
                  <p id=""wtp"" style=""text-align:center; margin-top: 0px; margin-bottom: 0px; font-size: 40px"";>מוכנים לשלם: <span id=""c_p_y""></span></p>","1","evaluation","34","5","12A,27B,28B,30B","25","11","2","","","","","","","","","","","","","","",""
"","","","","","html-keyboard-response","68","937989","0.0-17.0-2.16","6fddb33e-a9eb-4910-832f-990280fae844","null","<p style=""text-align: center;"">+</p>","null","fixation","","","","","","","","","","","","","","","","","","","","",""
"","","","","","html-slider-response","69","939002","0.0-17.0-0.17","6fddb33e-a9eb-4910-832f-990280fae844","1000","
                  <p style=""text-align: center;"">₪36
                                                <br>75%</p>
                  <p id=""wtp"" style=""text-align:center; margin-top: 0px; margin-bottom: 0px; font-size: 40px"";>&ensp;</p>","-","viewing","0","14","4B,5A,13B,16B","","","","","","","","","","","","","","","","","",""
"","","","","","html-slider-response","70","940619","0.0-17.0-1.17","6fddb33e-a9eb-4910-832f-990280fae844","1615","
                  <p style=""text-align: center;"">₪36
                                                <br>75%</p>
                  <p id=""wtp"" style=""text-align:center; margin-top: 0px; margin-bottom: 0px; font-size: 40px"";>מוכנים לשלם: <span id=""c_p_y""></span></p>","33","evaluation","62","14","4B,5A,13B,16B","75","36","33","","","","","","","","","","","","","","",""
"","","","","","html-keyboard-response","71","941468","0.0-17.0-2.17","6fddb33e-a9eb-4910-832f-990280fae844","null","<p style=""text-align: center;"">+</p>","null","fixation","","","","","","","","","","","","","","","","","","","","",""
"","","","","","html-slider-response","72","942470","0.0-17.0-0.18","6fddb33e-a9eb-4910-832f-990280fae844","1000","
                  <p style=""text-align: center;"">₪11
                                                <br>45%</p>
                  <p id=""wtp"" style=""text-align:center; margin-top: 0px; margin-bottom: 0px; font-size: 40px"";>&ensp;</p>","-","viewing","0","6","14B,21C,25C","","","","","","","","","","","","","","","","","",""
"","","","","","html-slider-response","73","945811","0.0-17.0-1.18","6fddb33e-a9eb-4910-832f-990280fae844","3340","
                  <p style=""text-align: center;"">₪11
                                                <br>45%</p>
                  <p id=""wtp"" style=""text-align:center; margin-top: 0px; margin-bottom: 0px; font-size: 40px"";>מוכנים לשלם: <span id=""c_p_y""></span></p>","7","evaluation","74","6","14B,21C,25C","45","11","7","","","","","","","","","","","","","","",""
"","","","","","html-keyboard-response","74","947054","0.0-17.0-2.18","6fddb33e-a9eb-4910-832f-990280fae844","null","<p style=""text-align: center;"">+</p>","null","fixation","","","","","","","","","","","","","","","","","","","","",""
"","","","","","html-slider-response","75","948056","0.0-17.0-0.19","6fddb33e-a9eb-4910-832f-990280fae844","1000","
                  <p style=""text-align: center;"">₪36
                                                <br>60%</p>
                  <p id=""wtp"" style=""text-align:center; margin-top: 0px; margin-bottom: 0px; font-size: 40px"";>&ensp;</p>","-","viewing","0","12","1C,7C,15C","","","","","","","","","","","","","","","","","",""
"","","","","","html-slider-response","76","951651","0.0-17.0-1.19","6fddb33e-a9eb-4910-832f-990280fae844","3594","
                  <p style=""text-align: center;"">₪36
                                                <br>60%</p>
                  <p id=""wtp"" style=""text-align:center; margin-top: 0px; margin-bottom: 0px; font-size: 40px"";>מוכנים לשלם: <span id=""c_p_y""></span></p>","30","evaluation","80","12","1C,7C,15C","60","36","30","","","","","","","","","","","","","","",""
"","","","","","html-keyboard-response","77","952230","0.0-17.0-2.19","6fddb33e-a9eb-4910-832f-990280fae844","null","<p style=""text-align: center;"">+</p>","null","fixation","","","","","","","","","","","","","","","","","","","","",""
"","","","","","html-slider-response","78","953232","0.0-17.0-0.20","6fddb33e-a9eb-4910-832f-990280fae844","1000","
                  <p style=""text-align: center;"">₪76
                                                <br>65%</p>
                  <p id=""wtp"" style=""text-align:center; margin-top: 0px; margin-bottom: 0px; font-size: 40px"";>&ensp;</p>","-","viewing","0","29","8C,19A,24B","","","","","","","","","","","","","","","","","",""
"","","","","","html-slider-response","79","956323","0.0-17.0-1.20","6fddb33e-a9eb-4910-832f-990280fae844","3090","
                  <p style=""text-align: center;"">₪76
                                                <br>65%</p>
                  <p id=""wtp"" style=""text-align:center; margin-top: 0px; margin-bottom: 0px; font-size: 40px"";>מוכנים לשלם: <span id=""c_p_y""></span></p>","41","evaluation","13","29","8C,19A,24B","65","76","41","","","","","","","","","","","","","","",""
"","","","","","html-keyboard-response","80","956991","0.0-17.0-2.20","6fddb33e-a9eb-4910-832f-990280fae844","null","<p style=""text-align: center;"">+</p>","null","fixation","","","","","","","","","","","","","","","","","","","","",""
"","","","","","html-slider-response","81","957993","0.0-17.0-0.21","6fddb33e-a9eb-4910-832f-990280fae844","1000","
                  <p style=""text-align: center;"">₪4
                                                <br>50%</p>
                  <p id=""wtp"" style=""text-align:center; margin-top: 0px; margin-bottom: 0px; font-size: 40px"";>&ensp;</p>","-","viewing","0","2","4C,17B","","","","","","","","","","","","","","","","","",""
"","","","","","html-slider-response","82","959971","0.0-17.0-1.21","6fddb33e-a9eb-4910-832f-990280fae844","1978","
                  <p style=""text-align: center;"">₪4
                                                <br>50%</p>
                  <p id=""wtp"" style=""text-align:center; margin-top: 0px; margin-bottom: 0px; font-size: 40px"";>מוכנים לשלם: <span id=""c_p_y""></span></p>","1","evaluation","73","2","4C,17B","50","4","1","","","","","","","","","","","","","","",""
"","","","","","html-keyboard-response","83","960934","0.0-17.0-2.21","6fddb33e-a9eb-4910-832f-990280fae844","null","<p style=""text-align: center;"">+</p>","null","fixation","","","","","","","","","","","","","","","","","","","","",""
"","","","","","html-slider-response","84","961936","0.0-17.0-0.22","6fddb33e-a9eb-4910-832f-990280fae844","1000","
                  <p style=""text-align: center;"">₪79
                                                <br>40%</p>
                  <p id=""wtp"" style=""text-align:center; margin-top: 0px; margin-bottom: 0px; font-size: 40px"";>&ensp;</p>","-","viewing","0","30","9B","","","","","","","","","","","","","","","","","",""
"","","","","","html-slider-response","85","965787","0.0-17.0-1.22","6fddb33e-a9eb-4910-832f-990280fae844","3851","
                  <p style=""text-align: center;"">₪79
                                                <br>40%</p>
                  <p id=""wtp"" style=""text-align:center; margin-top: 0px; margin-bottom: 0px; font-size: 40px"";>מוכנים לשלם: <span id=""c_p_y""></span></p>","26","evaluation","8","30","9B","40","79","26","","","","","","","","","","","","","","",""
"","","","","","html-keyboard-response","86","966691","0.0-17.0-2.22","6fddb33e-a9eb-4910-832f-990280fae844","null","<p style=""text-align: center;"">+</p>","null","fixation","","","","","","","","","","","","","","","","","","","","",""
"","","","","","html-slider-response","87","967694","0.0-17.0-0.23","6fddb33e-a9eb-4910-832f-990280fae844","1000","
                  <p style=""text-align: center;"">₪58
                                                <br>40%</p>
                  <p id=""wtp"" style=""text-align:center; margin-top: 0px; margin-bottom: 0px; font-size: 40px"";>&ensp;</p>","-","viewing","0","20","10C,13A,19C,21B","","","","","","","","","","","","","","","","","",""
"","","","","","html-slider-response","88","971139","0.0-17.0-1.23","6fddb33e-a9eb-4910-832f-990280fae844","3444","
                  <p style=""text-align: center;"">₪58
                                                <br>40%</p>
                  <p id=""wtp"" style=""text-align:center; margin-top: 0px; margin-bottom: 0px; font-size: 40px"";>מוכנים לשלם: <span id=""c_p_y""></span></p>","23","evaluation","19","20","10C,13A,19C,21B","40","58","23","","","","","","","","","","","","","","",""
"","","","","","html-keyboard-response","89","972626","0.0-17.0-2.23","6fddb33e-a9eb-4910-832f-990280fae844","null","<p style=""text-align: center;"">+</p>","null","fixation","","","","","","","","","","","","","","","","","","","","",""
"","","","","","html-slider-response","90","973629","0.0-17.0-0.24","6fddb33e-a9eb-4910-832f-990280fae844","1000","
                  <p style=""text-align: center;"">₪71
                                                <br>55%</p>
                  <p id=""wtp"" style=""text-align:center; margin-top: 0px; margin-bottom: 0px; font-size: 40px"";>&ensp;</p>","-","viewing","0","27","5B,18A","","","","","","","","","","","","","","","","","",""
"","","","","","html-slider-response","91","977632","0.0-17.0-1.24","6fddb33e-a9eb-4910-832f-990280fae844","null","
                  <p style=""text-align: center;"">₪71
                                                <br>55%</p>
                  <p id=""wtp"" style=""text-align:center; margin-top: 0px; margin-bottom: 0px; font-size: 40px"";>מוכנים לשלם: <span id=""c_p_y""></span></p>","null","evaluation","77","27","5B,18A","55","71","43","","","","","","","","","","","","","","",""
"","","","","","html-keyboard-response","92","978438","0.0-17.0-2.24","6fddb33e-a9eb-4910-832f-990280fae844","null","<p style=""text-align: center;"">+</p>","null","fixation","","","","","","","","","","","","","","","","","","","","",""
"","","","","","html-slider-response","93","979439","0.0-17.0-0.25","6fddb33e-a9eb-4910-832f-990280fae844","1000","
                  <p style=""text-align: center;"">₪61
                                                <br>55%</p>
                  <p id=""wtp"" style=""text-align:center; margin-top: 0px; margin-bottom: 0px; font-size: 40px"";>&ensp;</p>","-","viewing","0","23","7B,26B","","","","","","","","","","","","","","","","","",""
"","","","","","html-slider-response","94","981171","0.0-17.0-1.25","6fddb33e-a9eb-4910-832f-990280fae844","1731","
                  <p style=""text-align: center;"">₪61
                                                <br>55%</p>
                  <p id=""wtp"" style=""text-align:center; margin-top: 0px; margin-bottom: 0px; font-size: 40px"";>מוכנים לשלם: <span id=""c_p_y""></span></p>","37","evaluation","69","23","7B,26B","55","61","37","","","","","","","","","","","","","","",""
"","","","","","html-keyboard-response","95","981851","0.0-17.0-2.25","6fddb33e-a9eb-4910-832f-990280fae844","null","<p style=""text-align: center;"">+</p>","null","fixation","","","","","","","","","","","","","","","","","","","","",""
"","","","","","html-slider-response","96","982853","0.0-17.0-0.26","6fddb33e-a9eb-4910-832f-990280fae844","1000","
                  <p style=""text-align: center;"">₪71
                                                <br>75%</p>
                  <p id=""wtp"" style=""text-align:center; margin-top: 0px; margin-bottom: 0px; font-size: 40px"";>&ensp;</p>","-","viewing","0","28","8B","","","","","","","","","","","","","","","","","",""
"","","","","","html-slider-response","97","985851","0.0-17.0-1.26","6fddb33e-a9eb-4910-832f-990280fae844","2997","
                  <p style=""text-align: center;"">₪71
                                                <br>75%</p>
                  <p id=""wtp"" style=""text-align:center; margin-top: 0px; margin-bottom: 0px; font-size: 40px"";>מוכנים לשלם: <span id=""c_p_y""></span></p>","48","evaluation","45","28","8B","75","71","48","","","","","","","","","","","","","","",""
"","","","","","html-keyboard-response","98","987190","0.0-17.0-2.26","6fddb33e-a9eb-4910-832f-990280fae844","null","<p style=""text-align: center;"">+</p>","null","fixation","","","","","","","","","","","","","","","","","","","","",""
"","","","","","html-slider-response","99","988192","0.0-17.0-0.27","6fddb33e-a9eb-4910-832f-990280fae844","1000","
                  <p style=""text-align: center;"">₪43
                                                <br>60%</p>
                  <p id=""wtp"" style=""text-align:center; margin-top: 0px; margin-bottom: 0px; font-size: 40px"";>&ensp;</p>","-","viewing","0","17","2A,7A,9A,15B","","","","","","","","","","","","","","","","","",""
"","","","","","html-slider-response","100","991843","0.0-17.0-1.27","6fddb33e-a9eb-4910-832f-990280fae844","3649","
                  <p style=""text-align: center;"">₪43
                                                <br>60%</p>
                  <p id=""wtp"" style=""text-align:center; margin-top: 0px; margin-bottom: 0px; font-size: 40px"";>מוכנים לשלם: <span id=""c_p_y""></span></p>","40","evaluation","47","17","2A,7A,9A,15B","60","43","40","","","","","","","","","","","","","","",""
"","","","","","html-keyboard-response","101","993123","0.0-17.0-2.27","6fddb33e-a9eb-4910-832f-990280fae844","null","<p style=""text-align: center;"">+</p>","null","fixation","","","","","","","","","","","","","","","","","","","","",""
"","","","","","html-slider-response","102","994124","0.0-17.0-0.28","6fddb33e-a9eb-4910-832f-990280fae844","1000","
                  <p style=""text-align: center;"">₪58
                                                <br>45%</p>
                  <p id=""wtp"" style=""text-align:center; margin-top: 0px; margin-bottom: 0px; font-size: 40px"";>&ensp;</p>","-","viewing","0","21","11C,18C,25A","","","","","","","","","","","","","","","","","",""
"","","","","","html-slider-response","103","996451","0.0-17.0-1.28","6fddb33e-a9eb-4910-832f-990280fae844","2325","
                  <p style=""text-align: center;"">₪58
                                                <br>45%</p>
                  <p id=""wtp"" style=""text-align:center; margin-top: 0px; margin-bottom: 0px; font-size: 40px"";>מוכנים לשלם: <span id=""c_p_y""></span></p>","33","evaluation","21","21","11C,18C,25A","45","58","33","","","","","","","","","","","","","","",""
"","","","","","html-keyboard-response","104","997085","0.0-17.0-2.28","6fddb33e-a9eb-4910-832f-990280fae844","null","<p style=""text-align: center;"">+</p>","null","fixation","","","","","","","","","","","","","","","","","","","","",""
"","","","","","html-slider-response","105","998086","0.0-17.0-0.29","6fddb33e-a9eb-4910-832f-990280fae844","1000","
                  <p style=""text-align: center;"">₪43
                                                <br>75%</p>
                  <p id=""wtp"" style=""text-align:center; margin-top: 0px; margin-bottom: 0px; font-size: 40px"";>&ensp;</p>","-","viewing","0","18","11B,19B,24A,26A","","","","","","","","","","","","","","","","","",""
"","","","","","html-slider-response","106","1001107","0.0-17.0-1.29","6fddb33e-a9eb-4910-832f-990280fae844","3019","
                  <p style=""text-align: center;"">₪43
                                                <br>75%</p>
                  <p id=""wtp"" style=""text-align:center; margin-top: 0px; margin-bottom: 0px; font-size: 40px"";>מוכנים לשלם: <span id=""c_p_y""></span></p>","30","evaluation","20","18","11B,19B,24A,26A","75","43","30","","","","","","","","","","","","","","",""
"","","","","","html-keyboard-response","107","1001848","0.0-17.0-2.29","6fddb33e-a9eb-4910-832f-990280fae844","null","<p style=""text-align: center;"">+</p>","null","fixation","","","","","","","","","","","","","","","","","","","","",""
"","","","","","html-slider-response","108","1002851","0.0-17.0-0.30","6fddb33e-a9eb-4910-832f-990280fae844","1000","
                  <p style=""text-align: center;"">₪36
                                                <br>30%</p>
                  <p id=""wtp"" style=""text-align:center; margin-top: 0px; margin-bottom: 0px; font-size: 40px"";>&ensp;</p>","-","viewing","0","11","3C,20A,22A","","","","","","","","","","","","","","","","","",""
"","","","","","html-slider-response","109","1006853","0.0-17.0-1.30","6fddb33e-a9eb-4910-832f-990280fae844","null","
                  <p style=""text-align: center;"">₪36
                                                <br>30%</p>
                  <p id=""wtp"" style=""text-align:center; margin-top: 0px; margin-bottom: 0px; font-size: 40px"";>מוכנים לשלם: <span id=""c_p_y""></span></p>","null","evaluation","4","11","3C,20A,22A","30","36","31","","","","","","","","","","","","","","",""
"","","","","","html-keyboard-response","110","1007477","0.0-17.0-2.30","6fddb33e-a9eb-4910-832f-990280fae844","null","<p style=""text-align: center;"">+</p>","null","fixation","","","","","","","","","","","","","","","","","","","","",""
"","","","","","html-keyboard-response","111","1008479","0.0-18.0","6fddb33e-a9eb-4910-832f-990280fae844","null","<p style=""text-align: center;"">+</p>","null","fixation","","","","","","","","","","","","","","","","","","","","",""
"","","","","","html-keyboard-response","112","1009443","0.0-19.0","6fddb33e-a9eb-4910-832f-990280fae844","null","<p>הפסקה.
          <br>לחצו כדי להמשיך.</p>","1","scan_wait","","","","","","","","","","","","","","","","","","","","",""
"","","","","","html-keyboard-response","113","1010444","0.0-20.0","6fddb33e-a9eb-4910-832f-990280fae844","null","<p style=""text-align: center;"">+</p>","null","fixation","","","","","","","","","","","","","","","","","","","","",""
"","","","","","html-slider-response","114","1011445","0.0-21.0-0.0","6fddb33e-a9eb-4910-832f-990280fae844","1000","
                  <p style=""text-align: center;"">₪58
                                                <br>30%</p>
                  <p id=""wtp"" style=""text-align:center; margin-top: 0px; margin-bottom: 0px; font-size: 40px"";>&ensp;</p>","-","viewing","0","19","13C,30A","","","","","","","","","","","","","","","","","",""
"","","","","","html-slider-response","115","1013859","0.0-21.0-1.0","6fddb33e-a9eb-4910-832f-990280fae844","2413","
                  <p style=""text-align: center;"">₪58
                                                <br>30%</p>
                  <p id=""wtp"" style=""text-align:center; margin-top: 0px; margin-bottom: 0px; font-size: 40px"";>מוכנים לשלם: <span id=""c_p_y""></span></p>","32","evaluation","1","19","13C,30A","30","58","32","","","","","","","","","","","","","","",""
"","","","","","html-keyboard-response","116","1014749","0.0-21.0-2.0","6fddb33e-a9eb-4910-832f-990280fae844","null","<p style=""text-align: center;"">+</p>","null","fixation","","","","","","","","","","","","","","","","","","","","",""
"","","","","","html-slider-response","117","1015750","0.0-21.0-0.1","6fddb33e-a9eb-4910-832f-990280fae844","1000","
                  <p style=""text-align: center;"">₪39
                                                <br>60%</p>
                  <p id=""wtp"" style=""text-align:center; margin-top: 0px; margin-bottom: 0px; font-size: 40px"";>&ensp;</p>","-","viewing","0","15","9C,25B","","","","","","","","","","","","","","","","","",""
"","","","","","html-slider-response","118","1019011","0.0-21.0-1.1","6fddb33e-a9eb-4910-832f-990280fae844","3260","
                  <p style=""text-align: center;"">₪39
                                                <br>60%</p>
                  <p id=""wtp"" style=""text-align:center; margin-top: 0px; margin-bottom: 0px; font-size: 40px"";>מוכנים לשלם: <span id=""c_p_y""></span></p>","28","evaluation","24","15","9C,25B","60","39","28","","","","","","","","","","","","","","",""
"","","","","","html-keyboard-response","119","1020109","0.0-21.0-2.1","6fddb33e-a9eb-4910-832f-990280fae844","null","<p style=""text-align: center;"">+</p>","null","fixation","","","","","","","","","","","","","","","","","","","","",""
"","","","","","html-slider-response","120","1021111","0.0-21.0-0.2","6fddb33e-a9eb-4910-832f-990280fae844","1000","
                  <p style=""text-align: center;"">₪18
                                                <br>50%</p>
                  <p id=""wtp"" style=""text-align:center; margin-top: 0px; margin-bottom: 0px; font-size: 40px"";>&ensp;</p>","-","viewing","0","10","2C,16C,22B,28A","","","","","","","","","","","","","","","","","",""
"","","","","","html-slider-response","121","1023612","0.0-21.0-1.2","6fddb33e-a9eb-4910-832f-990280fae844","2499","
                  <p style=""text-align: center;"">₪18
                                                <br>50%</p>
                  <p id=""wtp"" style=""text-align:center; margin-top: 0px; margin-bottom: 0px; font-size: 40px"";>מוכנים לשלם: <span id=""c_p_y""></span></p>","4","evaluation","70","10","2C,16C,22B,28A","50","18","4","","","","","","","","","","","","","","",""
"","","","","","html-keyboard-response","122","1024130","0.0-21.0-2.2","6fddb33e-a9eb-4910-832f-990280fae844","null","<p style=""text-align: center;"">+</p>","null","fixation","","","","","","","","","","","","","","","","","","","","",""
"","","","","","html-slider-response","123","1025133","0.0-21.0-0.3","6fddb33e-a9eb-4910-832f-990280fae844","1000","
                  <p style=""text-align: center;"">₪39
                                                <br>65%</p>
                  <p id=""wtp"" style=""text-align:center; margin-top: 0px; margin-bottom: 0px; font-size: 40px"";>&ensp;</p>","-","viewing","0","16","1A,15A,26C","","","","","","","","","","","","","","","","","",""
"","","","","","html-slider-response","124","1028267","0.0-21.0-1.3","6fddb33e-a9eb-4910-832f-990280fae844","3134","
                  <p style=""text-align: center;"">₪39
                                                <br>65%</p>
                  <p id=""wtp"" style=""text-align:center; margin-top: 0px; margin-bottom: 0px; font-size: 40px"";>מוכנים לשלם: <span id=""c_p_y""></span></p>","19","evaluation","57","16","1A,15A,26C","65","39","19","","","","","","","","","","","","","","",""
"","","","","","html-keyboard-response","125","1029594","0.0-21.0-2.3","6fddb33e-a9eb-4910-832f-990280fae844","null","<p style=""text-align: center;"">+</p>","null","fixation","","","","","","","","","","","","","","","","","","","","",""
"","","","","","html-slider-response","126","1030596","0.0-21.0-0.4","6fddb33e-a9eb-4910-832f-990280fae844","1000","
                  <p style=""text-align: center;"">₪16
                                                <br>20%</p>
                  <p id=""wtp"" style=""text-align:center; margin-top: 0px; margin-bottom: 0px; font-size: 40px"";>&ensp;</p>","-","viewing","0","8","14C,17A,20C,27A","","","","","","","","","","","","","","","","","",""
"","","","","","html-slider-response","127","1032780","0.0-21.0-1.4","6fddb33e-a9eb-4910-832f-990280fae844","2182","
                  <p style=""text-align: center;"">₪16
                                                <br>20%</p>
                  <p id=""wtp"" style=""text-align:center; margin-top: 0px; margin-bottom: 0px; font-size: 40px"";>מוכנים לשלם: <span id=""c_p_y""></span></p>","3","evaluation","76","8","14C,17A,20C,27A","20","16","3","","","","","","","","","","","","","","",""
"","","","","","html-keyboard-response","128","1033886","0.0-21.0-2.4","6fddb33e-a9eb-4910-832f-990280fae844","null","<p style=""text-align: center;"">+</p>","null","fixation","","","","","","","","","","","","","","","","","","","","",""
"","","","","","html-slider-response","129","1034888","0.0-21.0-0.5","6fddb33e-a9eb-4910-832f-990280fae844","1000","
                  <p style=""text-align: center;"">₪43
                                                <br>75%</p>
                  <p id=""wtp"" style=""text-align:center; margin-top: 0px; margin-bottom: 0px; font-size: 40px"";>&ensp;</p>","-","viewing","0","18","11B,19B,24A,26A","","","","","","","","","","","","","","","","","",""
"","","","","","html-slider-response","130","1037372","0.0-21.0-1.5","6fddb33e-a9eb-4910-832f-990280fae844","2483","
                  <p style=""text-align: center;"">₪43
                                                <br>75%</p>
                  <p id=""wtp"" style=""text-align:center; margin-top: 0px; margin-bottom: 0px; font-size: 40px"";>מוכנים לשלם: <span id=""c_p_y""></span></p>","35","evaluation","26","18","11B,19B,24A,26A","75","43","35","","","","","","","","","","","","","","",""
"","","","","","html-keyboard-response","131","1038045","0.0-21.0-2.5","6fddb33e-a9eb-4910-832f-990280fae844","null","<p style=""text-align: center;"">+</p>","null","fixation","","","","","","","","","","","","","","","","","","","","",""
"","","","","","html-slider-response","132","1039046","0.0-21.0-0.6","6fddb33e-a9eb-4910-832f-990280fae844","1000","
                  <p style=""text-align: center;"">₪79
                                                <br>65%</p>
                  <p id=""wtp"" style=""text-align:center; margin-top: 0px; margin-bottom: 0px; font-size: 40px"";>&ensp;</p>","-","viewing","0","31","8A","","","","","","","","","","","","","","","","","",""
"","","","","","html-slider-response","133","1041779","0.0-21.0-1.6","6fddb33e-a9eb-4910-832f-990280fae844","2732","
                  <p style=""text-align: center;"">₪79
                                                <br>65%</p>
                  <p id=""wtp"" style=""text-align:center; margin-top: 0px; margin-bottom: 0px; font-size: 40px"";>מוכנים לשלם: <span id=""c_p_y""></span></p>","44","evaluation","54","31","8A","65","79","44","","","","","","","","","","","","","","",""
"","","","","","html-keyboard-response","134","1042768","0.0-21.0-2.6","6fddb33e-a9eb-4910-832f-990280fae844","null","<p style=""text-align: center;"">+</p>","null","fixation","","","","","","","","","","","","","","","","","","","","",""
"","","","","","html-slider-response","135","1043770","0.0-21.0-0.7","6fddb33e-a9eb-4910-832f-990280fae844","1000","
                  <p style=""text-align: center;"">₪18
                                                <br>25%</p>
                  <p id=""wtp"" style=""text-align:center; margin-top: 0px; margin-bottom: 0px; font-size: 40px"";>&ensp;</p>","-","viewing","0","9","14A,23A","","","","","","","","","","","","","","","","","",""
"","","","","","html-slider-response","136","1047276","0.0-21.0-1.7","6fddb33e-a9eb-4910-832f-990280fae844","3504","
                  <p style=""text-align: center;"">₪18
                                                <br>25%</p>
                  <p id=""wtp"" style=""text-align:center; margin-top: 0px; margin-bottom: 0px; font-size: 40px"";>מוכנים לשלם: <span id=""c_p_y""></span></p>","9","evaluation","44","9","14A,23A","25","18","9","","","","","","","","","","","","","","",""
"","","","","","html-keyboard-response","137","1047915","0.0-21.0-2.7","6fddb33e-a9eb-4910-832f-990280fae844","null","<p style=""text-align: center;"">+</p>","null","fixation","","","","","","","","","","","","","","","","","","","","",""
"","","","","","html-slider-response","138","1048918","0.0-21.0-0.8","6fddb33e-a9eb-4910-832f-990280fae844","1000","
                  <p style=""text-align: center;"">₪4
                                                <br>50%</p>
                  <p id=""wtp"" style=""text-align:center; margin-top: 0px; margin-bottom: 0px; font-size: 40px"";>&ensp;</p>","-","viewing","0","2","4C,17B","","","","","","","","","","","","","","","","","",""
"","","","","","html-slider-response","139","1051324","0.0-21.0-1.8","6fddb33e-a9eb-4910-832f-990280fae844","2404","
                  <p style=""text-align: center;"">₪4
                                                <br>50%</p>
                  <p id=""wtp"" style=""text-align:center; margin-top: 0px; margin-bottom: 0px; font-size: 40px"";>מוכנים לשלם: <span id=""c_p_y""></span></p>","1","evaluation","69","2","4C,17B","50","4","1","","","","","","","","","","","","","","",""
"","","","","","html-keyboard-response","140","1052025","0.0-21.0-2.8","6fddb33e-a9eb-4910-832f-990280fae844","null","<p style=""text-align: center;"">+</p>","null","fixation","","","","","","","","","","","","","","","","","","","","",""
"","","","","","html-slider-response","141","1053026","0.0-21.0-0.9","6fddb33e-a9eb-4910-832f-990280fae844","1000","
                  <p style=""text-align: center;"">₪11
                                                <br>75%</p>
                  <p id=""wtp"" style=""text-align:center; margin-top: 0px; margin-bottom: 0px; font-size: 40px"";>&ensp;</p>","-","viewing","0","7","6B,18B,22C,24C,29A","","","","","","","","","","","","","","","","","",""
"","","","","","html-slider-response","142","1054612","0.0-21.0-1.9","6fddb33e-a9eb-4910-832f-990280fae844","1585","
                  <p style=""text-align: center;"">₪11
                                                <br>75%</p>
                  <p id=""wtp"" style=""text-align:center; margin-top: 0px; margin-bottom: 0px; font-size: 40px"";>מוכנים לשלם: <span id=""c_p_y""></span></p>","4","evaluation","39","7","6B,18B,22C,24C,29A","75","11","5","","","","","","","","","","","","","","",""
"","","","","","html-keyboard-response","143","1055693","0.0-21.0-2.9","6fddb33e-a9eb-4910-832f-990280fae844","null","<p style=""text-align: center;"">+</p>","null","fixation","","","","","","","","","","","","","","","","","","","","",""
"","","","","","html-slider-response","144","1056695","0.0-21.0-0.10","6fddb33e-a9eb-4910-832f-990280fae844","1000","
                  <p style=""text-align: center;"">₪71
                                                <br>45%</p>
                  <p id=""wtp"" style=""text-align:center; margin-top: 0px; margin-bottom: 0px; font-size: 40px"";>&ensp;</p>","-","viewing","0","26","2B,16A","","","","","","","","","","","","","","","","","",""
"","","","","","html-slider-response","145","1060404","0.0-21.0-1.10","6fddb33e-a9eb-4910-832f-990280fae844","3708","
                  <p style=""text-align: center;"">₪71
                                                <br>45%</p>
                  <p id=""wtp"" style=""text-align:center; margin-top: 0px; margin-bottom: 0px; font-size: 40px"";>מוכנים לשלם: <span id=""c_p_y""></span></p>","30","evaluation","4","26","2B,16A","45","71","30","","","","","","","","","","","","","","",""
"","","","","","html-keyboard-response","146","1061604","0.0-21.0-2.10","6fddb33e-a9eb-4910-832f-990280fae844","null","<p style=""text-align: center;"">+</p>","null","fixation","","","","","","","","","","","","","","","","","","","","",""
"","","","","","html-slider-response","147","1062606","0.0-21.0-0.11","6fddb33e-a9eb-4910-832f-990280fae844","1000","
                  <p style=""text-align: center;"">₪11
                                                <br>25%</p>
                  <p id=""wtp"" style=""text-align:center; margin-top: 0px; margin-bottom: 0px; font-size: 40px"";>&ensp;</p>","-","viewing","0","5","12A,27B,28B,30B","","","","","","","","","","","","","","","","","",""
"","","","","","html-slider-response","148","1064404","0.0-21.0-1.11","6fddb33e-a9eb-4910-832f-990280fae844","1796","
                  <p style=""text-align: center;"">₪11
                                                <br>25%</p>
                  <p id=""wtp"" style=""text-align:center; margin-top: 0px; margin-bottom: 0px; font-size: 40px"";>מוכנים לשלם: <span id=""c_p_y""></span></p>","2","evaluation","59","5","12A,27B,28B,30B","25","11","3","","","","","","","","","","","","","","",""
"","","","","","html-keyboard-response","149","1065524","0.0-21.0-2.11","6fddb33e-a9eb-4910-832f-990280fae844","null","<p style=""text-align: center;"">+</p>","null","fixation","","","","","","","","","","","","","","","","","","","","",""
"","","","","","html-slider-response","150","1066526","0.0-21.0-0.12","6fddb33e-a9eb-4910-832f-990280fae844","1000","
                  <p style=""text-align: center;"">₪76
                                                <br>65%</p>
                  <p id=""wtp"" style=""text-align:center; margin-top: 0px; margin-bottom: 0px; font-size: 40px"";>&ensp;</p>","-","viewing","0","29","8C,19A,24B","","","","","","","","","","","","","","","","","",""
"","","","","","html-slider-response","151","1069188","0.0-21.0-1.12","6fddb33e-a9eb-4910-832f-990280fae844","2661","
                  <p style=""text-align: center;"">₪76
                                                <br>65%</p>
                  <p id=""wtp"" style=""text-align:center; margin-top: 0px; margin-bottom: 0px; font-size: 40px"";>מוכנים לשלם: <span id=""c_p_y""></span></p>","51","evaluation","79","29","8C,19A,24B","65","76","51","","","","","","","","","","","","","","",""
"","","","","","html-keyboard-response","152","1070568","0.0-21.0-2.12","6fddb33e-a9eb-4910-832f-990280fae844","null","<p style=""text-align: center;"">+</p>","null","fixation","","","","","","","","","","","","","","","","","","","","",""
"","","","","","html-slider-response","153","1071570","0.0-21.0-0.13","6fddb33e-a9eb-4910-832f-990280fae844","1000","
                  <p style=""text-align: center;"">₪36
                                                <br>30%</p>
                  <p id=""wtp"" style=""text-align:center; margin-top: 0px; margin-bottom: 0px; font-size: 40px"";>&ensp;</p>","-","viewing","0","11","3C,20A,22A","","","","","","","","","","","","","","","","","",""
"","","","","","html-slider-response","154","1074876","0.0-21.0-1.13","6fddb33e-a9eb-4910-832f-990280fae844","3304","
                  <p style=""text-align: center;"">₪36
                                                <br>30%</p>
                  <p id=""wtp"" style=""text-align:center; margin-top: 0px; margin-bottom: 0px; font-size: 40px"";>מוכנים לשלם: <span id=""c_p_y""></span></p>","18","evaluation","57","11","3C,20A,22A","30","36","18","","","","","","","","","","","","","","",""
"","","","","","html-keyboard-response","155","1076225","0.0-21.0-2.13","6fddb33e-a9eb-4910-832f-990280fae844","null","<p style=""text-align: center;"">+</p>","null","fixation","","","","","","","","","","","","","","","","","","","","",""
"","","","","","html-slider-response","156","1077228","0.0-21.0-0.14","6fddb33e-a9eb-4910-832f-990280fae844","1000","
                  <p style=""text-align: center;"">₪4
                                                <br>75%</p>
                  <p id=""wtp"" style=""text-align:center; margin-top: 0px; margin-bottom: 0px; font-size: 40px"";>&ensp;</p>","-","viewing","0","3","12B,20B,23B,27C,29C","","","","","","","","","","","","","","","","","",""
"","","","","","html-slider-response","157","1079835","0.0-21.0-1.14","6fddb33e-a9eb-4910-832f-990280fae844","2606","
                  <p style=""text-align: center;"">₪4
                                                <br>75%</p>
                  <p id=""wtp"" style=""text-align:center; margin-top: 0px; margin-bottom: 0px; font-size: 40px"";>מוכנים לשלם: <span id=""c_p_y""></span></p>","1","evaluation","25","3","12B,20B,23B,27C,29C","75","4","2","","","","","","","","","","","","","","",""
"","","","","","html-keyboard-response","158","1080563","0.0-21.0-2.14","6fddb33e-a9eb-4910-832f-990280fae844","null","<p style=""text-align: center;"">+</p>","null","fixation","","","","","","","","","","","","","","","","","","","","",""
"","","","","","html-slider-response","159","1081565","0.0-21.0-0.15","6fddb33e-a9eb-4910-832f-990280fae844","1000","
                  <p style=""text-align: center;"">₪36
                                                <br>70%</p>
                  <p id=""wtp"" style=""text-align:center; margin-top: 0px; margin-bottom: 0px; font-size: 40px"";>&ensp;</p>","-","viewing","0","13","3A,5C,10B","","","","","","","","","","","","","","","","","",""
"","","","","","html-slider-response","160","1085566","0.0-21.0-1.15","6fddb33e-a9eb-4910-832f-990280fae844","null","
                  <p style=""text-align: center;"">₪36
                                                <br>70%</p>
                  <p id=""wtp"" style=""text-align:center; margin-top: 0px; margin-bottom: 0px; font-size: 40px"";>מוכנים לשלם: <span id=""c_p_y""></span></p>","null","evaluation","3","13","3A,5C,10B","70","36","44","","","","","","","","","","","","","","",""
"","","","","","html-keyboard-response","161","1086453","0.0-21.0-2.15","6fddb33e-a9eb-4910-832f-990280fae844","null","<p style=""text-align: center;"">+</p>","null","fixation","","","","","","","","","","","","","","","","","","","","",""
"","","","","","html-slider-response","162","1087455","0.0-21.0-0.16","6fddb33e-a9eb-4910-832f-990280fae844","1000","
                  <p style=""text-align: center;"">₪61
                                                <br>55%</p>
                  <p id=""wtp"" style=""text-align:center; margin-top: 0px; margin-bottom: 0px; font-size: 40px"";>&ensp;</p>","-","viewing","0","23","7B,26B","","","","","","","","","","","","","","","","","",""
"","","","","","html-slider-response","163","1089987","0.0-21.0-1.16","6fddb33e-a9eb-4910-832f-990280fae844","2530","
                  <p style=""text-align: center;"">₪61
                                                <br>55%</p>
                  <p id=""wtp"" style=""text-align:center; margin-top: 0px; margin-bottom: 0px; font-size: 40px"";>מוכנים לשלם: <span id=""c_p_y""></span></p>","41","evaluation","48","23","7B,26B","55","61","41","","","","","","","","","","","","","","",""
"","","","","","html-keyboard-response","164","1090510","0.0-21.0-2.16","6fddb33e-a9eb-4910-832f-990280fae844","null","<p style=""text-align: center;"">+</p>","null","fixation","","","","","","","","","","","","","","","","","","","","",""
"","","","","","html-slider-response","165","1091512","0.0-21.0-0.17","6fddb33e-a9eb-4910-832f-990280fae844","1000","
                  <p style=""text-align: center;"">₪58
                                                <br>45%</p>
                  <p id=""wtp"" style=""text-align:center; margin-top: 0px; margin-bottom: 0px; font-size: 40px"";>&ensp;</p>","-","viewing","0","21","11C,18C,25A","","","","","","","","","","","","","","","","","",""
"","","","","","html-slider-response","166","1093547","0.0-21.0-1.17","6fddb33e-a9eb-4910-832f-990280fae844","2035","
                  <p style=""text-align: center;"">₪58
                                                <br>45%</p>
                  <p id=""wtp"" style=""text-align:center; margin-top: 0px; margin-bottom: 0px; font-size: 40px"";>מוכנים לשלם: <span id=""c_p_y""></span></p>","24","evaluation","36","21","11C,18C,25A","45","58","24","","","","","","","","","","","","","","",""
"","","","","","html-keyboard-response","167","1095003","0.0-21.0-2.17","6fddb33e-a9eb-4910-832f-990280fae844","null","<p style=""text-align: center;"">+</p>","null","fixation","","","","","","","","","","","","","","","","","","","","",""
"","","","","","html-slider-response","168","1096005","0.0-21.0-0.18","6fddb33e-a9eb-4910-832f-990280fae844","1000","
                  <p style=""text-align: center;"">₪11
                                                <br>45%</p>
                  <p id=""wtp"" style=""text-align:center; margin-top: 0px; margin-bottom: 0px; font-size: 40px"";>&ensp;</p>","-","viewing","0","6","14B,21C,25C","","","","","","","","","","","","","","","","","",""
"","","","","","html-slider-response","169","1098635","0.0-21.0-1.18","6fddb33e-a9eb-4910-832f-990280fae844","2628","
                  <p style=""text-align: center;"">₪11
                                                <br>45%</p>
                  <p id=""wtp"" style=""text-align:center; margin-top: 0px; margin-bottom: 0px; font-size: 40px"";>מוכנים לשלם: <span id=""c_p_y""></span></p>","3","evaluation","54","6","14B,21C,25C","45","11","4","","","","","","","","","","","","","","",""
"","","","","","html-keyboard-response","170","1099276","0.0-21.0-2.18","6fddb33e-a9eb-4910-832f-990280fae844","null","<p style=""text-align: center;"">+</p>","null","fixation","","","","","","","","","","","","","","","","","","","","",""
"","","","","","html-slider-response","171","1100280","0.0-21.0-0.19","6fddb33e-a9eb-4910-832f-990280fae844","1000","
                  <p style=""text-align: center;"">₪11
                                                <br>20%</p>
                  <p id=""wtp"" style=""text-align:center; margin-top: 0px; margin-bottom: 0px; font-size: 40px"";>&ensp;</p>","-","viewing","0","4","12C,17C,23C,28C","","","","","","","","","","","","","","","","","",""
"","","","","","html-slider-response","172","1101131","0.0-21.0-1.19","6fddb33e-a9eb-4910-832f-990280fae844","850","
                  <p style=""text-align: center;"">₪11
                                                <br>20%</p>
                  <p id=""wtp"" style=""text-align:center; margin-top: 0px; margin-bottom: 0px; font-size: 40px"";>מוכנים לשלם: <span id=""c_p_y""></span></p>","2","evaluation","24","4","12C,17C,23C,28C","20","11","2","","","","","","","","","","","","","","",""
"","","","","","html-keyboard-response","173","1102123","0.0-21.0-2.19","6fddb33e-a9eb-4910-832f-990280fae844","null","<p style=""text-align: center;"">+</p>","null","fixation","","","","","","","","","","","","","","","","","","","","",""
"","","","","","html-slider-response","174","1103125","0.0-21.0-0.20","6fddb33e-a9eb-4910-832f-990280fae844","1000","
                  <p style=""text-align: center;"">₪36
                                                <br>75%</p>
                  <p id=""wtp"" style=""text-align:center; margin-top: 0px; margin-bottom: 0px; font-size: 40px"";>&ensp;</p>","-","viewing","0","14","4B,5A,13B,16B","","","","","","","","","","","","","","","","","",""
"","","","","","html-slider-response","175","1105027","0.0-21.0-1.20","6fddb33e-a9eb-4910-832f-990280fae844","1901","
                  <p style=""text-align: center;"">₪36
                                                <br>75%</p>
                  <p id=""wtp"" style=""text-align:center; margin-top: 0px; margin-bottom: 0px; font-size: 40px"";>מוכנים לשלם: <span id=""c_p_y""></span></p>","30","evaluation","39","14","4B,5A,13B,16B","75","36","30","","","","","","","","","","","","","","",""
"","","","","","html-keyboard-response","176","1105669","0.0-21.0-2.20","6fddb33e-a9eb-4910-832f-990280fae844","null","<p style=""text-align: center;"">+</p>","null","fixation","","","","","","","","","","","","","","","","","","","","",""
"","","","","","html-slider-response","177","1106670","0.0-21.0-0.21","6fddb33e-a9eb-4910-832f-990280fae844","1000","
                  <p style=""text-align: center;"">₪64
                                                <br>25%</p>
                  <p id=""wtp"" style=""text-align:center; margin-top: 0px; margin-bottom: 0px; font-size: 40px"";>&ensp;</p>","-","viewing","0","24","6A,21A","","","","","","","","","","","","","","","","","",""
"","","","","","html-slider-response","178","1109467","0.0-21.0-1.21","6fddb33e-a9eb-4910-832f-990280fae844","2796","
                  <p style=""text-align: center;"">₪64
                                                <br>25%</p>
                  <p id=""wtp"" style=""text-align:center; margin-top: 0px; margin-bottom: 0px; font-size: 40px"";>מוכנים לשלם: <span id=""c_p_y""></span></p>","16","evaluation","67","24","6A,21A","25","64","16","","","","","","","","","","","","","","",""
"","","","","","html-keyboard-response","179","1110622","0.0-21.0-2.21","6fddb33e-a9eb-4910-832f-990280fae844","null","<p style=""text-align: center;"">+</p>","null","fixation","","","","","","","","","","","","","","","","","","","","",""
"","","","","","html-slider-response","180","1111624","0.0-21.0-0.22","6fddb33e-a9eb-4910-832f-990280fae844","1000","
                  <p style=""text-align: center;"">₪61
                                                <br>45%</p>
                  <p id=""wtp"" style=""text-align:center; margin-top: 0px; margin-bottom: 0px; font-size: 40px"";>&ensp;</p>","-","viewing","0","22","10A,11A","","","","","","","","","","","","","","","","","",""
"","","","","","html-slider-response","181","1114123","0.0-21.0-1.22","6fddb33e-a9eb-4910-832f-990280fae844","2499","
                  <p style=""text-align: center;"">₪61
                                                <br>45%</p>
                  <p id=""wtp"" style=""text-align:center; margin-top: 0px; margin-bottom: 0px; font-size: 40px"";>מוכנים לשלם: <span id=""c_p_y""></span></p>","21","evaluation","33","22","10A,11A","45","61","21","","","","","","","","","","","","","","",""
"","","","","","html-keyboard-response","182","1115026","0.0-21.0-2.22","6fddb33e-a9eb-4910-832f-990280fae844","null","<p style=""text-align: center;"">+</p>","null","fixation","","","","","","","","","","","","","","","","","","","","",""
"","","","","","html-slider-response","183","1116030","0.0-21.0-0.23","6fddb33e-a9eb-4910-832f-990280fae844","1000","
                  <p style=""text-align: center;"">₪43
                                                <br>60%</p>
                  <p id=""wtp"" style=""text-align:center; margin-top: 0px; margin-bottom: 0px; font-size: 40px"";>&ensp;</p>","-","viewing","0","17","2A,7A,9A,15B","","","","","","","","","","","","","","","","","",""
"","","","","","html-slider-response","184","1118515","0.0-21.0-1.23","6fddb33e-a9eb-4910-832f-990280fae844","2484","
                  <p style=""text-align: center;"">₪43
                                                <br>60%</p>
                  <p id=""wtp"" style=""text-align:center; margin-top: 0px; margin-bottom: 0px; font-size: 40px"";>מוכנים לשלם: <span id=""c_p_y""></span></p>","32","evaluation","47","17","2A,7A,9A,15B","60","43","32","","","","","","","","","","","","","","",""
"","","","","","html-keyboard-response","185","1119091","0.0-21.0-2.23","6fddb33e-a9eb-4910-832f-990280fae844","null","<p style=""text-align: center;"">+</p>","null","fixation","","","","","","","","","","","","","","","","","","","","",""
"","","","","","html-slider-response","186","1120093","0.0-21.0-0.24","6fddb33e-a9eb-4910-832f-990280fae844","1000","
                  <p style=""text-align: center;"">₪58
                                                <br>40%</p>
                  <p id=""wtp"" style=""text-align:center; margin-top: 0px; margin-bottom: 0px; font-size: 40px"";>&ensp;</p>","-","viewing","0","20","10C,13A,19C,21B","","","","","","","","","","","","","","","","","",""
"","","","","","html-slider-response","187","1122323","0.0-21.0-1.24","6fddb33e-a9eb-4910-832f-990280fae844","2228","
                  <p style=""text-align: center;"">₪58
                                                <br>40%</p>
                  <p id=""wtp"" style=""text-align:center; margin-top: 0px; margin-bottom: 0px; font-size: 40px"";>מוכנים לשלם: <span id=""c_p_y""></span></p>","22","evaluation","66","20","10C,13A,19C,21B","40","58","22","","","","","","","","","","","","","","",""
"","","","","","html-keyboard-response","188","1123329","0.0-21.0-2.24","6fddb33e-a9eb-4910-832f-990280fae844","null","<p style=""text-align: center;"">+</p>","null","fixation","","","","","","","","","","","","","","","","","","","","",""
"","","","","","html-slider-response","189","1124331","0.0-21.0-0.25","6fddb33e-a9eb-4910-832f-990280fae844","1000","
                  <p style=""text-align: center;"">₪36
                                                <br>60%</p>
                  <p id=""wtp"" style=""text-align:center; margin-top: 0px; margin-bottom: 0px; font-size: 40px"";>&ensp;</p>","-","viewing","0","12","1C,7C,15C","","","","","","","","","","","","","","","","","",""
"","","","","","html-slider-response","190","1126947","0.0-21.0-1.25","6fddb33e-a9eb-4910-832f-990280fae844","2615","
                  <p style=""text-align: center;"">₪36
                                                <br>60%</p>
                  <p id=""wtp"" style=""text-align:center; margin-top: 0px; margin-bottom: 0px; font-size: 40px"";>מוכנים לשלם: <span id=""c_p_y""></span></p>","22","evaluation","74","12","1C,7C,15C","60","36","22","","","","","","","","","","","","","","",""
"","","","","","html-keyboard-response","191","1127908","0.0-21.0-2.25","6fddb33e-a9eb-4910-832f-990280fae844","null","<p style=""text-align: center;"">+</p>","null","fixation","","","","","","","","","","","","","","","","","","","","",""
"","","","","","html-slider-response","192","1128910","0.0-21.0-0.26","6fddb33e-a9eb-4910-832f-990280fae844","1000","
                  <p style=""text-align: center;"">₪4
                                                <br>25%</p>
                  <p id=""wtp"" style=""text-align:center; margin-top: 0px; margin-bottom: 0px; font-size: 40px"";>&ensp;</p>","-","viewing","0","1","6C,29B,30C","","","","","","","","","","","","","","","","","",""
"","","","","","html-slider-response","193","1131531","0.0-21.0-1.26","6fddb33e-a9eb-4910-832f-990280fae844","2621","
                  <p style=""text-align: center;"">₪4
                                                <br>25%</p>
                  <p id=""wtp"" style=""text-align:center; margin-top: 0px; margin-bottom: 0px; font-size: 40px"";>מוכנים לשלם: <span id=""c_p_y""></span></p>","1","evaluation","57","1","6C,29B,30C","25","4","1","","","","","","","","","","","","","","",""
"","","","","","html-keyboard-response","194","1132133","0.0-21.0-2.26","6fddb33e-a9eb-4910-832f-990280fae844","null","<p style=""text-align: center;"">+</p>","null","fixation","","","","","","","","","","","","","","","","","","","","",""
"","","","","","html-slider-response","195","1133137","0.0-21.0-0.27","6fddb33e-a9eb-4910-832f-990280fae844","1000","
                  <p style=""text-align: center;"">₪71
                                                <br>55%</p>
                  <p id=""wtp"" style=""text-align:center; margin-top: 0px; margin-bottom: 0px; font-size: 40px"";>&ensp;</p>","-","viewing","0","27","5B,18A","","","","","","","","","","","","","","","","","",""
"","","","","","html-slider-response","196","1136123","0.0-21.0-1.27","6fddb33e-a9eb-4910-832f-990280fae844","2986","
                  <p style=""text-align: center;"">₪71
                                                <br>55%</p>
                  <p id=""wtp"" style=""text-align:center; margin-top: 0px; margin-bottom: 0px; font-size: 40px"";>מוכנים לשלם: <span id=""c_p_y""></span></p>","35","evaluation","59","27","5B,18A","55","71","35","","","","","","","","","","","","","","",""
"","","","","","html-keyboard-response","197","1137349","0.0-21.0-2.27","6fddb33e-a9eb-4910-832f-990280fae844","null","<p style=""text-align: center;"">+</p>","null","fixation","","","","","","","","","","","","","","","","","","","","",""
"","","","","","html-slider-response","198","1138351","0.0-21.0-0.28","6fddb33e-a9eb-4910-832f-990280fae844","1000","
                  <p style=""text-align: center;"">₪64
                                                <br>50%</p>
                  <p id=""wtp"" style=""text-align:center; margin-top: 0px; margin-bottom: 0px; font-size: 40px"";>&ensp;</p>","-","viewing","0","25","1B,3B,4A","","","","","","","","","","","","","","","","","",""
"","","","","","html-slider-response","199","1140971","0.0-21.0-1.28","6fddb33e-a9eb-4910-832f-990280fae844","2619","
                  <p style=""text-align: center;"">₪64
                                                <br>50%</p>
                  <p id=""wtp"" style=""text-align:center; margin-top: 0px; margin-bottom: 0px; font-size: 40px"";>מוכנים לשלם: <span id=""c_p_y""></span></p>","44","evaluation","13","25","1B,3B,4A","50","64","44","","","","","","","","","","","","","","",""
"","","","","","html-keyboard-response","200","1142149","0.0-21.0-2.28","6fddb33e-a9eb-4910-832f-990280fae844","null","<p style=""text-align: center;"">+</p>","null","fixation","","","","","","","","","","","","","","","","","","","","",""
"","","","","","html-slider-response","201","1143151","0.0-21.0-0.29","6fddb33e-a9eb-4910-832f-990280fae844","1000","
                  <p style=""text-align: center;"">₪71
                                                <br>75%</p>
                  <p id=""wtp"" style=""text-align:center; margin-top: 0px; margin-bottom: 0px; font-size: 40px"";>&ensp;</p>","-","viewing","0","28","8B","","","","","","","","","","","","","","","","","",""
"","","","","","html-slider-response","202","1145531","0.0-21.0-1.29","6fddb33e-a9eb-4910-832f-990280fae844","2379","
                  <p style=""text-align: center;"">₪71
                                                <br>75%</p>
                  <p id=""wtp"" style=""text-align:center; margin-top: 0px; margin-bottom: 0px; font-size: 40px"";>מוכנים לשלם: <span id=""c_p_y""></span></p>","58","evaluation","72","28","8B","75","71","58","","","","","","","","","","","","","","",""
"","","","","","html-keyboard-response","203","1146190","0.0-21.0-2.29","6fddb33e-a9eb-4910-832f-990280fae844","null","<p style=""text-align: center;"">+</p>","null","fixation","","","","","","","","","","","","","","","","","","","","",""
"","","","","","html-slider-response","204","1147193","0.0-21.0-0.30","6fddb33e-a9eb-4910-832f-990280fae844","1000","
                  <p style=""text-align: center;"">₪79
                                                <br>40%</p>
                  <p id=""wtp"" style=""text-align:center; margin-top: 0px; margin-bottom: 0px; font-size: 40px"";>&ensp;</p>","-","viewing","0","30","9B","","","","","","","","","","","","","","","","","",""
"","","","","","html-slider-response","205","1149556","0.0-21.0-1.30","6fddb33e-a9eb-4910-832f-990280fae844","2362","
                  <p style=""text-align: center;"">₪79
                                                <br>40%</p>
                  <p id=""wtp"" style=""text-align:center; margin-top: 0px; margin-bottom: 0px; font-size: 40px"";>מוכנים לשלם: <span id=""c_p_y""></span></p>","36","evaluation","14","30","9B","40","79","36","","","","","","","","","","","","","","",""
"","","","","","html-keyboard-response","206","1150600","0.0-21.0-2.30","6fddb33e-a9eb-4910-832f-990280fae844","null","<p style=""text-align: center;"">+</p>","null","fixation","","","","","","","","","","","","","","","","","","","","",""
"","","","","","html-keyboard-response","207","1151601","0.0-22.0","6fddb33e-a9eb-4910-832f-990280fae844","null","<p style=""text-align: center;"">+</p>","null","fixation","","","","","","","","","","","","","","","","","","","","",""
"","","","","","html-keyboard-response","208","1152843","0.0-23.0","6fddb33e-a9eb-4910-832f-990280fae844","null","<p>הפסקה.
          <br>לחצו כדי להמשיך.</p>","1","scan_wait","","","","","","","","","","","","","","","","","","","","",""
"","","","","","html-keyboard-response","209","1153845","0.0-24.0","6fddb33e-a9eb-4910-832f-990280fae844","null","<p style=""text-align: center;"">+</p>","null","fixation","","","","","","","","","","","","","","","","","","","","",""
"","","","","","html-slider-response","210","1154846","0.0-25.0-0.0","6fddb33e-a9eb-4910-832f-990280fae844","1000","
                  <p style=""text-align: center;"">₪11
                                                <br>20%</p>
                  <p id=""wtp"" style=""text-align:center; margin-top: 0px; margin-bottom: 0px; font-size: 40px"";>&ensp;</p>","-","viewing","0","4","12C,17C,23C,28C","","","","","","","","","","","","","","","","","",""
"","","","","","html-slider-response","211","1157011","0.0-25.0-1.0","6fddb33e-a9eb-4910-832f-990280fae844","2164","
                  <p style=""text-align: center;"">₪11
                                                <br>20%</p>
                  <p id=""wtp"" style=""text-align:center; margin-top: 0px; margin-bottom: 0px; font-size: 40px"";>מוכנים לשלם: <span id=""c_p_y""></span></p>","1","evaluation","18","4","12C,17C,23C,28C","20","11","2","","","","","","","","","","","","","","",""
"","","","","","html-keyboard-response","212","1157700","0.0-25.0-2.0","6fddb33e-a9eb-4910-832f-990280fae844","null","<p style=""text-align: center;"">+</p>","null","fixation","","","","","","","","","","","","","","","","","","","","",""
"","","","","","html-slider-response","213","1158702","0.0-25.0-0.1","6fddb33e-a9eb-4910-832f-990280fae844","1000","
                  <p style=""text-align: center;"">₪58
                                                <br>40%</p>
                  <p id=""wtp"" style=""text-align:center; margin-top: 0px; margin-bottom: 0px; font-size: 40px"";>&ensp;</p>","-","viewing","0","20","10C,13A,19C,21B","","","","","","","","","","","","","","","","","",""
"","","","","","html-slider-response","214","1160828","0.0-25.0-1.1","6fddb33e-a9eb-4910-832f-990280fae844","2125","
                  <p style=""text-align: center;"">₪58
                                                <br>40%</p>
                  <p id=""wtp"" style=""text-align:center; margin-top: 0px; margin-bottom: 0px; font-size: 40px"";>מוכנים לשלם: <span id=""c_p_y""></span></p>","21","evaluation","1","20","10C,13A,19C,21B","40","58","21","","","","","","","","","","","","","","",""
"","","","","","html-keyboard-response","215","1161913","0.0-25.0-2.1","6fddb33e-a9eb-4910-832f-990280fae844","null","<p style=""text-align: center;"">+</p>","null","fixation","","","","","","","","","","","","","","","","","","","","",""
"","","","","","html-slider-response","216","1162915","0.0-25.0-0.2","6fddb33e-a9eb-4910-832f-990280fae844","1000","
                  <p style=""text-align: center;"">₪79
                                                <br>40%</p>
                  <p id=""wtp"" style=""text-align:center; margin-top: 0px; margin-bottom: 0px; font-size: 40px"";>&ensp;</p>","-","viewing","0","30","9B","","","","","","","","","","","","","","","","","",""
"","","","","","html-slider-response","217","1165875","0.0-25.0-1.2","6fddb33e-a9eb-4910-832f-990280fae844","2959","
                  <p style=""text-align: center;"">₪79
                                                <br>40%</p>
                  <p id=""wtp"" style=""text-align:center; margin-top: 0px; margin-bottom: 0px; font-size: 40px"";>מוכנים לשלם: <span id=""c_p_y""></span></p>","30","evaluation","41","30","9B","40","79","30","","","","","","","","","","","","","","",""
"","","","","","html-keyboard-response","218","1166718","0.0-25.0-2.2","6fddb33e-a9eb-4910-832f-990280fae844","null","<p style=""text-align: center;"">+</p>","null","fixation","","","","","","","","","","","","","","","","","","","","",""
"","","","","","html-slider-response","219","1167720","0.0-25.0-0.3","6fddb33e-a9eb-4910-832f-990280fae844","1000","
                  <p style=""text-align: center;"">₪36
                                                <br>60%</p>
                  <p id=""wtp"" style=""text-align:center; margin-top: 0px; margin-bottom: 0px; font-size: 40px"";>&ensp;</p>","-","viewing","0","12","1C,7C,15C","","","","","","","","","","","","","","","","","",""
"","","","","","html-slider-response","220","1169523","0.0-25.0-1.3","6fddb33e-a9eb-4910-832f-990280fae844","1803","
                  <p style=""text-align: center;"">₪36
                                                <br>60%</p>
                  <p id=""wtp"" style=""text-align:center; margin-top: 0px; margin-bottom: 0px; font-size: 40px"";>מוכנים לשלם: <span id=""c_p_y""></span></p>","29","evaluation","20","12","1C,7C,15C","60","36","29","","","","","","","","","","","","","","",""
"","","","","","html-keyboard-response","221","1170249","0.0-25.0-2.3","6fddb33e-a9eb-4910-832f-990280fae844","null","<p style=""text-align: center;"">+</p>","null","fixation","","","","","","","","","","","","","","","","","","","","",""
"","","","","","html-slider-response","222","1171250","0.0-25.0-0.4","6fddb33e-a9eb-4910-832f-990280fae844","1000","
                  <p style=""text-align: center;"">₪4
                                                <br>25%</p>
                  <p id=""wtp"" style=""text-align:center; margin-top: 0px; margin-bottom: 0px; font-size: 40px"";>&ensp;</p>","-","viewing","0","1","6C,29B,30C","","","","","","","","","","","","","","","","","",""
"","","","","","html-slider-response","223","1172883","0.0-25.0-1.4","6fddb33e-a9eb-4910-832f-990280fae844","1632","
                  <p style=""text-align: center;"">₪4
                                                <br>25%</p>
                  <p id=""wtp"" style=""text-align:center; margin-top: 0px; margin-bottom: 0px; font-size: 40px"";>מוכנים לשלם: <span id=""c_p_y""></span></p>","0","evaluation","33","1","6C,29B,30C","25","4","0","","","","","","","","","","","","","","",""
"","","","","","html-keyboard-response","224","1174089","0.0-25.0-2.4","6fddb33e-a9eb-4910-832f-990280fae844","null","<p style=""text-align: center;"">+</p>","null","fixation","","","","","","","","","","","","","","","","","","","","",""
"","","","","","html-slider-response","225","1175092","0.0-25.0-0.5","6fddb33e-a9eb-4910-832f-990280fae844","1000","
                  <p style=""text-align: center;"">₪64
                                                <br>25%</p>
                  <p id=""wtp"" style=""text-align:center; margin-top: 0px; margin-bottom: 0px; font-size: 40px"";>&ensp;</p>","-","viewing","0","24","6A,21A","","","","","","","","","","","","","","","","","",""
"","","","","","html-slider-response","226","1179094","0.0-25.0-1.5","6fddb33e-a9eb-4910-832f-990280fae844","null","
                  <p style=""text-align: center;"">₪64
                                                <br>25%</p>
                  <p id=""wtp"" style=""text-align:center; margin-top: 0px; margin-bottom: 0px; font-size: 40px"";>מוכנים לשלם: <span id=""c_p_y""></span></p>","null","evaluation","27","24","6A,21A","25","64","18","","","","","","","","","","","","","","",""
"","","","","","html-keyboard-response","227","1180506","0.0-25.0-2.5","6fddb33e-a9eb-4910-832f-990280fae844","null","<p style=""text-align: center;"">+</p>","null","fixation","","","","","","","","","","","","","","","","","","","","",""
"","","","","","html-slider-response","228","1181506","0.0-25.0-0.6","6fddb33e-a9eb-4910-832f-990280fae844","1000","
                  <p style=""text-align: center;"">₪76
                                                <br>65%</p>
                  <p id=""wtp"" style=""text-align:center; margin-top: 0px; margin-bottom: 0px; font-size: 40px"";>&ensp;</p>","-","viewing","0","29","8C,19A,24B","","","","","","","","","","","","","","","","","",""
"","","","","","html-slider-response","229","1184332","0.0-25.0-1.6","6fddb33e-a9eb-4910-832f-990280fae844","2825","
                  <p style=""text-align: center;"">₪76
                                                <br>65%</p>
                  <p id=""wtp"" style=""text-align:center; margin-top: 0px; margin-bottom: 0px; font-size: 40px"";>מוכנים לשלם: <span id=""c_p_y""></span></p>","53","evaluation","23","29","8C,19A,24B","65","76","53","","","","","","","","","","","","","","",""
"","","","","","html-keyboard-response","230","1185513","0.0-25.0-2.6","6fddb33e-a9eb-4910-832f-990280fae844","null","<p style=""text-align: center;"">+</p>","null","fixation","","","","","","","","","","","","","","","","","","","","",""
"","","","","","html-slider-response","231","1186515","0.0-25.0-0.7","6fddb33e-a9eb-4910-832f-990280fae844","1000","
                  <p style=""text-align: center;"">₪11
                                                <br>25%</p>
                  <p id=""wtp"" style=""text-align:center; margin-top: 0px; margin-bottom: 0px; font-size: 40px"";>&ensp;</p>","-","viewing","0","5","12A,27B,28B,30B","","","","","","","","","","","","","","","","","",""
"","","","","","html-slider-response","232","1187339","0.0-25.0-1.7","6fddb33e-a9eb-4910-832f-990280fae844","823","
                  <p style=""text-align: center;"">₪11
                                                <br>25%</p>
                  <p id=""wtp"" style=""text-align:center; margin-top: 0px; margin-bottom: 0px; font-size: 40px"";>מוכנים לשלם: <span id=""c_p_y""></span></p>","1","evaluation","55","5","12A,27B,28B,30B","25","11","2","","","","","","","","","","","","","","",""
"","","","","","html-keyboard-response","233","1188032","0.0-25.0-2.7","6fddb33e-a9eb-4910-832f-990280fae844","null","<p style=""text-align: center;"">+</p>","null","fixation","","","","","","","","","","","","","","","","","","","","",""
"","","","","","html-slider-response","234","1189034","0.0-25.0-0.8","6fddb33e-a9eb-4910-832f-990280fae844","1000","
                  <p style=""text-align: center;"">₪16
                                                <br>20%</p>
                  <p id=""wtp"" style=""text-align:center; margin-top: 0px; margin-bottom: 0px; font-size: 40px"";>&ensp;</p>","-","viewing","0","8","14C,17A,20C,27A","","","","","","","","","","","","","","","","","",""
"","","","","","html-slider-response","235","1190523","0.0-25.0-1.8","6fddb33e-a9eb-4910-832f-990280fae844","1488","
                  <p style=""text-align: center;"">₪16
                                                <br>20%</p>
                  <p id=""wtp"" style=""text-align:center; margin-top: 0px; margin-bottom: 0px; font-size: 40px"";>מוכנים לשלם: <span id=""c_p_y""></span></p>","3","evaluation","56","8","14C,17A,20C,27A","20","16","4","","","","","","","","","","","","","","",""
"","","","","","html-keyboard-response","236","1192021","0.0-25.0-2.8","6fddb33e-a9eb-4910-832f-990280fae844","null","<p style=""text-align: center;"">+</p>","null","fixation","","","","","","","","","","","","","","","","","","","","",""
"","","","","","html-slider-response","237","1193022","0.0-25.0-0.9","6fddb33e-a9eb-4910-832f-990280fae844","1000","
                  <p style=""text-align: center;"">₪18
                                                <br>25%</p>
                  <p id=""wtp"" style=""text-align:center; margin-top: 0px; margin-bottom: 0px; font-size: 40px"";>&ensp;</p>","-","viewing","0","9","14A,23A","","","","","","","","","","","","","","","","","",""
"","","","","","html-slider-response","238","1195379","0.0-25.0-1.9","6fddb33e-a9eb-4910-832f-990280fae844","2356","
                  <p style=""text-align: center;"">₪18
                                                <br>25%</p>
                  <p id=""wtp"" style=""text-align:center; margin-top: 0px; margin-bottom: 0px; font-size: 40px"";>מוכנים לשלם: <span id=""c_p_y""></span></p>","3","evaluation","20","9","14A,23A","25","18","3","","","","","","","","","","","","","","",""
"","","","","","html-keyboard-response","239","1196098","0.0-25.0-2.9","6fddb33e-a9eb-4910-832f-990280fae844","null","<p style=""text-align: center;"">+</p>","null","fixation","","","","","","","","","","","","","","","","","","","","",""
"","","","","","html-slider-response","240","1197100","0.0-25.0-0.10","6fddb33e-a9eb-4910-832f-990280fae844","1000","
                  <p style=""text-align: center;"">₪36
                                                <br>70%</p>
                  <p id=""wtp"" style=""text-align:center; margin-top: 0px; margin-bottom: 0px; font-size: 40px"";>&ensp;</p>","-","viewing","0","13","3A,5C,10B","","","","","","","","","","","","","","","","","",""
"","","","","","html-slider-response","241","1200067","0.0-25.0-1.10","6fddb33e-a9eb-4910-832f-990280fae844","2966","
                  <p style=""text-align: center;"">₪36
                                                <br>70%</p>
                  <p id=""wtp"" style=""text-align:center; margin-top: 0px; margin-bottom: 0px; font-size: 40px"";>מוכנים לשלם: <span id=""c_p_y""></span></p>","30","evaluation","22","13","3A,5C,10B","70","36","30","","","","","","","","","","","","","","",""
"","","","","","html-keyboard-response","242","1201185","0.0-25.0-2.10","6fddb33e-a9eb-4910-832f-990280fae844","null","<p style=""text-align: center;"">+</p>","null","fixation","","","","","","","","","","","","","","","","","","","","",""
"","","","","","html-slider-response","243","1202188","0.0-25.0-0.11","6fddb33e-a9eb-4910-832f-990280fae844","1000","
                  <p style=""text-align: center;"">₪61
                                                <br>45%</p>
                  <p id=""wtp"" style=""text-align:center; margin-top: 0px; margin-bottom: 0px; font-size: 40px"";>&ensp;</p>","-","viewing","0","22","10A,11A","","","","","","","","","","","","","","","","","",""
"","","","","","html-slider-response","244","1206147","0.0-25.0-1.11","6fddb33e-a9eb-4910-832f-990280fae844","3958","
                  <p style=""text-align: center;"">₪61
                                                <br>45%</p>
                  <p id=""wtp"" style=""text-align:center; margin-top: 0px; margin-bottom: 0px; font-size: 40px"";>מוכנים לשלם: <span id=""c_p_y""></span></p>","29","evaluation","45","22","10A,11A","45","61","29","","","","","","","","","","","","","","",""
"","","","","","html-keyboard-response","245","1206885","0.0-25.0-2.11","6fddb33e-a9eb-4910-832f-990280fae844","null","<p style=""text-align: center;"">+</p>","null","fixation","","","","","","","","","","","","","","","","","","","","",""
"","","","","","html-slider-response","246","1207887","0.0-25.0-0.12","6fddb33e-a9eb-4910-832f-990280fae844","1000","
                  <p style=""text-align: center;"">₪64
                                                <br>50%</p>
                  <p id=""wtp"" style=""text-align:center; margin-top: 0px; margin-bottom: 0px; font-size: 40px"";>&ensp;</p>","-","viewing","0","25","1B,3B,4A","","","","","","","","","","","","","","","","","",""
"","","","","","html-slider-response","247","1210243","0.0-25.0-1.12","6fddb33e-a9eb-4910-832f-990280fae844","2355","
                  <p style=""text-align: center;"">₪64
                                                <br>50%</p>
                  <p id=""wtp"" style=""text-align:center; margin-top: 0px; margin-bottom: 0px; font-size: 40px"";>מוכנים לשלם: <span id=""c_p_y""></span></p>","31","evaluation","63","25","1B,3B,4A","50","64","31","","","","","","","","","","","","","","",""
"","","","","","html-keyboard-response","248","1211559","0.0-25.0-2.12","6fddb33e-a9eb-4910-832f-990280fae844","null","<p style=""text-align: center;"">+</p>","null","fixation","","","","","","","","","","","","","","","","","","","","",""
"","","","","","html-slider-response","249","1212561","0.0-25.0-0.13","6fddb33e-a9eb-4910-832f-990280fae844","1000","
                  <p style=""text-align: center;"">₪43
                                                <br>60%</p>
                  <p id=""wtp"" style=""text-align:center; margin-top: 0px; margin-bottom: 0px; font-size: 40px"";>&ensp;</p>","-","viewing","0","17","2A,7A,9A,15B","","","","","","","","","","","","","","","","","",""
"","","","","","html-slider-response","250","1214971","0.0-25.0-1.13","6fddb33e-a9eb-4910-832f-990280fae844","2409","
                  <p style=""text-align: center;"">₪43
                                                <br>60%</p>
                  <p id=""wtp"" style=""text-align:center; margin-top: 0px; margin-bottom: 0px; font-size: 40px"";>מוכנים לשלם: <span id=""c_p_y""></span></p>","33","evaluation","5","17","2A,7A,9A,15B","60","43","33","","","","","","","","","","","","","","",""
"","","","","","html-keyboard-response","251","1216379","0.0-25.0-2.13","6fddb33e-a9eb-4910-832f-990280fae844","null","<p style=""text-align: center;"">+</p>","null","fixation","","","","","","","","","","","","","","","","","","","","",""
"","","","","","html-slider-response","252","1217381","0.0-25.0-0.14","6fddb33e-a9eb-4910-832f-990280fae844","1000","
                  <p style=""text-align: center;"">₪71
                                                <br>75%</p>
                  <p id=""wtp"" style=""text-align:center; margin-top: 0px; margin-bottom: 0px; font-size: 40px"";>&ensp;</p>","-","viewing","0","28","8B","","","","","","","","","","","","","","","","","",""
