"success","timeout","failed_images","failed_audio","failed_video","trial_type","trial_index","time_elapsed","internal_node_id","subject_id","rt","stimulus","response","part","slider_start","ID","set_ID","prob","amount","last_location","actual_choice","actual_EV","binary_id","trinary_id","catch","A_key","D_key","choice_prob","choice_amount","potential_prize_prob","potential_prize_amount","won_prize","total_prize","remaining_budget","accuracy"
"true","false","[]","[]","[]","preload","0","4","0.0-0.0","197816d4-72ff-406a-aa8d-71f44d0031f7","","","","","","","","","","","","","","","","","","","","","","","","",""
"","","","","","html-keyboard-response","1","37561","0.0-1.0","197816d4-72ff-406a-aa8d-71f44d0031f7","null","
          <h1>שלום וברוכים הבאים!</h1>
          <p>לפניכם ניסוי בקבלת החלטות עם שני חלקים.
          <br><br>לחצו על העכבר כדי להמשיך.</p>","0","example","","","","","","","","","","","","","","","","","","","","",""
"","","","","","html-keyboard-response","2","38864","0.0-2.0","197816d4-72ff-406a-aa8d-71f44d0031f7","null","
        <h1>חלק 1</h1>
        <p>בקרוב יוצגו בפניכם הגרלות.
        <br>עליכם לבחור את המחיר המירבי שתהיו מוכנים לשלם כדי להשתתף בהגרלה שתוצג.
        <br>יש לכם תקציב של ₪80 לכל הגרלה. 
        <br>נסו להעריך כל הגרלה בנפרד ולחשוב כמה היא שווה עבורכם, ₪80 זמינים לכל הגרלה בנפרד.
        <br><br>לחצו על העכבר כדי להמשיך.</p>","1","instructions","","","","","","","","","","","","","","","","","","","","",""
"","","","","","html-keyboard-response","3","39928","0.0-3.0","197816d4-72ff-406a-aa8d-71f44d0031f7","null","
        <p>בסוף הניסוי, המחשב יבחר את אחת ההגרלות ויקבע מחיר לכרטיס עבורה. 
        <br>במידה והמחיר שבחרתם נמוך מהמחיר שנבחר על ידי המחשב, לא תשתתפו בהגרלה ותשארו עם מלוא התקציב.
        <br>במידה והמחיר שבחרתם גבוה מהמחיר שנבחר על ידי המחשב, תשלמו את המחיר שנקבע ותשתתפו בהגרלה.
        <br><br>לחצו על העכבר כדי להמשיך.</p>","1","instructions","","","","","","","","","","","","","","","","","","","","",""
"","","","","","html-slider-response","4","59633","0.0-4.0","197816d4-72ff-406a-aa8d-71f44d0031f7","19591","
        <p style=""font-size: 42px;"">נתחיל עם דוגמא: 
        <br>ההגרלה מטה מציעה 65% סיכוי לזכות ב-₪40 
        <br>&emsp;&emsp;&emsp;&emsp;&emsp;&emsp;&emsp;&emsp;&ensp;35% סיכוי לזכות ב-₪0.
        <br><br>מה המחיר המירבי שתהיו מוכנים לשלם על כרטיס להגרלה זו בין 0 ל-₪80?
        <br>הזיזו את העכבר על פני המלבן ולחצו כדי לבצע בחירה.</p>
        
        <p style=""text-align: center;"">₪40<br>65%</p>

        <p id=""wtp"" style=""text-align:center; margin-top: 0px; margin-bottom: 0px; font-size: 40px"";>מוכנים לשלם: <span id=""c_p_y""></span></p>","20","example","2","","","","","","","","","","","","","","","","","","","",""
"","","","","","html-keyboard-response","5","69961","0.0-5.0","197816d4-72ff-406a-aa8d-71f44d0031f7","null","<p>יפה מאוד!
                <br> בחרתם שתהיו מוכנים לשלם ₪20 כדי להשתתף בהגרלה:
                <br><p style=""text-align: center;"">₪40<br>65%</p>
                <p>נשמע נכון?
                <br>נניח שהגרלה זו נבחרה בסוף הניסוי.
                <br>כעת המחשב יקבע מחיר עבורה באקראי.
                <br>לחצו על העכבר להמשך.</p>","1","example","","","","","","","","","","","","","","","","","","","","",""
"","","","","","html-keyboard-response","6","85416","0.0-6.0","197816d4-72ff-406a-aa8d-71f44d0031f7","null","<p>המחשב קבע מחיר: ₪54
                <br>ואתם בחרתם לשלם לכל היותר: ₪20
                <br><br>מכיוון שהמחיר שבחרתם נמוך מהמחיר שנקבע, לא תתשתתפו בהגרלה.
                <br>במקרה כזה, בסוף הניסוי תקבלו את כל התקציב ההתחלתי של ₪80.
                <br><br>לחצו על העכבר להמשך.</p>","1","example","","","","","","","","","","","","","","","","","","","","",""
"","","","","","html-slider-response","7","93761","0.0-7.0","197816d4-72ff-406a-aa8d-71f44d0031f7","8090","<p style=""font-size: 42px;"">הנה עוד דוגמא:
                <br>ההגרלה מטה מציעה 35% סיכוי לזכות ב-₪18 
                <br>&emsp;&emsp;&emsp;&emsp;&emsp;&emsp;&emsp;&emsp;&ensp;65% סיכוי לזכות ב-₪0.</p>
        
                <p style=""text-align: center;"">₪18<br>35%</p>
                <p id=""wtp"" style=""text-align:center; margin-top: 0px; margin-bottom: 0px; font-size: 40px"";>מוכנים לשלם: <span id=""c_p_y""></span></p>","3","example","50","","","","","","","","","","","","","","","","","","","",""
"","","","","","html-keyboard-response","8","96576","0.0-8.0","197816d4-72ff-406a-aa8d-71f44d0031f7","null","<p>הייתם מוכנים לשלם  ₪3 כדי להשתתף בהגרלה:
                <p style=""text-align: center;"">₪18<br>35%</p>
                <p>כעת נניח שהמחשב בחר את ההגרלה הזו בסוף הניסוי, וקבע עבורה מחיר.
                <br><br>לחצו על העכבר כדי להמשיך.</p>","1","instructions","","","","","","","","","","","","","","","","","","","","",""
"","","","","","html-keyboard-response","9","131104","0.0-9.0","197816d4-72ff-406a-aa8d-71f44d0031f7","null","<p>המחשב קבע מחיר להגרלה: ₪0<br>ואתם בחרתם לשלם לכל היותר: ₪3
                <br><br>כעת המחיר שנקבע נמוך מזה שבחרתם, אז תשלמו את המחיר שקבע המחשב (₪0) ותשתתפו בהגרלה.
                <br>במקרה כזה, תסיימו את הניסוי עם תקציב של ₪80 ועם סיכוי לזכות ב-₪18 נוספים מההגרלה.
                <br>כלומר, תוכלו לקבל ₪80 אם לא תזכו בהגרלה, או ₪98 אם תזכו בהגרלה.
                <br><br>לחצו על העכבר להמשך.</p>","1","example","","","","","","","","","","","","","","","","","","","","",""
"","","","","","html-keyboard-response","10","140024","0.0-10.0","197816d4-72ff-406a-aa8d-71f44d0031f7","null","<p>במהלך הניסוי, קודם תראו את ההגרלה ורק לאחר מכן תוכלו לבחור.
                <p>כמו כן, יהיו לכם מספר שניות מוגבל להגיב.
                <p>בואו ננסה זאת עם ההגרלה הקודמת.
                <br>לחצו על העכבר כדי להמשיך.</p>","1","instructions","","","","","","","","","","","","","","","","","","","","",""
"","","","","","html-slider-response","11","141285","0.0-11.0","197816d4-72ff-406a-aa8d-71f44d0031f7","1000","
                    <p style=""text-align: center;"">₪18<br>35%</p>
                    <p id=""wtp"" style=""text-align:center; margin-top: 0px; margin-bottom: 0px; font-size: 40px"";>&ensp;</p>","39","instructions","0","","","","","","","","","","","","","","","","","","","",""
"","","","","","html-slider-response","12","145546","0.0-12.0","197816d4-72ff-406a-aa8d-71f44d0031f7","null","
                    <p style=""text-align: center;"">₪18<br>35%</p>
                    <p id=""wtp"" style=""text-align:center; margin-top: 0px; margin-bottom: 0px; font-size: 40px"";>מוכנים לשלם: <span id=""c_p_y""></span></p>","null","instructions","7","","","","","","","","","","","","","","","","","","","",""
"","","","","","html-keyboard-response","13","150800","0.0-13.0","197816d4-72ff-406a-aa8d-71f44d0031f7","null","<p>לא הגבתם בזמן המוקצב לתגובה. 
                <br>נסו להגיב מהר יותר בפעם הבאה.
                <br><br>לחצו על העכבר כדי להמשיך.</p>","1","instructions","","","","","","","","","","","","","","","","","","","","",""
"","","","","","html-slider-response","14","154793","0.0-14.0-0.0","197816d4-72ff-406a-aa8d-71f44d0031f7","3730","
                    <p style=""text-align: center;"">₪40<br>65%</p>
                    <p id=""wtp"" style=""text-align:center; margin-top: 0px; margin-bottom: 0px; font-size: 40px"";>מוכנים לשלם: <span id=""c_p_y""></span></p>","12","instructions","76","","","","","","","","","","","","","","","","","","","",""
"","","","","","html-keyboard-response","15","158128","0.0-14.0-1.0","197816d4-72ff-406a-aa8d-71f44d0031f7","null","<p>יפה. הפעם בחרתם לשלם לכל היותר ₪12.
                <br><br>לחצו על העכבר כדי להמשיך.</p>","1","instructions","","","","","","","","","","","","","","","","","","","","",""
"","","","","","html-keyboard-response","16","172552","0.0-15.0","197816d4-72ff-406a-aa8d-71f44d0031f7","null","<p>כעת נתחיל את הניסוי.
                <br><br>אתם תראו הגרלות ותתבקשו לבחור כמה תהיו מוכנים לשלם כדי להשתתף בהן.
                <br>יש לכם תקציב של ₪80 עבור כל הגרלה.
                <br>בסוף הניסוי הגרלה אחת תבחר באקראי ותשוחק.
                <br><br>לחצו על העכבר כדי להתחיל את הניסוי.</p>","1","instructions","","","","","","","","","","","","","","","","","","","","",""
"","","","","","html-keyboard-response","17","173829","0.0-16.0","197816d4-72ff-406a-aa8d-71f44d0031f7","null","<p style=""text-align: center;"">+</p>","null","fixation","","","","","","","","","","","","","","","","","","","","",""
"","","","","","html-slider-response","18","174835","0.0-17.0-0.0","197816d4-72ff-406a-aa8d-71f44d0031f7","1000","
                  <p style=""text-align: center;"">₪16
                                                <br>20%</p>
                  <p id=""wtp"" style=""text-align:center; margin-top: 0px; margin-bottom: 0px; font-size: 40px"";>&ensp;</p>","-","viewing","0","8","14C,17A,20C,27A","","","","","","","","","","","","","","","","","",""
"","","","","","html-slider-response","19","177641","0.0-17.0-1.0","197816d4-72ff-406a-aa8d-71f44d0031f7","2804","
                  <p style=""text-align: center;"">₪16
                                                <br>20%</p>
                  <p id=""wtp"" style=""text-align:center; margin-top: 0px; margin-bottom: 0px; font-size: 40px"";>מוכנים לשלם: <span id=""c_p_y""></span></p>","9","evaluation","10","8","14C,17A,20C,27A","20","16","9","","","","","","","","","","","","","","",""
"","","","","","html-keyboard-response","20","178326","0.0-17.0-2.0","197816d4-72ff-406a-aa8d-71f44d0031f7","null","<p style=""text-align: center;"">+</p>","null","fixation","","","","","","","","","","","","","","","","","","","","",""
"","","","","","html-slider-response","21","179335","0.0-17.0-0.1","197816d4-72ff-406a-aa8d-71f44d0031f7","1000","
                  <p style=""text-align: center;"">₪11
                                                <br>75%</p>
                  <p id=""wtp"" style=""text-align:center; margin-top: 0px; margin-bottom: 0px; font-size: 40px"";>&ensp;</p>","-","viewing","0","7","6B,18B,22C,24C,29A","","","","","","","","","","","","","","","","","",""
"","","","","","html-slider-response","22","183352","0.0-17.0-1.1","197816d4-72ff-406a-aa8d-71f44d0031f7","null","
                  <p style=""text-align: center;"">₪11
                                                <br>75%</p>
                  <p id=""wtp"" style=""text-align:center; margin-top: 0px; margin-bottom: 0px; font-size: 40px"";>מוכנים לשלם: <span id=""c_p_y""></span></p>","null","evaluation","16","7","6B,18B,22C,24C,29A","75","11","19","","","","","","","","","","","","","","",""
"","","","","","html-keyboard-response","23","184568","0.0-17.0-2.1","197816d4-72ff-406a-aa8d-71f44d0031f7","null","<p style=""text-align: center;"">+</p>","null","fixation","","","","","","","","","","","","","","","","","","","","",""
"","","","","","html-slider-response","24","185574","0.0-17.0-0.2","197816d4-72ff-406a-aa8d-71f44d0031f7","1000","
                  <p style=""text-align: center;"">₪64
                                                <br>50%</p>
                  <p id=""wtp"" style=""text-align:center; margin-top: 0px; margin-bottom: 0px; font-size: 40px"";>&ensp;</p>","-","viewing","0","25","1B,3B,4A","","","","","","","","","","","","","","","","","",""
"","","","","","html-slider-response","25","187072","0.0-17.0-1.2","197816d4-72ff-406a-aa8d-71f44d0031f7","1498","
                  <p style=""text-align: center;"">₪64
                                                <br>50%</p>
                  <p id=""wtp"" style=""text-align:center; margin-top: 0px; margin-bottom: 0px; font-size: 40px"";>מוכנים לשלם: <span id=""c_p_y""></span></p>","20","evaluation","54","25","1B,3B,4A","50","64","20","","","","","","","","","","","","","","",""
"","","","","","html-keyboard-response","26","187949","0.0-17.0-2.2","197816d4-72ff-406a-aa8d-71f44d0031f7","null","<p style=""text-align: center;"">+</p>","null","fixation","","","","","","","","","","","","","","","","","","","","",""
"","","","","","html-slider-response","27","188963","0.0-17.0-0.3","197816d4-72ff-406a-aa8d-71f44d0031f7","1000","
                  <p style=""text-align: center;"">₪39
                                                <br>65%</p>
                  <p id=""wtp"" style=""text-align:center; margin-top: 0px; margin-bottom: 0px; font-size: 40px"";>&ensp;</p>","-","viewing","0","16","1A,15A,26C","","","","","","","","","","","","","","","","","",""
"","","","","","html-slider-response","28","192965","0.0-17.0-1.3","197816d4-72ff-406a-aa8d-71f44d0031f7","null","
                  <p style=""text-align: center;"">₪39
                                                <br>65%</p>
                  <p id=""wtp"" style=""text-align:center; margin-top: 0px; margin-bottom: 0px; font-size: 40px"";>מוכנים לשלם: <span id=""c_p_y""></span></p>","null","evaluation","36","16","1A,15A,26C","65","39","15","","","","","","","","","","","","","","",""
"","","","","","html-keyboard-response","29","193596","0.0-17.0-2.3","197816d4-72ff-406a-aa8d-71f44d0031f7","null","<p style=""text-align: center;"">+</p>","null","fixation","","","","","","","","","","","","","","","","","","","","",""
"","","","","","html-slider-response","30","194607","0.0-17.0-0.4","197816d4-72ff-406a-aa8d-71f44d0031f7","1000","
                  <p style=""text-align: center;"">₪58
                                                <br>30%</p>
                  <p id=""wtp"" style=""text-align:center; margin-top: 0px; margin-bottom: 0px; font-size: 40px"";>&ensp;</p>","-","viewing","0","19","13C,30A","","","","","","","","","","","","","","","","","",""
"","","","","","html-slider-response","31","198176","0.0-17.0-1.4","197816d4-72ff-406a-aa8d-71f44d0031f7","3568","
                  <p style=""text-align: center;"">₪58
                                                <br>30%</p>
                  <p id=""wtp"" style=""text-align:center; margin-top: 0px; margin-bottom: 0px; font-size: 40px"";>מוכנים לשלם: <span id=""c_p_y""></span></p>","10","evaluation","44","19","13C,30A","30","58","10","","","","","","","","","","","","","","",""
"","","","","","html-keyboard-response","32","199218","0.0-17.0-2.4","197816d4-72ff-406a-aa8d-71f44d0031f7","null","<p style=""text-align: center;"">+</p>","null","fixation","","","","","","","","","","","","","","","","","","","","",""
"","","","","","html-slider-response","33","200227","0.0-17.0-0.5","197816d4-72ff-406a-aa8d-71f44d0031f7","1000","
                  <p style=""text-align: center;"">₪79
                                                <br>65%</p>
                  <p id=""wtp"" style=""text-align:center; margin-top: 0px; margin-bottom: 0px; font-size: 40px"";>&ensp;</p>","-","viewing","0","31","8A","","","","","","","","","","","","","","","","","",""
"","","","","","html-slider-response","34","204228","0.0-17.0-1.5","197816d4-72ff-406a-aa8d-71f44d0031f7","null","
                  <p style=""text-align: center;"">₪79
                                                <br>65%</p>
                  <p id=""wtp"" style=""text-align:center; margin-top: 0px; margin-bottom: 0px; font-size: 40px"";>מוכנים לשלם: <span id=""c_p_y""></span></p>","null","evaluation","59","31","8A","65","79","27","","","","","","","","","","","","","","",""
"","","","","","html-keyboard-response","35","204886","0.0-17.0-2.5","197816d4-72ff-406a-aa8d-71f44d0031f7","null","<p style=""text-align: center;"">+</p>","null","fixation","","","","","","","","","","","","","","","","","","","","",""
"","","","","","html-slider-response","36","205903","0.0-17.0-0.6","197816d4-72ff-406a-aa8d-71f44d0031f7","1000","
                  <p style=""text-align: center;"">₪11
                                                <br>20%</p>
                  <p id=""wtp"" style=""text-align:center; margin-top: 0px; margin-bottom: 0px; font-size: 40px"";>&ensp;</p>","-","viewing","0","4","12C,17C,23C,28C","","","","","","","","","","","","","","","","","",""
"","","","","","html-slider-response","37","209312","0.0-17.0-1.6","197816d4-72ff-406a-aa8d-71f44d0031f7","3408","
                  <p style=""text-align: center;"">₪11
                                                <br>20%</p>
                  <p id=""wtp"" style=""text-align:center; margin-top: 0px; margin-bottom: 0px; font-size: 40px"";>מוכנים לשלם: <span id=""c_p_y""></span></p>","9","evaluation","78","4","12C,17C,23C,28C","20","11","9","","","","","","","","","","","","","","",""
"","","","","","html-keyboard-response","38","210089","0.0-17.0-2.6","197816d4-72ff-406a-aa8d-71f44d0031f7","null","<p style=""text-align: center;"">+</p>","null","fixation","","","","","","","","","","","","","","","","","","","","",""
"","","","","","html-slider-response","39","211091","0.0-17.0-0.7","197816d4-72ff-406a-aa8d-71f44d0031f7","1000","
                  <p style=""text-align: center;"">₪64
                                                <br>25%</p>
                  <p id=""wtp"" style=""text-align:center; margin-top: 0px; margin-bottom: 0px; font-size: 40px"";>&ensp;</p>","-","viewing","0","24","6A,21A","","","","","","","","","","","","","","","","","",""
"","","","","","html-slider-response","40","214216","0.0-17.0-1.7","197816d4-72ff-406a-aa8d-71f44d0031f7","3124","
                  <p style=""text-align: center;"">₪64
                                                <br>25%</p>
                  <p id=""wtp"" style=""text-align:center; margin-top: 0px; margin-bottom: 0px; font-size: 40px"";>מוכנים לשלם: <span id=""c_p_y""></span></p>","2","evaluation","3","24","6A,21A","25","64","3","","","","","","","","","","","","","","",""
"","","","","","html-keyboard-response","41","215481","0.0-17.0-2.7","197816d4-72ff-406a-aa8d-71f44d0031f7","null","<p style=""text-align: center;"">+</p>","null","fixation","","","","","","","","","","","","","","","","","","","","",""
"","","","","","html-slider-response","42","216491","0.0-17.0-0.8","197816d4-72ff-406a-aa8d-71f44d0031f7","1000","
                  <p style=""text-align: center;"">₪43
                                                <br>60%</p>
                  <p id=""wtp"" style=""text-align:center; margin-top: 0px; margin-bottom: 0px; font-size: 40px"";>&ensp;</p>","-","viewing","0","17","2A,7A,9A,15B","","","","","","","","","","","","","","","","","",""
"","","","","","html-slider-response","43","219872","0.0-17.0-1.8","197816d4-72ff-406a-aa8d-71f44d0031f7","3380","
                  <p style=""text-align: center;"">₪43
                                                <br>60%</p>
                  <p id=""wtp"" style=""text-align:center; margin-top: 0px; margin-bottom: 0px; font-size: 40px"";>מוכנים לשלם: <span id=""c_p_y""></span></p>","24","evaluation","63","17","2A,7A,9A,15B","60","43","25","","","","","","","","","","","","","","",""
"","","","","","html-keyboard-response","44","220516","0.0-17.0-2.8","197816d4-72ff-406a-aa8d-71f44d0031f7","null","<p style=""text-align: center;"">+</p>","null","fixation","","","","","","","","","","","","","","","","","","","","",""
"","","","","","html-slider-response","45","221524","0.0-17.0-0.9","197816d4-72ff-406a-aa8d-71f44d0031f7","1000","
                  <p style=""text-align: center;"">₪36
                                                <br>30%</p>
                  <p id=""wtp"" style=""text-align:center; margin-top: 0px; margin-bottom: 0px; font-size: 40px"";>&ensp;</p>","-","viewing","0","11","3C,20A,22A","","","","","","","","","","","","","","","","","",""
"","","","","","html-slider-response","46","225112","0.0-17.0-1.9","197816d4-72ff-406a-aa8d-71f44d0031f7","3587","
                  <p style=""text-align: center;"">₪36
                                                <br>30%</p>
                  <p id=""wtp"" style=""text-align:center; margin-top: 0px; margin-bottom: 0px; font-size: 40px"";>מוכנים לשלם: <span id=""c_p_y""></span></p>","10","evaluation","53","11","3C,20A,22A","30","36","10","","","","","","","","","","","","","","",""
"","","","","","html-keyboard-response","47","226115","0.0-17.0-2.9","197816d4-72ff-406a-aa8d-71f44d0031f7","null","<p style=""text-align: center;"">+</p>","null","fixation","","","","","","","","","","","","","","","","","","","","",""
"","","","","","html-slider-response","48","227118","0.0-17.0-0.10","197816d4-72ff-406a-aa8d-71f44d0031f7","1000","
                  <p style=""text-align: center;"">₪36
                                                <br>70%</p>
                  <p id=""wtp"" style=""text-align:center; margin-top: 0px; margin-bottom: 0px; font-size: 40px"";>&ensp;</p>","-","viewing","0","13","3A,5C,10B","","","","","","","","","","","","","","","","","",""
"","","","","","html-slider-response","49","230585","0.0-17.0-1.10","197816d4-72ff-406a-aa8d-71f44d0031f7","3465","
                  <p style=""text-align: center;"">₪36
                                                <br>70%</p>
                  <p id=""wtp"" style=""text-align:center; margin-top: 0px; margin-bottom: 0px; font-size: 40px"";>מוכנים לשלם: <span id=""c_p_y""></span></p>","30","evaluation","80","13","3A,5C,10B","70","36","30","","","","","","","","","","","","","","",""
"","","","","","html-keyboard-response","50","232028","0.0-17.0-2.10","197816d4-72ff-406a-aa8d-71f44d0031f7","null","<p style=""text-align: center;"">+</p>","null","fixation","","","","","","","","","","","","","","","","","","","","",""
"","","","","","html-slider-response","51","233031","0.0-17.0-0.11","197816d4-72ff-406a-aa8d-71f44d0031f7","1000","
                  <p style=""text-align: center;"">₪79
                                                <br>40%</p>
                  <p id=""wtp"" style=""text-align:center; margin-top: 0px; margin-bottom: 0px; font-size: 40px"";>&ensp;</p>","-","viewing","0","30","9B","","","","","","","","","","","","","","","","","",""
"","","","","","html-slider-response","52","236800","0.0-17.0-1.11","197816d4-72ff-406a-aa8d-71f44d0031f7","3768","
                  <p style=""text-align: center;"">₪79
                                                <br>40%</p>
                  <p id=""wtp"" style=""text-align:center; margin-top: 0px; margin-bottom: 0px; font-size: 40px"";>מוכנים לשלם: <span id=""c_p_y""></span></p>","19","evaluation","38","30","9B","40","79","19","","","","","","","","","","","","","","",""
"","","","","","html-keyboard-response","53","238232","0.0-17.0-2.11","197816d4-72ff-406a-aa8d-71f44d0031f7","null","<p style=""text-align: center;"">+</p>","null","fixation","","","","","","","","","","","","","","","","","","","","",""
"","","","","","html-slider-response","54","239235","0.0-17.0-0.12","197816d4-72ff-406a-aa8d-71f44d0031f7","1000","
                  <p style=""text-align: center;"">₪43
                                                <br>75%</p>
                  <p id=""wtp"" style=""text-align:center; margin-top: 0px; margin-bottom: 0px; font-size: 40px"";>&ensp;</p>","-","viewing","0","18","11B,19B,24A,26A","","","","","","","","","","","","","","","","","",""
"","","","","","html-slider-response","55","242273","0.0-17.0-1.12","197816d4-72ff-406a-aa8d-71f44d0031f7","3036","
                  <p style=""text-align: center;"">₪43
                                                <br>75%</p>
                  <p id=""wtp"" style=""text-align:center; margin-top: 0px; margin-bottom: 0px; font-size: 40px"";>מוכנים לשלם: <span id=""c_p_y""></span></p>","35","evaluation","67","18","11B,19B,24A,26A","75","43","35","","","","","","","","","","","","","","",""
"","","","","","html-keyboard-response","56","242962","0.0-17.0-2.12","197816d4-72ff-406a-aa8d-71f44d0031f7","null","<p style=""text-align: center;"">+</p>","null","fixation","","","","","","","","","","","","","","","","","","","","",""
"","","","","","html-slider-response","57","243967","0.0-17.0-0.13","197816d4-72ff-406a-aa8d-71f44d0031f7","1000","
                  <p style=""text-align: center;"">₪18
                                                <br>25%</p>
                  <p id=""wtp"" style=""text-align:center; margin-top: 0px; margin-bottom: 0px; font-size: 40px"";>&ensp;</p>","-","viewing","0","9","14A,23A","","","","","","","","","","","","","","","","","",""
"","","","","","html-slider-response","58","246921","0.0-17.0-1.13","197816d4-72ff-406a-aa8d-71f44d0031f7","2953","
                  <p style=""text-align: center;"">₪18
                                                <br>25%</p>
                  <p id=""wtp"" style=""text-align:center; margin-top: 0px; margin-bottom: 0px; font-size: 40px"";>מוכנים לשלם: <span id=""c_p_y""></span></p>","2","evaluation","40","9","14A,23A","25","18","3","","","","","","","","","","","","","","",""
"","","","","","html-keyboard-response","59","247781","0.0-17.0-2.13","197816d4-72ff-406a-aa8d-71f44d0031f7","null","<p style=""text-align: center;"">+</p>","null","fixation","","","","","","","","","","","","","","","","","","","","",""
"","","","","","html-slider-response","60","248786","0.0-17.0-0.14","197816d4-72ff-406a-aa8d-71f44d0031f7","1000","
                  <p style=""text-align: center;"">₪11
                                                <br>45%</p>
                  <p id=""wtp"" style=""text-align:center; margin-top: 0px; margin-bottom: 0px; font-size: 40px"";>&ensp;</p>","-","viewing","0","6","14B,21C,25C","","","","","","","","","","","","","","","","","",""
"","","","","","html-slider-response","61","251305","0.0-17.0-1.14","197816d4-72ff-406a-aa8d-71f44d0031f7","2518","
                  <p style=""text-align: center;"">₪11
                                                <br>45%</p>
                  <p id=""wtp"" style=""text-align:center; margin-top: 0px; margin-bottom: 0px; font-size: 40px"";>מוכנים לשלם: <span id=""c_p_y""></span></p>","5","evaluation","13","6","14B,21C,25C","45","11","6","","","","","","","","","","","","","","",""
"","","","","","html-keyboard-response","62","252563","0.0-17.0-2.14","197816d4-72ff-406a-aa8d-71f44d0031f7","null","<p style=""text-align: center;"">+</p>","null","fixation","","","","","","","","","","","","","","","","","","","","",""
"","","","","","html-slider-response","63","253580","0.0-17.0-0.15","197816d4-72ff-406a-aa8d-71f44d0031f7","1000","
                  <p style=""text-align: center;"">₪36
                                                <br>60%</p>
                  <p id=""wtp"" style=""text-align:center; margin-top: 0px; margin-bottom: 0px; font-size: 40px"";>&ensp;</p>","-","viewing","0","12","1C,7C,15C","","","","","","","","","","","","","","","","","",""
"","","","","","html-slider-response","64","256257","0.0-17.0-1.15","197816d4-72ff-406a-aa8d-71f44d0031f7","2676","
                  <p style=""text-align: center;"">₪36
                                                <br>60%</p>
                  <p id=""wtp"" style=""text-align:center; margin-top: 0px; margin-bottom: 0px; font-size: 40px"";>מוכנים לשלם: <span id=""c_p_y""></span></p>","20","evaluation","54","12","1C,7C,15C","60","36","20","","","","","","","","","","","","","","",""
"","","","","","html-keyboard-response","65","257628","0.0-17.0-2.15","197816d4-72ff-406a-aa8d-71f44d0031f7","null","<p style=""text-align: center;"">+</p>","null","fixation","","","","","","","","","","","","","","","","","","","","",""
"","","","","","html-slider-response","66","258645","0.0-17.0-0.16","197816d4-72ff-406a-aa8d-71f44d0031f7","1000","
                  <p style=""text-align: center;"">₪61
                                                <br>55%</p>
                  <p id=""wtp"" style=""text-align:center; margin-top: 0px; margin-bottom: 0px; font-size: 40px"";>&ensp;</p>","-","viewing","0","23","7B,26B","","","","","","","","","","","","","","","","","",""
"","","","","","html-slider-response","67","260769","0.0-17.0-1.16","197816d4-72ff-406a-aa8d-71f44d0031f7","2122","
                  <p style=""text-align: center;"">₪61
                                                <br>55%</p>
                  <p id=""wtp"" style=""text-align:center; margin-top: 0px; margin-bottom: 0px; font-size: 40px"";>מוכנים לשלם: <span id=""c_p_y""></span></p>","20","evaluation","40","23","7B,26B","55","61","20","","","","","","","","","","","","","","",""
"","","","","","html-keyboard-response","68","261639","0.0-17.0-2.16","197816d4-72ff-406a-aa8d-71f44d0031f7","null","<p style=""text-align: center;"">+</p>","null","fixation","","","","","","","","","","","","","","","","","","","","",""
"","","","","","html-slider-response","69","262642","0.0-17.0-0.17","197816d4-72ff-406a-aa8d-71f44d0031f7","1000","
                  <p style=""text-align: center;"">₪71
                                                <br>45%</p>
                  <p id=""wtp"" style=""text-align:center; margin-top: 0px; margin-bottom: 0px; font-size: 40px"";>&ensp;</p>","-","viewing","0","26","2B,16A","","","","","","","","","","","","","","","","","",""
"","","","","","html-slider-response","70","266658","0.0-17.0-1.17","197816d4-72ff-406a-aa8d-71f44d0031f7","null","
                  <p style=""text-align: center;"">₪71
                                                <br>45%</p>
                  <p id=""wtp"" style=""text-align:center; margin-top: 0px; margin-bottom: 0px; font-size: 40px"";>מוכנים לשלם: <span id=""c_p_y""></span></p>","null","evaluation","57","26","2B,16A","45","71","12","","","","","","","","","","","","","","",""
"","","","","","html-keyboard-response","71","267747","0.0-17.0-2.17","197816d4-72ff-406a-aa8d-71f44d0031f7","null","<p style=""text-align: center;"">+</p>","null","fixation","","","","","","","","","","","","","","","","","","","","",""
"","","","","","html-slider-response","72","268753","0.0-17.0-0.18","197816d4-72ff-406a-aa8d-71f44d0031f7","1000","
                  <p style=""text-align: center;"">₪18
                                                <br>50%</p>
                  <p id=""wtp"" style=""text-align:center; margin-top: 0px; margin-bottom: 0px; font-size: 40px"";>&ensp;</p>","-","viewing","0","10","2C,16C,22B,28A","","","","","","","","","","","","","","","","","",""
"","","","","","html-slider-response","73","271425","0.0-17.0-1.18","197816d4-72ff-406a-aa8d-71f44d0031f7","2671","
                  <p style=""text-align: center;"">₪18
                                                <br>50%</p>
                  <p id=""wtp"" style=""text-align:center; margin-top: 0px; margin-bottom: 0px; font-size: 40px"";>מוכנים לשלם: <span id=""c_p_y""></span></p>","6","evaluation","33","10","2C,16C,22B,28A","50","18","7","","","","","","","","","","","","","","",""
"","","","","","html-keyboard-response","74","272711","0.0-17.0-2.18","197816d4-72ff-406a-aa8d-71f44d0031f7","null","<p style=""text-align: center;"">+</p>","null","fixation","","","","","","","","","","","","","","","","","","","","",""
"","","","","","html-slider-response","75","273722","0.0-17.0-0.19","197816d4-72ff-406a-aa8d-71f44d0031f7","1000","
                  <p style=""text-align: center;"">₪61
                                                <br>45%</p>
                  <p id=""wtp"" style=""text-align:center; margin-top: 0px; margin-bottom: 0px; font-size: 40px"";>&ensp;</p>","-","viewing","0","22","10A,11A","","","","","","","","","","","","","","","","","",""
"","","","","","html-slider-response","76","275193","0.0-17.0-1.19","197816d4-72ff-406a-aa8d-71f44d0031f7","1470","
                  <p style=""text-align: center;"">₪61
                                                <br>45%</p>
                  <p id=""wtp"" style=""text-align:center; margin-top: 0px; margin-bottom: 0px; font-size: 40px"";>מוכנים לשלם: <span id=""c_p_y""></span></p>","5","evaluation","5","22","10A,11A","45","61","5","","","","","","","","","","","","","","",""
"","","","","","html-keyboard-response","77","276234","0.0-17.0-2.19","197816d4-72ff-406a-aa8d-71f44d0031f7","null","<p style=""text-align: center;"">+</p>","null","fixation","","","","","","","","","","","","","","","","","","","","",""
"","","","","","html-slider-response","78","277249","0.0-17.0-0.20","197816d4-72ff-406a-aa8d-71f44d0031f7","1000","
                  <p style=""text-align: center;"">₪71
                                                <br>55%</p>
                  <p id=""wtp"" style=""text-align:center; margin-top: 0px; margin-bottom: 0px; font-size: 40px"";>&ensp;</p>","-","viewing","0","27","5B,18A","","","","","","","","","","","","","","","","","",""
"","","","","","html-slider-response","79","279545","0.0-17.0-1.20","197816d4-72ff-406a-aa8d-71f44d0031f7","2295","
                  <p style=""text-align: center;"">₪71
                                                <br>55%</p>
                  <p id=""wtp"" style=""text-align:center; margin-top: 0px; margin-bottom: 0px; font-size: 40px"";>מוכנים לשלם: <span id=""c_p_y""></span></p>","6","evaluation","40","27","5B,18A","55","71","6","","","","","","","","","","","","","","",""
"","","","","","html-keyboard-response","80","280887","0.0-17.0-2.20","197816d4-72ff-406a-aa8d-71f44d0031f7","null","<p style=""text-align: center;"">+</p>","null","fixation","","","","","","","","","","","","","","","","","","","","",""
"","","","","","html-slider-response","81","281890","0.0-17.0-0.21","197816d4-72ff-406a-aa8d-71f44d0031f7","1000","
                  <p style=""text-align: center;"">₪39
                                                <br>60%</p>
                  <p id=""wtp"" style=""text-align:center; margin-top: 0px; margin-bottom: 0px; font-size: 40px"";>&ensp;</p>","-","viewing","0","15","9C,25B","","","","","","","","","","","","","","","","","",""
"","","","","","html-slider-response","82","284121","0.0-17.0-1.21","197816d4-72ff-406a-aa8d-71f44d0031f7","2230","
                  <p style=""text-align: center;"">₪39
                                                <br>60%</p>
                  <p id=""wtp"" style=""text-align:center; margin-top: 0px; margin-bottom: 0px; font-size: 40px"";>מוכנים לשלם: <span id=""c_p_y""></span></p>","20","evaluation","77","15","9C,25B","60","39","20","","","","","","","","","","","","","","",""
"","","","","","html-keyboard-response","83","284983","0.0-17.0-2.21","197816d4-72ff-406a-aa8d-71f44d0031f7","null","<p style=""text-align: center;"">+</p>","null","fixation","","","","","","","","","","","","","","","","","","","","",""
"","","","","","html-slider-response","84","285991","0.0-17.0-0.22","197816d4-72ff-406a-aa8d-71f44d0031f7","1000","
                  <p style=""text-align: center;"">₪36
                                                <br>75%</p>
                  <p id=""wtp"" style=""text-align:center; margin-top: 0px; margin-bottom: 0px; font-size: 40px"";>&ensp;</p>","-","viewing","0","14","4B,5A,13B,16B","","","","","","","","","","","","","","","","","",""
"","","","","","html-slider-response","85","287705","0.0-17.0-1.22","197816d4-72ff-406a-aa8d-71f44d0031f7","1713","
                  <p style=""text-align: center;"">₪36
                                                <br>75%</p>
                  <p id=""wtp"" style=""text-align:center; margin-top: 0px; margin-bottom: 0px; font-size: 40px"";>מוכנים לשלם: <span id=""c_p_y""></span></p>","29","evaluation","56","14","4B,5A,13B,16B","75","36","29","","","","","","","","","","","","","","",""
"","","","","","html-keyboard-response","86","289055","0.0-17.0-2.22","197816d4-72ff-406a-aa8d-71f44d0031f7","null","<p style=""text-align: center;"">+</p>","null","fixation","","","","","","","","","","","","","","","","","","","","",""
"","","","","","html-slider-response","87","290071","0.0-17.0-0.23","197816d4-72ff-406a-aa8d-71f44d0031f7","1000","
                  <p style=""text-align: center;"">₪4
                                                <br>50%</p>
                  <p id=""wtp"" style=""text-align:center; margin-top: 0px; margin-bottom: 0px; font-size: 40px"";>&ensp;</p>","-","viewing","0","2","4C,17B","","","","","","","","","","","","","","","","","",""
"","","","","","html-slider-response","88","292033","0.0-17.0-1.23","197816d4-72ff-406a-aa8d-71f44d0031f7","1961","
                  <p style=""text-align: center;"">₪4
                                                <br>50%</p>
                  <p id=""wtp"" style=""text-align:center; margin-top: 0px; margin-bottom: 0px; font-size: 40px"";>מוכנים לשלם: <span id=""c_p_y""></span></p>","5","evaluation","8","2","4C,17B","50","4","5","","","","","","","","","","","","","","",""
"","","","","","html-keyboard-response","89","292986","0.0-17.0-2.23","197816d4-72ff-406a-aa8d-71f44d0031f7","null","<p style=""text-align: center;"">+</p>","null","fixation","","","","","","","","","","","","","","","","","","","","",""
"","","","","","html-slider-response","90","293987","0.0-17.0-0.24","197816d4-72ff-406a-aa8d-71f44d0031f7","1000","
                  <p style=""text-align: center;"">₪71
                                                <br>75%</p>
                  <p id=""wtp"" style=""text-align:center; margin-top: 0px; margin-bottom: 0px; font-size: 40px"";>&ensp;</p>","-","viewing","0","28","8B","","","","","","","","","","","","","","","","","",""
"","","","","","html-slider-response","91","296897","0.0-17.0-1.24","197816d4-72ff-406a-aa8d-71f44d0031f7","2908","
                  <p style=""text-align: center;"">₪71
                                                <br>75%</p>
                  <p id=""wtp"" style=""text-align:center; margin-top: 0px; margin-bottom: 0px; font-size: 40px"";>מוכנים לשלם: <span id=""c_p_y""></span></p>","30","evaluation","52","28","8B","75","71","30","","","","","","","","","","","","","","",""
"","","","","","html-keyboard-response","92","297663","0.0-17.0-2.24","197816d4-72ff-406a-aa8d-71f44d0031f7","null","<p style=""text-align: center;"">+</p>","null","fixation","","","","","","","","","","","","","","","","","","","","",""
"","","","","","html-slider-response","93","298679","0.0-17.0-0.25","197816d4-72ff-406a-aa8d-71f44d0031f7","1000","
                  <p style=""text-align: center;"">₪58
                                                <br>40%</p>
                  <p id=""wtp"" style=""text-align:center; margin-top: 0px; margin-bottom: 0px; font-size: 40px"";>&ensp;</p>","-","viewing","0","20","10C,13A,19C,21B","","","","","","","","","","","","","","","","","",""
"","","","","","html-slider-response","94","302680","0.0-17.0-1.25","197816d4-72ff-406a-aa8d-71f44d0031f7","null","
                  <p style=""text-align: center;"">₪58
                                                <br>40%</p>
                  <p id=""wtp"" style=""text-align:center; margin-top: 0px; margin-bottom: 0px; font-size: 40px"";>מוכנים לשלם: <span id=""c_p_y""></span></p>","null","evaluation","73","20","10C,13A,19C,21B","40","58","10","","","","","","","","","","","","","","",""
"","","","","","html-keyboard-response","95","303937","0.0-17.0-2.25","197816d4-72ff-406a-aa8d-71f44d0031f7","null","<p style=""text-align: center;"">+</p>","null","fixation","","","","","","","","","","","","","","","","","","","","",""
"","","","","","html-slider-response","96","304941","0.0-17.0-0.26","197816d4-72ff-406a-aa8d-71f44d0031f7","1000","
                  <p style=""text-align: center;"">₪4
                                                <br>25%</p>
                  <p id=""wtp"" style=""text-align:center; margin-top: 0px; margin-bottom: 0px; font-size: 40px"";>&ensp;</p>","-","viewing","0","1","6C,29B,30C","","","","","","","","","","","","","","","","","",""
"","","","","","html-slider-response","97","306609","0.0-17.0-1.26","197816d4-72ff-406a-aa8d-71f44d0031f7","1668","
                  <p style=""text-align: center;"">₪4
                                                <br>25%</p>
                  <p id=""wtp"" style=""text-align:center; margin-top: 0px; margin-bottom: 0px; font-size: 40px"";>מוכנים לשלם: <span id=""c_p_y""></span></p>","2","evaluation","56","1","6C,29B,30C","25","4","2","","","","","","","","","","","","","","",""
"","","","","","html-keyboard-response","98","307732","0.0-17.0-2.26","197816d4-72ff-406a-aa8d-71f44d0031f7","null","<p style=""text-align: center;"">+</p>","null","fixation","","","","","","","","","","","","","","","","","","","","",""
"","","","","","html-slider-response","99","308741","0.0-17.0-0.27","197816d4-72ff-406a-aa8d-71f44d0031f7","1000","
                  <p style=""text-align: center;"">₪76
                                                <br>65%</p>
                  <p id=""wtp"" style=""text-align:center; margin-top: 0px; margin-bottom: 0px; font-size: 40px"";>&ensp;</p>","-","viewing","0","29","8C,19A,24B","","","","","","","","","","","","","","","","","",""
"","","","","","html-slider-response","100","311529","0.0-17.0-1.27","197816d4-72ff-406a-aa8d-71f44d0031f7","2786","
                  <p style=""text-align: center;"">₪76
                                                <br>65%</p>
                  <p id=""wtp"" style=""text-align:center; margin-top: 0px; margin-bottom: 0px; font-size: 40px"";>מוכנים לשלם: <span id=""c_p_y""></span></p>","40","evaluation","13","29","8C,19A,24B","65","76","40","","","","","","","","","","","","","","",""
"","","","","","html-keyboard-response","101","312996","0.0-17.0-2.27","197816d4-72ff-406a-aa8d-71f44d0031f7","null","<p style=""text-align: center;"">+</p>","null","fixation","","","","","","","","","","","","","","","","","","","","",""
"","","","","","html-slider-response","102","314012","0.0-17.0-0.28","197816d4-72ff-406a-aa8d-71f44d0031f7","1000","
                  <p style=""text-align: center;"">₪58
                                                <br>45%</p>
                  <p id=""wtp"" style=""text-align:center; margin-top: 0px; margin-bottom: 0px; font-size: 40px"";>&ensp;</p>","-","viewing","0","21","11C,18C,25A","","","","","","","","","","","","","","","","","",""
"","","","","","html-slider-response","103","316169","0.0-17.0-1.28","197816d4-72ff-406a-aa8d-71f44d0031f7","2156","
                  <p style=""text-align: center;"">₪58
                                                <br>45%</p>
                  <p id=""wtp"" style=""text-align:center; margin-top: 0px; margin-bottom: 0px; font-size: 40px"";>מוכנים לשלם: <span id=""c_p_y""></span></p>","4","evaluation","49","21","11C,18C,25A","45","58","5","","","","","","","","","","","","","","",""
"","","","","","html-keyboard-response","104","316834","0.0-17.0-2.28","197816d4-72ff-406a-aa8d-71f44d0031f7","null","<p style=""text-align: center;"">+</p>","null","fixation","","","","","","","","","","","","","","","","","","","","",""
"","","","","","html-slider-response","105","317845","0.0-17.0-0.29","197816d4-72ff-406a-aa8d-71f44d0031f7","1000","
                  <p style=""text-align: center;"">₪11
                                                <br>25%</p>
                  <p id=""wtp"" style=""text-align:center; margin-top: 0px; margin-bottom: 0px; font-size: 40px"";>&ensp;</p>","-","viewing","0","5","12A,27B,28B,30B","","","","","","","","","","","","","","","","","",""
"","","","","","html-slider-response","106","319281","0.0-17.0-1.29","197816d4-72ff-406a-aa8d-71f44d0031f7","1434","
                  <p style=""text-align: center;"">₪11
                                                <br>25%</p>
                  <p id=""wtp"" style=""text-align:center; margin-top: 0px; margin-bottom: 0px; font-size: 40px"";>מוכנים לשלם: <span id=""c_p_y""></span></p>","1","evaluation","64","5","12A,27B,28B,30B","25","11","1","","","","","","","","","","","","","","",""
"","","","","","html-keyboard-response","107","319949","0.0-17.0-2.29","197816d4-72ff-406a-aa8d-71f44d0031f7","null","<p style=""text-align: center;"">+</p>","null","fixation","","","","","","","","","","","","","","","","","","","","",""
"","","","","","html-slider-response","108","320951","0.0-17.0-0.30","197816d4-72ff-406a-aa8d-71f44d0031f7","1000","
                  <p style=""text-align: center;"">₪4
                                                <br>75%</p>
                  <p id=""wtp"" style=""text-align:center; margin-top: 0px; margin-bottom: 0px; font-size: 40px"";>&ensp;</p>","-","viewing","0","3","12B,20B,23B,27C,29C","","","","","","","","","","","","","","","","","",""
"","","","","","html-slider-response","109","324297","0.0-17.0-1.30","197816d4-72ff-406a-aa8d-71f44d0031f7","3344","
                  <p style=""text-align: center;"">₪4
                                                <br>75%</p>
                  <p id=""wtp"" style=""text-align:center; margin-top: 0px; margin-bottom: 0px; font-size: 40px"";>מוכנים לשלם: <span id=""c_p_y""></span></p>","5","evaluation","69","3","12B,20B,23B,27C,29C","75","4","6","","","","","","","","","","","","","","",""
"","","","","","html-keyboard-response","110","325499","0.0-17.0-2.30","197816d4-72ff-406a-aa8d-71f44d0031f7","null","<p style=""text-align: center;"">+</p>","null","fixation","","","","","","","","","","","","","","","","","","","","",""
"","","","","","html-keyboard-response","111","326507","0.0-18.0","197816d4-72ff-406a-aa8d-71f44d0031f7","null","<p style=""text-align: center;"">+</p>","null","fixation","","","","","","","","","","","","","","","","","","","","",""
"","","","","","html-keyboard-response","112","328336","0.0-19.0","197816d4-72ff-406a-aa8d-71f44d0031f7","null","<p>הפסקה.
          <br>לחצו כדי להמשיך.</p>","1","scan_wait","","","","","","","","","","","","","","","","","","","","",""
"","","","","","html-keyboard-response","113","329343","0.0-20.0","197816d4-72ff-406a-aa8d-71f44d0031f7","null","<p style=""text-align: center;"">+</p>","null","fixation","","","","","","","","","","","","","","","","","","","","",""
"","","","","","html-slider-response","114","330345","0.0-21.0-0.0","197816d4-72ff-406a-aa8d-71f44d0031f7","1000","
                  <p style=""text-align: center;"">₪36
                                                <br>60%</p>
                  <p id=""wtp"" style=""text-align:center; margin-top: 0px; margin-bottom: 0px; font-size: 40px"";>&ensp;</p>","-","viewing","0","12","1C,7C,15C","","","","","","","","","","","","","","","","","",""
"","","","","","html-slider-response","115","333313","0.0-21.0-1.0","197816d4-72ff-406a-aa8d-71f44d0031f7","2967","
                  <p style=""text-align: center;"">₪36
                                                <br>60%</p>
                  <p id=""wtp"" style=""text-align:center; margin-top: 0px; margin-bottom: 0px; font-size: 40px"";>מוכנים לשלם: <span id=""c_p_y""></span></p>","15","evaluation","40","12","1C,7C,15C","60","36","15","","","","","","","","","","","","","","",""
"","","","","","html-keyboard-response","116","334032","0.0-21.0-2.0","197816d4-72ff-406a-aa8d-71f44d0031f7","null","<p style=""text-align: center;"">+</p>","null","fixation","","","","","","","","","","","","","","","","","","","","",""
"","","","","","html-slider-response","117","335034","0.0-21.0-0.1","197816d4-72ff-406a-aa8d-71f44d0031f7","1000","
                  <p style=""text-align: center;"">₪11
                                                <br>25%</p>
                  <p id=""wtp"" style=""text-align:center; margin-top: 0px; margin-bottom: 0px; font-size: 40px"";>&ensp;</p>","-","viewing","0","5","12A,27B,28B,30B","","","","","","","","","","","","","","","","","",""
"","","","","","html-slider-response","118","336417","0.0-21.0-1.1","197816d4-72ff-406a-aa8d-71f44d0031f7","1381","
                  <p style=""text-align: center;"">₪11
                                                <br>25%</p>
                  <p id=""wtp"" style=""text-align:center; margin-top: 0px; margin-bottom: 0px; font-size: 40px"";>מוכנים לשלם: <span id=""c_p_y""></span></p>","5","evaluation","42","5","12A,27B,28B,30B","25","11","5","","","","","","","","","","","","","","",""
"","","","","","html-keyboard-response","119","337830","0.0-21.0-2.1","197816d4-72ff-406a-aa8d-71f44d0031f7","null","<p style=""text-align: center;"">+</p>","null","fixation","","","","","","","","","","","","","","","","","","","","",""
"","","","","","html-slider-response","120","338844","0.0-21.0-0.2","197816d4-72ff-406a-aa8d-71f44d0031f7","1000","
                  <p style=""text-align: center;"">₪43
                                                <br>60%</p>
                  <p id=""wtp"" style=""text-align:center; margin-top: 0px; margin-bottom: 0px; font-size: 40px"";>&ensp;</p>","-","viewing","0","17","2A,7A,9A,15B","","","","","","","","","","","","","","","","","",""
"","","","","","html-slider-response","121","341809","0.0-21.0-1.2","197816d4-72ff-406a-aa8d-71f44d0031f7","2963","
                  <p style=""text-align: center;"">₪43
                                                <br>60%</p>
                  <p id=""wtp"" style=""text-align:center; margin-top: 0px; margin-bottom: 0px; font-size: 40px"";>מוכנים לשלם: <span id=""c_p_y""></span></p>","19","evaluation","19","17","2A,7A,9A,15B","60","43","19","","","","","","","","","","","","","","",""
"","","","","","html-keyboard-response","122","342801","0.0-21.0-2.2","197816d4-72ff-406a-aa8d-71f44d0031f7","null","<p style=""text-align: center;"">+</p>","null","fixation","","","","","","","","","","","","","","","","","","","","",""
"","","","","","html-slider-response","123","343815","0.0-21.0-0.3","197816d4-72ff-406a-aa8d-71f44d0031f7","1000","
                  <p style=""text-align: center;"">₪79
                                                <br>65%</p>
                  <p id=""wtp"" style=""text-align:center; margin-top: 0px; margin-bottom: 0px; font-size: 40px"";>&ensp;</p>","-","viewing","0","31","8A","","","","","","","","","","","","","","","","","",""
"","","","","","html-slider-response","124","346946","0.0-21.0-1.3","197816d4-72ff-406a-aa8d-71f44d0031f7","3130","
                  <p style=""text-align: center;"">₪79
                                                <br>65%</p>
                  <p id=""wtp"" style=""text-align:center; margin-top: 0px; margin-bottom: 0px; font-size: 40px"";>מוכנים לשלם: <span id=""c_p_y""></span></p>","32","evaluation","0","31","8A","65","79","32","","","","","","","","","","","","","","",""
"","","","","","html-keyboard-response","125","347737","0.0-21.0-2.3","197816d4-72ff-406a-aa8d-71f44d0031f7","null","<p style=""text-align: center;"">+</p>","null","fixation","","","","","","","","","","","","","","","","","","","","",""
"","","","","","html-slider-response","126","348740","0.0-21.0-0.4","197816d4-72ff-406a-aa8d-71f44d0031f7","1000","
                  <p style=""text-align: center;"">₪4
                                                <br>50%</p>
                  <p id=""wtp"" style=""text-align:center; margin-top: 0px; margin-bottom: 0px; font-size: 40px"";>&ensp;</p>","-","viewing","0","2","4C,17B","","","","","","","","","","","","","","","","","",""
"","","","","","html-slider-response","127","350921","0.0-21.0-1.4","197816d4-72ff-406a-aa8d-71f44d0031f7","2180","
                  <p style=""text-align: center;"">₪4
                                                <br>50%</p>
                  <p id=""wtp"" style=""text-align:center; margin-top: 0px; margin-bottom: 0px; font-size: 40px"";>מוכנים לשלם: <span id=""c_p_y""></span></p>","5","evaluation","25","2","4C,17B","50","4","5","","","","","","","","","","","","","","",""
"","","","","","html-keyboard-response","128","351848","0.0-21.0-2.4","197816d4-72ff-406a-aa8d-71f44d0031f7","null","<p style=""text-align: center;"">+</p>","null","fixation","","","","","","","","","","","","","","","","","","","","",""
"","","","","","html-slider-response","129","352859","0.0-21.0-0.5","197816d4-72ff-406a-aa8d-71f44d0031f7","1000","
                  <p style=""text-align: center;"">₪4
                                                <br>75%</p>
                  <p id=""wtp"" style=""text-align:center; margin-top: 0px; margin-bottom: 0px; font-size: 40px"";>&ensp;</p>","-","viewing","0","3","12B,20B,23B,27C,29C","","","","","","","","","","","","","","","","","",""
"","","","","","html-slider-response","130","355169","0.0-21.0-1.5","197816d4-72ff-406a-aa8d-71f44d0031f7","2308","
                  <p style=""text-align: center;"">₪4
                                                <br>75%</p>
                  <p id=""wtp"" style=""text-align:center; margin-top: 0px; margin-bottom: 0px; font-size: 40px"";>מוכנים לשלם: <span id=""c_p_y""></span></p>","3","evaluation","23","3","12B,20B,23B,27C,29C","75","4","4","","","","","","","","","","","","","","",""
"","","","","","html-keyboard-response","131","355858","0.0-21.0-2.5","197816d4-72ff-406a-aa8d-71f44d0031f7","null","<p style=""text-align: center;"">+</p>","null","fixation","","","","","","","","","","","","","","","","","","","","",""
"","","","","","html-slider-response","132","356871","0.0-21.0-0.6","197816d4-72ff-406a-aa8d-71f44d0031f7","1000","
                  <p style=""text-align: center;"">₪18
                                                <br>25%</p>
                  <p id=""wtp"" style=""text-align:center; margin-top: 0px; margin-bottom: 0px; font-size: 40px"";>&ensp;</p>","-","viewing","0","9","14A,23A","","","","","","","","","","","","","","","","","",""
"","","","","","html-slider-response","133","358145","0.0-21.0-1.6","197816d4-72ff-406a-aa8d-71f44d0031f7","1273","
                  <p style=""text-align: center;"">₪18
                                                <br>25%</p>
                  <p id=""wtp"" style=""text-align:center; margin-top: 0px; margin-bottom: 0px; font-size: 40px"";>מוכנים לשלם: <span id=""c_p_y""></span></p>","5","evaluation","68","9","14A,23A","25","18","5","","","","","","","","","","","","","","",""
"","","","","","html-keyboard-response","134","359512","0.0-21.0-2.6","197816d4-72ff-406a-aa8d-71f44d0031f7","null","<p style=""text-align: center;"">+</p>","null","fixation","","","","","","","","","","","","","","","","","","","","",""
"","","","","","html-slider-response","135","360529","0.0-21.0-0.7","197816d4-72ff-406a-aa8d-71f44d0031f7","1000","
                  <p style=""text-align: center;"">₪39
                                                <br>60%</p>
                  <p id=""wtp"" style=""text-align:center; margin-top: 0px; margin-bottom: 0px; font-size: 40px"";>&ensp;</p>","-","viewing","0","15","9C,25B","","","","","","","","","","","","","","","","","",""
"","","","","","html-slider-response","136","362985","0.0-21.0-1.7","197816d4-72ff-406a-aa8d-71f44d0031f7","2455","
                  <p style=""text-align: center;"">₪39
                                                <br>60%</p>
                  <p id=""wtp"" style=""text-align:center; margin-top: 0px; margin-bottom: 0px; font-size: 40px"";>מוכנים לשלם: <span id=""c_p_y""></span></p>","10","evaluation","69","15","9C,25B","60","39","10","","","","","","","","","","","","","","",""
"","","","","","html-keyboard-response","137","363628","0.0-21.0-2.7","197816d4-72ff-406a-aa8d-71f44d0031f7","null","<p style=""text-align: center;"">+</p>","null","fixation","","","","","","","","","","","","","","","","","","","","",""
"","","","","","html-slider-response","138","364643","0.0-21.0-0.8","197816d4-72ff-406a-aa8d-71f44d0031f7","1000","
                  <p style=""text-align: center;"">₪76
                                                <br>65%</p>
                  <p id=""wtp"" style=""text-align:center; margin-top: 0px; margin-bottom: 0px; font-size: 40px"";>&ensp;</p>","-","viewing","0","29","8C,19A,24B","","","","","","","","","","","","","","","","","",""
"","","","","","html-slider-response","139","368521","0.0-21.0-1.8","197816d4-72ff-406a-aa8d-71f44d0031f7","3877","
                  <p style=""text-align: center;"">₪76
                                                <br>65%</p>
                  <p id=""wtp"" style=""text-align:center; margin-top: 0px; margin-bottom: 0px; font-size: 40px"";>מוכנים לשלם: <span id=""c_p_y""></span></p>","22","evaluation","49","29","8C,19A,24B","65","76","22","","","","","","","","","","","","","","",""
"","","","","","html-keyboard-response","140","369269","0.0-21.0-2.8","197816d4-72ff-406a-aa8d-71f44d0031f7","null","<p style=""text-align: center;"">+</p>","null","fixation","","","","","","","","","","","","","","","","","","","","",""
"","","","","","html-slider-response","141","370284","0.0-21.0-0.9","197816d4-72ff-406a-aa8d-71f44d0031f7","1000","
                  <p style=""text-align: center;"">₪58
                                                <br>45%</p>
                  <p id=""wtp"" style=""text-align:center; margin-top: 0px; margin-bottom: 0px; font-size: 40px"";>&ensp;</p>","-","viewing","0","21","11C,18C,25A","","","","","","","","","","","","","","","","","",""
"","","","","","html-slider-response","142","372849","0.0-21.0-1.9","197816d4-72ff-406a-aa8d-71f44d0031f7","2564","
                  <p style=""text-align: center;"">₪58
                                                <br>45%</p>
                  <p id=""wtp"" style=""text-align:center; margin-top: 0px; margin-bottom: 0px; font-size: 40px"";>מוכנים לשלם: <span id=""c_p_y""></span></p>","4","evaluation","12","21","11C,18C,25A","45","58","5","","","","","","","","","","","","","","",""
"","","","","","html-keyboard-response","143","374292","0.0-21.0-2.9","197816d4-72ff-406a-aa8d-71f44d0031f7","null","<p style=""text-align: center;"">+</p>","null","fixation","","","","","","","","","","","","","","","","","","","","",""
"","","","","","html-slider-response","144","375296","0.0-21.0-0.10","197816d4-72ff-406a-aa8d-71f44d0031f7","1000","
                  <p style=""text-align: center;"">₪36
                                                <br>75%</p>
                  <p id=""wtp"" style=""text-align:center; margin-top: 0px; margin-bottom: 0px; font-size: 40px"";>&ensp;</p>","-","viewing","0","14","4B,5A,13B,16B","","","","","","","","","","","","","","","","","",""
"","","","","","html-slider-response","145","377697","0.0-21.0-1.10","197816d4-72ff-406a-aa8d-71f44d0031f7","2400","
                  <p style=""text-align: center;"">₪36
                                                <br>75%</p>
                  <p id=""wtp"" style=""text-align:center; margin-top: 0px; margin-bottom: 0px; font-size: 40px"";>מוכנים לשלם: <span id=""c_p_y""></span></p>","8","evaluation","74","14","4B,5A,13B,16B","75","36","9","","","","","","","","","","","","","","",""
"","","","","","html-keyboard-response","146","379010","0.0-21.0-2.10","197816d4-72ff-406a-aa8d-71f44d0031f7","null","<p style=""text-align: center;"">+</p>","null","fixation","","","","","","","","","","","","","","","","","","","","",""
"","","","","","html-slider-response","147","380022","0.0-21.0-0.11","197816d4-72ff-406a-aa8d-71f44d0031f7","1000","
                  <p style=""text-align: center;"">₪61
                                                <br>45%</p>
                  <p id=""wtp"" style=""text-align:center; margin-top: 0px; margin-bottom: 0px; font-size: 40px"";>&ensp;</p>","-","viewing","0","22","10A,11A","","","","","","","","","","","","","","","","","",""
"","","","","","html-slider-response","148","384040","0.0-21.0-1.11","197816d4-72ff-406a-aa8d-71f44d0031f7","null","
                  <p style=""text-align: center;"">₪61
                                                <br>45%</p>
                  <p id=""wtp"" style=""text-align:center; margin-top: 0px; margin-bottom: 0px; font-size: 40px"";>מוכנים לשלם: <span id=""c_p_y""></span></p>","null","evaluation","59","22","10A,11A","45","61","10","","","","","","","","","","","","","","",""
"","","","","","html-keyboard-response","149","385051","0.0-21.0-2.11","197816d4-72ff-406a-aa8d-71f44d0031f7","null","<p style=""text-align: center;"">+</p>","null","fixation","","","","","","","","","","","","","","","","","","","","",""
"","","","","","html-slider-response","150","386059","0.0-21.0-0.12","197816d4-72ff-406a-aa8d-71f44d0031f7","1000","
                  <p style=""text-align: center;"">₪58
                                                <br>40%</p>
                  <p id=""wtp"" style=""text-align:center; margin-top: 0px; margin-bottom: 0px; font-size: 40px"";>&ensp;</p>","-","viewing","0","20","10C,13A,19C,21B","","","","","","","","","","","","","","","","","",""
"","","","","","html-slider-response","151","388785","0.0-21.0-1.12","197816d4-72ff-406a-aa8d-71f44d0031f7","2724","
                  <p style=""text-align: center;"">₪58
                                                <br>40%</p>
                  <p id=""wtp"" style=""text-align:center; margin-top: 0px; margin-bottom: 0px; font-size: 40px"";>מוכנים לשלם: <span id=""c_p_y""></span></p>","4","evaluation","8","20","10C,13A,19C,21B","40","58","5","","","","","","","","","","","","","","",""
"","","","","","html-keyboard-response","152","390068","0.0-21.0-2.12","197816d4-72ff-406a-aa8d-71f44d0031f7","null","<p style=""text-align: center;"">+</p>","null","fixation","","","","","","","","","","","","","","","","","","","","",""
"","","","","","html-slider-response","153","391077","0.0-21.0-0.13","197816d4-72ff-406a-aa8d-71f44d0031f7","1000","
                  <p style=""text-align: center;"">₪36
                                                <br>30%</p>
                  <p id=""wtp"" style=""text-align:center; margin-top: 0px; margin-bottom: 0px; font-size: 40px"";>&ensp;</p>","-","viewing","0","11","3C,20A,22A","","","","","","","","","","","","","","","","","",""
"","","","","","html-slider-response","154","393833","0.0-21.0-1.13","197816d4-72ff-406a-aa8d-71f44d0031f7","2755","
                  <p style=""text-align: center;"">₪36
                                                <br>30%</p>
                  <p id=""wtp"" style=""text-align:center; margin-top: 0px; margin-bottom: 0px; font-size: 40px"";>מוכנים לשלם: <span id=""c_p_y""></span></p>","1","evaluation","33","11","3C,20A,22A","30","36","1","","","","","","","","","","","","","","",""
"","","","","","html-keyboard-response","155","395326","0.0-21.0-2.13","197816d4-72ff-406a-aa8d-71f44d0031f7","null","<p style=""text-align: center;"">+</p>","null","fixation","","","","","","","","","","","","","","","","","","","","",""
"","","","","","html-slider-response","156","396337","0.0-21.0-0.14","197816d4-72ff-406a-aa8d-71f44d0031f7","1000","
                  <p style=""text-align: center;"">₪79
                                                <br>40%</p>
                  <p id=""wtp"" style=""text-align:center; margin-top: 0px; margin-bottom: 0px; font-size: 40px"";>&ensp;</p>","-","viewing","0","30","9B","","","","","","","","","","","","","","","","","",""
"","","","","","html-slider-response","157","400345","0.0-21.0-1.14","197816d4-72ff-406a-aa8d-71f44d0031f7","null","
                  <p style=""text-align: center;"">₪79
                                                <br>40%</p>
                  <p id=""wtp"" style=""text-align:center; margin-top: 0px; margin-bottom: 0px; font-size: 40px"";>מוכנים לשלם: <span id=""c_p_y""></span></p>","null","evaluation","62","30","9B","40","79","9","","","","","","","","","","","","","","",""
"","","","","","html-keyboard-response","158","401467","0.0-21.0-2.14","197816d4-72ff-406a-aa8d-71f44d0031f7","null","<p style=""text-align: center;"">+</p>","null","fixation","","","","","","","","","","","","","","","","","","","","",""
"","","","","","html-slider-response","159","402483","0.0-21.0-0.15","197816d4-72ff-406a-aa8d-71f44d0031f7","1000","
                  <p style=""text-align: center;"">₪71
                                                <br>55%</p>
                  <p id=""wtp"" style=""text-align:center; margin-top: 0px; margin-bottom: 0px; font-size: 40px"";>&ensp;</p>","-","viewing","0","27","5B,18A","","","","","","","","","","","","","","","","","",""
"","","","","","html-slider-response","160","405833","0.0-21.0-1.15","197816d4-72ff-406a-aa8d-71f44d0031f7","3350","
                  <p style=""text-align: center;"">₪71
                                                <br>55%</p>
                  <p id=""wtp"" style=""text-align:center; margin-top: 0px; margin-bottom: 0px; font-size: 40px"";>מוכנים לשלם: <span id=""c_p_y""></span></p>","14","evaluation","57","27","5B,18A","55","71","14","","","","","","","","","","","","","","",""
"","","","","","html-keyboard-response","161","406457","0.0-21.0-2.15","197816d4-72ff-406a-aa8d-71f44d0031f7","null","<p style=""text-align: center;"">+</p>","null","fixation","","","","","","","","","","","","","","","","","","","","",""
"","","","","","html-slider-response","162","407471","0.0-21.0-0.16","197816d4-72ff-406a-aa8d-71f44d0031f7","1000","
                  <p style=""text-align: center;"">₪18
                                                <br>50%</p>
                  <p id=""wtp"" style=""text-align:center; margin-top: 0px; margin-bottom: 0px; font-size: 40px"";>&ensp;</p>","-","viewing","0","10","2C,16C,22B,28A","","","","","","","","","","","","","","","","","",""
"","","","","","html-slider-response","163","410017","0.0-21.0-1.16","197816d4-72ff-406a-aa8d-71f44d0031f7","2545","
                  <p style=""text-align: center;"">₪18
                                                <br>50%</p>
                  <p id=""wtp"" style=""text-align:center; margin-top: 0px; margin-bottom: 0px; font-size: 40px"";>מוכנים לשלם: <span id=""c_p_y""></span></p>","10","evaluation","31","10","2C,16C,22B,28A","50","18","10","","","","","","","","","","","","","","",""
"","","","","","html-keyboard-response","164","411016","0.0-21.0-2.16","197816d4-72ff-406a-aa8d-71f44d0031f7","null","<p style=""text-align: center;"">+</p>","null","fixation","","","","","","","","","","","","","","","","","","","","",""
"","","","","","html-slider-response","165","412029","0.0-21.0-0.17","197816d4-72ff-406a-aa8d-71f44d0031f7","1000","
                  <p style=""text-align: center;"">₪16
                                                <br>20%</p>
                  <p id=""wtp"" style=""text-align:center; margin-top: 0px; margin-bottom: 0px; font-size: 40px"";>&ensp;</p>","-","viewing","0","8","14C,17A,20C,27A","","","","","","","","","","","","","","","","","",""
"","","","","","html-slider-response","166","414217","0.0-21.0-1.17","197816d4-72ff-406a-aa8d-71f44d0031f7","2187","
                  <p style=""text-align: center;"">₪16
                                                <br>20%</p>
                  <p id=""wtp"" style=""text-align:center; margin-top: 0px; margin-bottom: 0px; font-size: 40px"";>מוכנים לשלם: <span id=""c_p_y""></span></p>","2","evaluation","19","8","14C,17A,20C,27A","20","16","3","","","","","","","","","","","","","","",""
"","","","","","html-keyboard-response","167","415601","0.0-21.0-2.17","197816d4-72ff-406a-aa8d-71f44d0031f7","null","<p style=""text-align: center;"">+</p>","null","fixation","","","","","","","","","","","","","","","","","","","","",""
"","","","","","html-slider-response","168","416602","0.0-21.0-0.18","197816d4-72ff-406a-aa8d-71f44d0031f7","1000","
                  <p style=""text-align: center;"">₪4
                                                <br>25%</p>
                  <p id=""wtp"" style=""text-align:center; margin-top: 0px; margin-bottom: 0px; font-size: 40px"";>&ensp;</p>","-","viewing","0","1","6C,29B,30C","","","","","","","","","","","","","","","","","",""
"","","","","","html-slider-response","169","419337","0.0-21.0-1.18","197816d4-72ff-406a-aa8d-71f44d0031f7","2733","
                  <p style=""text-align: center;"">₪4
                                                <br>25%</p>
                  <p id=""wtp"" style=""text-align:center; margin-top: 0px; margin-bottom: 0px; font-size: 40px"";>מוכנים לשלם: <span id=""c_p_y""></span></p>","2","evaluation","58","1","6C,29B,30C","25","4","3","","","","","","","","","","","","","","",""
"","","","","","html-keyboard-response","170","419869","0.0-21.0-2.18","197816d4-72ff-406a-aa8d-71f44d0031f7","null","<p style=""text-align: center;"">+</p>","null","fixation","","","","","","","","","","","","","","","","","","","","",""
"","","","","","html-slider-response","171","420884","0.0-21.0-0.19","197816d4-72ff-406a-aa8d-71f44d0031f7","1000","
                  <p style=""text-align: center;"">₪64
                                                <br>50%</p>
                  <p id=""wtp"" style=""text-align:center; margin-top: 0px; margin-bottom: 0px; font-size: 40px"";>&ensp;</p>","-","viewing","0","25","1B,3B,4A","","","","","","","","","","","","","","","","","",""
"","","","","","html-slider-response","172","423857","0.0-21.0-1.19","197816d4-72ff-406a-aa8d-71f44d0031f7","2971","
                  <p style=""text-align: center;"">₪64
                                                <br>50%</p>
                  <p id=""wtp"" style=""text-align:center; margin-top: 0px; margin-bottom: 0px; font-size: 40px"";>מוכנים לשלם: <span id=""c_p_y""></span></p>","15","evaluation","77","25","1B,3B,4A","50","64","15","","","","","","","","","","","","","","",""
"","","","","","html-keyboard-response","173","424905","0.0-21.0-2.19","197816d4-72ff-406a-aa8d-71f44d0031f7","null","<p style=""text-align: center;"">+</p>","null","fixation","","","","","","","","","","","","","","","","","","","","",""
"","","","","","html-slider-response","174","425909","0.0-21.0-0.20","197816d4-72ff-406a-aa8d-71f44d0031f7","1000","
                  <p style=""text-align: center;"">₪11
                                                <br>20%</p>
                  <p id=""wtp"" style=""text-align:center; margin-top: 0px; margin-bottom: 0px; font-size: 40px"";>&ensp;</p>","-","viewing","0","4","12C,17C,23C,28C","","","","","","","","","","","","","","","","","",""
"","","","","","html-slider-response","175","428241","0.0-21.0-1.20","197816d4-72ff-406a-aa8d-71f44d0031f7","2330","
                  <p style=""text-align: center;"">₪11
                                                <br>20%</p>
                  <p id=""wtp"" style=""text-align:center; margin-top: 0px; margin-bottom: 0px; font-size: 40px"";>מוכנים לשלם: <span id=""c_p_y""></span></p>","6","evaluation","21","4","12C,17C,23C,28C","20","11","6","","","","","","","","","","","","","","",""
"","","","","","html-keyboard-response","176","428783","0.0-21.0-2.20","197816d4-72ff-406a-aa8d-71f44d0031f7","null","<p style=""text-align: center;"">+</p>","null","fixation","","","","","","","","","","","","","","","","","","","","",""
"","","","","","html-slider-response","177","429784","0.0-21.0-0.21","197816d4-72ff-406a-aa8d-71f44d0031f7","1000","
                  <p style=""text-align: center;"">₪11
                                                <br>75%</p>
                  <p id=""wtp"" style=""text-align:center; margin-top: 0px; margin-bottom: 0px; font-size: 40px"";>&ensp;</p>","-","viewing","0","7","6B,18B,22C,24C,29A","","","","","","","","","","","","","","","","","",""
"","","","","","html-slider-response","178","432121","0.0-21.0-1.21","197816d4-72ff-406a-aa8d-71f44d0031f7","2335","
                  <p style=""text-align: center;"">₪11
                                                <br>75%</p>
                  <p id=""wtp"" style=""text-align:center; margin-top: 0px; margin-bottom: 0px; font-size: 40px"";>מוכנים לשלם: <span id=""c_p_y""></span></p>","5","evaluation","58","7","6B,18B,22C,24C,29A","75","11","5","","","","","","","","","","","","","","",""
"","","","","","html-keyboard-response","179","433228","0.0-21.0-2.21","197816d4-72ff-406a-aa8d-71f44d0031f7","null","<p style=""text-align: center;"">+</p>","null","fixation","","","","","","","","","","","","","","","","","","","","",""
"","","","","","html-slider-response","180","434231","0.0-21.0-0.22","197816d4-72ff-406a-aa8d-71f44d0031f7","1000","
                  <p style=""text-align: center;"">₪36
                                                <br>70%</p>
                  <p id=""wtp"" style=""text-align:center; margin-top: 0px; margin-bottom: 0px; font-size: 40px"";>&ensp;</p>","-","viewing","0","13","3A,5C,10B","","","","","","","","","","","","","","","","","",""
"","","","","","html-slider-response","181","435729","0.0-21.0-1.22","197816d4-72ff-406a-aa8d-71f44d0031f7","1496","
                  <p style=""text-align: center;"">₪36
                                                <br>70%</p>
                  <p id=""wtp"" style=""text-align:center; margin-top: 0px; margin-bottom: 0px; font-size: 40px"";>מוכנים לשלם: <span id=""c_p_y""></span></p>","10","evaluation","13","13","3A,5C,10B","70","36","10","","","","","","","","","","","","","","",""
"","","","","","html-keyboard-response","182","436738","0.0-21.0-2.22","197816d4-72ff-406a-aa8d-71f44d0031f7","null","<p style=""text-align: center;"">+</p>","null","fixation","","","","","","","","","","","","","","","","","","","","",""
"","","","","","html-slider-response","183","437754","0.0-21.0-0.23","197816d4-72ff-406a-aa8d-71f44d0031f7","1000","
                  <p style=""text-align: center;"">₪11
                                                <br>45%</p>
                  <p id=""wtp"" style=""text-align:center; margin-top: 0px; margin-bottom: 0px; font-size: 40px"";>&ensp;</p>","-","viewing","0","6","14B,21C,25C","","","","","","","","","","","","","","","","","",""
"","","","","","html-slider-response","184","441009","0.0-21.0-1.23","197816d4-72ff-406a-aa8d-71f44d0031f7","3254","
                  <p style=""text-align: center;"">₪11
                                                <br>45%</p>
                  <p id=""wtp"" style=""text-align:center; margin-top: 0px; margin-bottom: 0px; font-size: 40px"";>מוכנים לשלם: <span id=""c_p_y""></span></p>","4","evaluation","0","6","14B,21C,25C","45","11","5","","","","","","","","","","","","","","",""
"","","","","","html-keyboard-response","185","442505","0.0-21.0-2.23","197816d4-72ff-406a-aa8d-71f44d0031f7","null","<p style=""text-align: center;"">+</p>","null","fixation","","","","","","","","","","","","","","","","","","","","",""
"","","","","","html-slider-response","186","443514","0.0-21.0-0.24","197816d4-72ff-406a-aa8d-71f44d0031f7","1000","
                  <p style=""text-align: center;"">₪71
                                                <br>75%</p>
                  <p id=""wtp"" style=""text-align:center; margin-top: 0px; margin-bottom: 0px; font-size: 40px"";>&ensp;</p>","-","viewing","0","28","8B","","","","","","","","","","","","","","","","","",""
"","","","","","html-slider-response","187","446392","0.0-21.0-1.24","197816d4-72ff-406a-aa8d-71f44d0031f7","2878","
                  <p style=""text-align: center;"">₪71
                                                <br>75%</p>
                  <p id=""wtp"" style=""text-align:center; margin-top: 0px; margin-bottom: 0px; font-size: 40px"";>מוכנים לשלם: <span id=""c_p_y""></span></p>","30","evaluation","52","28","8B","75","71","30","","","","","","","","","","","","","","",""
"","","","","","html-keyboard-response","188","447719","0.0-21.0-2.24","197816d4-72ff-406a-aa8d-71f44d0031f7","null","<p style=""text-align: center;"">+</p>","null","fixation","","","","","","","","","","","","","","","","","","","","",""
"","","","","","html-slider-response","189","448734","0.0-21.0-0.25","197816d4-72ff-406a-aa8d-71f44d0031f7","1000","
                  <p style=""text-align: center;"">₪39
                                                <br>65%</p>
                  <p id=""wtp"" style=""text-align:center; margin-top: 0px; margin-bottom: 0px; font-size: 40px"";>&ensp;</p>","-","viewing","0","16","1A,15A,26C","","","","","","","","","","","","","","","","","",""
"","","","","","html-slider-response","190","451585","0.0-21.0-1.25","197816d4-72ff-406a-aa8d-71f44d0031f7","2849","
                  <p style=""text-align: center;"">₪39
                                                <br>65%</p>
                  <p id=""wtp"" style=""text-align:center; margin-top: 0px; margin-bottom: 0px; font-size: 40px"";>מוכנים לשלם: <span id=""c_p_y""></span></p>","15","evaluation","19","16","1A,15A,26C","65","39","15","","","","","","","","","","","","","","",""
"","","","","","html-keyboard-response","191","453014","0.0-21.0-2.25","197816d4-72ff-406a-aa8d-71f44d0031f7","null","<p style=""text-align: center;"">+</p>","null","fixation","","","","","","","","","","","","","","","","","","","","",""
"","","","","","html-slider-response","192","454029","0.0-21.0-0.26","197816d4-72ff-406a-aa8d-71f44d0031f7","1000","
                  <p style=""text-align: center;"">₪64
                                                <br>25%</p>
                  <p id=""wtp"" style=""text-align:center; margin-top: 0px; margin-bottom: 0px; font-size: 40px"";>&ensp;</p>","-","viewing","0","24","6A,21A","","","","","","","","","","","","","","","","","",""
"","","","","","html-slider-response","193","457505","0.0-21.0-1.26","197816d4-72ff-406a-aa8d-71f44d0031f7","3475","
                  <p style=""text-align: center;"">₪64
                                                <br>25%</p>
                  <p id=""wtp"" style=""text-align:center; margin-top: 0px; margin-bottom: 0px; font-size: 40px"";>מוכנים לשלם: <span id=""c_p_y""></span></p>","14","evaluation","40","24","6A,21A","25","64","14","","","","","","","","","","","","","","",""
"","","","","","html-keyboard-response","194","458967","0.0-21.0-2.26","197816d4-72ff-406a-aa8d-71f44d0031f7","null","<p style=""text-align: center;"">+</p>","null","fixation","","","","","","","","","","","","","","","","","","","","",""
"","","","","","html-slider-response","195","459983","0.0-21.0-0.27","197816d4-72ff-406a-aa8d-71f44d0031f7","1000","
                  <p style=""text-align: center;"">₪58
                                                <br>30%</p>
                  <p id=""wtp"" style=""text-align:center; margin-top: 0px; margin-bottom: 0px; font-size: 40px"";>&ensp;</p>","-","viewing","0","19","13C,30A","","","","","","","","","","","","","","","","","",""
"","","","","","html-slider-response","196","463989","0.0-21.0-1.27","197816d4-72ff-406a-aa8d-71f44d0031f7","null","
                  <p style=""text-align: center;"">₪58
                                                <br>30%</p>
                  <p id=""wtp"" style=""text-align:center; margin-top: 0px; margin-bottom: 0px; font-size: 40px"";>מוכנים לשלם: <span id=""c_p_y""></span></p>","null","evaluation","65","19","13C,30A","30","58","6","","","","","","","","","","","","","","",""
"","","","","","html-keyboard-response","197","465257","0.0-21.0-2.27","197816d4-72ff-406a-aa8d-71f44d0031f7","null","<p style=""text-align: center;"">+</p>","null","fixation","","","","","","","","","","","","","","","","","","","","",""
"","","","","","html-slider-response","198","466266","0.0-21.0-0.28","197816d4-72ff-406a-aa8d-71f44d0031f7","1000","
                  <p style=""text-align: center;"">₪71
                                                <br>45%</p>
                  <p id=""wtp"" style=""text-align:center; margin-top: 0px; margin-bottom: 0px; font-size: 40px"";>&ensp;</p>","-","viewing","0","26","2B,16A","","","","","","","","","","","","","","","","","",""
"","","","","","html-slider-response","199","468881","0.0-21.0-1.28","197816d4-72ff-406a-aa8d-71f44d0031f7","2614","
                  <p style=""text-align: center;"">₪71
                                                <br>45%</p>
                  <p id=""wtp"" style=""text-align:center; margin-top: 0px; margin-bottom: 0px; font-size: 40px"";>מוכנים לשלם: <span id=""c_p_y""></span></p>","10","evaluation","13","26","2B,16A","45","71","10","","","","","","","","","","","","","","",""
"","","","","","html-keyboard-response","200","470014","0.0-21.0-2.28","197816d4-72ff-406a-aa8d-71f44d0031f7","null","<p style=""text-align: center;"">+</p>","null","fixation","","","","","","","","","","","","","","","","","","","","",""
"","","","","","html-slider-response","201","471018","0.0-21.0-0.29","197816d4-72ff-406a-aa8d-71f44d0031f7","1000","
                  <p style=""text-align: center;"">₪43
                                                <br>75%</p>
                  <p id=""wtp"" style=""text-align:center; margin-top: 0px; margin-bottom: 0px; font-size: 40px"";>&ensp;</p>","-","viewing","0","18","11B,19B,24A,26A","","","","","","","","","","","","","","","","","",""
"","","","","","html-slider-response","202","475019","0.0-21.0-1.29","197816d4-72ff-406a-aa8d-71f44d0031f7","null","
                  <p style=""text-align: center;"">₪43
                                                <br>75%</p>
                  <p id=""wtp"" style=""text-align:center; margin-top: 0px; margin-bottom: 0px; font-size: 40px"";>מוכנים לשלם: <span id=""c_p_y""></span></p>","null","evaluation","37","18","11B,19B,24A,26A","75","43","16","","","","","","","","","","","","","","",""
"","","","","","html-keyboard-response","203","476256","0.0-21.0-2.29","197816d4-72ff-406a-aa8d-71f44d0031f7","null","<p style=""text-align: center;"">+</p>","null","fixation","","","","","","","","","","","","","","","","","","","","",""
"","","","","","html-slider-response","204","477272","0.0-21.0-0.30","197816d4-72ff-406a-aa8d-71f44d0031f7","1000","
                  <p style=""text-align: center;"">₪61
                                                <br>55%</p>
                  <p id=""wtp"" style=""text-align:center; margin-top: 0px; margin-bottom: 0px; font-size: 40px"";>&ensp;</p>","-","viewing","0","23","7B,26B","","","","","","","","","","","","","","","","","",""
"","","","","","html-slider-response","205","479681","0.0-21.0-1.30","197816d4-72ff-406a-aa8d-71f44d0031f7","2407","
                  <p style=""text-align: center;"">₪61
                                                <br>55%</p>
                  <p id=""wtp"" style=""text-align:center; margin-top: 0px; margin-bottom: 0px; font-size: 40px"";>מוכנים לשלם: <span id=""c_p_y""></span></p>","13","evaluation","61","23","7B,26B","55","61","13","","","","","","","","","","","","","","",""
"","","","","","html-keyboard-response","206","480207","0.0-21.0-2.30","197816d4-72ff-406a-aa8d-71f44d0031f7","null","<p style=""text-align: center;"">+</p>","null","fixation","","","","","","","","","","","","","","","","","","","","",""
"","","","","","html-keyboard-response","207","481209","0.0-22.0","197816d4-72ff-406a-aa8d-71f44d0031f7","null","<p style=""text-align: center;"">+</p>","null","fixation","","","","","","","","","","","","","","","","","","","","",""
"","","","","","html-keyboard-response","208","483120","0.0-23.0","197816d4-72ff-406a-aa8d-71f44d0031f7","null","<p>הפסקה.
          <br>לחצו כדי להמשיך.</p>","1","scan_wait","","","","","","","","","","","","","","","","","","","","",""
"","","","","","html-keyboard-response","209","484121","0.0-24.0","197816d4-72ff-406a-aa8d-71f44d0031f7","null","<p style=""text-align: center;"">+</p>","null","fixation","","","","","","","","","","","","","","","","","","","","",""
"","","","","","html-slider-response","210","485125","0.0-25.0-0.0","197816d4-72ff-406a-aa8d-71f44d0031f7","1000","
                  <p style=""text-align: center;"">₪11
                                                <br>25%</p>
                  <p id=""wtp"" style=""text-align:center; margin-top: 0px; margin-bottom: 0px; font-size: 40px"";>&ensp;</p>","-","viewing","0","5","12A,27B,28B,30B","","","","","","","","","","","","","","","","","",""
"","","","","","html-slider-response","211","487241","0.0-25.0-1.0","197816d4-72ff-406a-aa8d-71f44d0031f7","2115","
                  <p style=""text-align: center;"">₪11
                                                <br>25%</p>
                  <p id=""wtp"" style=""text-align:center; margin-top: 0px; margin-bottom: 0px; font-size: 40px"";>מוכנים לשלם: <span id=""c_p_y""></span></p>","3","evaluation","9","5","12A,27B,28B,30B","25","11","4","","","","","","","","","","","","","","",""
"","","","","","html-keyboard-response","212","488065","0.0-25.0-2.0","197816d4-72ff-406a-aa8d-71f44d0031f7","null","<p style=""text-align: center;"">+</p>","null","fixation","","","","","","","","","","","","","","","","","","","","",""
"","","","","","html-slider-response","213","489076","0.0-25.0-0.1","197816d4-72ff-406a-aa8d-71f44d0031f7","1000","
                  <p style=""text-align: center;"">₪4
                                                <br>75%</p>
                  <p id=""wtp"" style=""text-align:center; margin-top: 0px; margin-bottom: 0px; font-size: 40px"";>&ensp;</p>","-","viewing","0","3","12B,20B,23B,27C,29C","","","","","","","","","","","","","","","","","",""
"","","","","","html-slider-response","214","491401","0.0-25.0-1.1","197816d4-72ff-406a-aa8d-71f44d0031f7","2324","
                  <p style=""text-align: center;"">₪4
                                                <br>75%</p>
                  <p id=""wtp"" style=""text-align:center; margin-top: 0px; margin-bottom: 0px; font-size: 40px"";>מוכנים לשלם: <span id=""c_p_y""></span></p>","4","evaluation","12","3","12B,20B,23B,27C,29C","75","4","4","","","","","","","","","","","","","","",""
"","","","","","html-keyboard-response","215","491994","0.0-25.0-2.1","197816d4-72ff-406a-aa8d-71f44d0031f7","null","<p style=""text-align: center;"">+</p>","null","fixation","","","","","","","","","","","","","","","","","","","","",""
"","","","","","html-slider-response","216","493011","0.0-25.0-0.2","197816d4-72ff-406a-aa8d-71f44d0031f7","1000","
                  <p style=""text-align: center;"">₪18
                                                <br>50%</p>
                  <p id=""wtp"" style=""text-align:center; margin-top: 0px; margin-bottom: 0px; font-size: 40px"";>&ensp;</p>","-","viewing","0","10","2C,16C,22B,28A","","","","","","","","","","","","","","","","","",""
"","","","","","html-slider-response","217","495625","0.0-25.0-1.2","197816d4-72ff-406a-aa8d-71f44d0031f7","2611","
                  <p style=""text-align: center;"">₪18
                                                <br>50%</p>
                  <p id=""wtp"" style=""text-align:center; margin-top: 0px; margin-bottom: 0px; font-size: 40px"";>מוכנים לשלם: <span id=""c_p_y""></span></p>","4","evaluation","26","10","2C,16C,22B,28A","50","18","5","","","","","","","","","","","","","","",""
"","","","","","html-keyboard-response","218","496669","0.0-25.0-2.2","197816d4-72ff-406a-aa8d-71f44d0031f7","null","<p style=""text-align: center;"">+</p>","null","fixation","","","","","","","","","","","","","","","","","","","","",""
"","","","","","html-slider-response","219","497686","0.0-25.0-0.3","197816d4-72ff-406a-aa8d-71f44d0031f7","1000","
                  <p style=""text-align: center;"">₪4
                                                <br>25%</p>
                  <p id=""wtp"" style=""text-align:center; margin-top: 0px; margin-bottom: 0px; font-size: 40px"";>&ensp;</p>","-","viewing","0","1","6C,29B,30C","","","","","","","","","","","","","","","","","",""
"","","","","","html-slider-response","220","499113","0.0-25.0-1.3","197816d4-72ff-406a-aa8d-71f44d0031f7","1426","
                  <p style=""text-align: center;"">₪4
                                                <br>25%</p>
                  <p id=""wtp"" style=""text-align:center; margin-top: 0px; margin-bottom: 0px; font-size: 40px"";>מוכנים לשלם: <span id=""c_p_y""></span></p>","2","evaluation","17","1","6C,29B,30C","25","4","2","","","","","","","","","","","","","","",""
"","","","","","html-keyboard-response","221","499989","0.0-25.0-2.3","197816d4-72ff-406a-aa8d-71f44d0031f7","null","<p style=""text-align: center;"">+</p>","null","fixation","","","","","","","","","","","","","","","","","","","","",""
"","","","","","html-slider-response","222","500993","0.0-25.0-0.4","197816d4-72ff-406a-aa8d-71f44d0031f7","1000","
                  <p style=""text-align: center;"">₪76
                                                <br>65%</p>
                  <p id=""wtp"" style=""text-align:center; margin-top: 0px; margin-bottom: 0px; font-size: 40px"";>&ensp;</p>","-","viewing","0","29","8C,19A,24B","","","","","","","","","","","","","","","","","",""
"","","","","","html-slider-response","223","503545","0.0-25.0-1.4","197816d4-72ff-406a-aa8d-71f44d0031f7","2550","
                  <p style=""text-align: center;"">₪76
                                                <br>65%</p>
                  <p id=""wtp"" style=""text-align:center; margin-top: 0px; margin-bottom: 0px; font-size: 40px"";>מוכנים לשלם: <span id=""c_p_y""></span></p>","14","evaluation","48","29","8C,19A,24B","65","76","14","","","","","","","","","","","","","","",""
"","","","","","html-keyboard-response","224","504798","0.0-25.0-2.4","197816d4-72ff-406a-aa8d-71f44d0031f7","null","<p style=""text-align: center;"">+</p>","null","fixation","","","","","","","","","","","","","","","","","","","","",""
"","","","","","html-slider-response","225","505800","0.0-25.0-0.5","197816d4-72ff-406a-aa8d-71f44d0031f7","1000","
                  <p style=""text-align: center;"">₪61
                                                <br>45%</p>
                  <p id=""wtp"" style=""text-align:center; margin-top: 0px; margin-bottom: 0px; font-size: 40px"";>&ensp;</p>","-","viewing","0","22","10A,11A","","","","","","","","","","","","","","","","","",""
"","","","","","html-slider-response","226","508017","0.0-25.0-1.5","197816d4-72ff-406a-aa8d-71f44d0031f7","2216","
                  <p style=""text-align: center;"">₪61
                                                <br>45%</p>
                  <p id=""wtp"" style=""text-align:center; margin-top: 0px; margin-bottom: 0px; font-size: 40px"";>מוכנים לשלם: <span id=""c_p_y""></span></p>","15","evaluation","51","22","10A,11A","45","61","15","","","","","","","","","","","","","","",""
"","","","","","html-keyboard-response","227","509491","0.0-25.0-2.5","197816d4-72ff-406a-aa8d-71f44d0031f7","null","<p style=""text-align: center;"">+</p>","null","fixation","","","","","","","","","","","","","","","","","","","","",""
"","","","","","html-slider-response","228","510502","0.0-25.0-0.6","197816d4-72ff-406a-aa8d-71f44d0031f7","1000","
                  <p style=""text-align: center;"">₪43
                                                <br>60%</p>
                  <p id=""wtp"" style=""text-align:center; margin-top: 0px; margin-bottom: 0px; font-size: 40px"";>&ensp;</p>","-","viewing","0","17","2A,7A,9A,15B","","","","","","","","","","","","","","","","","",""
"","","","","","html-slider-response","229","512089","0.0-25.0-1.6","197816d4-72ff-406a-aa8d-71f44d0031f7","1585","
                  <p style=""text-align: center;"">₪43
                                                <br>60%</p>
                  <p id=""wtp"" style=""text-align:center; margin-top: 0px; margin-bottom: 0px; font-size: 40px"";>מוכנים לשלם: <span id=""c_p_y""></span></p>","15","evaluation","60","17","2A,7A,9A,15B","60","43","15","","","","","","","","","","","","","","",""
"","","","","","html-keyboard-response","230","513525","0.0-25.0-2.6","197816d4-72ff-406a-aa8d-71f44d0031f7","null","<p style=""text-align: center;"">+</p>","null","fixation","","","","","","","","","","","","","","","","","","","","",""
"","","","","","html-slider-response","231","514542","0.0-25.0-0.7","197816d4-72ff-406a-aa8d-71f44d0031f7","1000","
                  <p style=""text-align: center;"">₪58
                                                <br>40%</p>
                  <p id=""wtp"" style=""text-align:center; margin-top: 0px; margin-bottom: 0px; font-size: 40px"";>&ensp;</p>","-","viewing","0","20","10C,13A,19C,21B","","","","","","","","","","","","","","","","","",""
"","","","","","html-slider-response","232","516937","0.0-25.0-1.7","197816d4-72ff-406a-aa8d-71f44d0031f7","2393","
                  <p style=""text-align: center;"">₪58
                                                <br>40%</p>
                  <p id=""wtp"" style=""text-align:center; margin-top: 0px; margin-bottom: 0px; font-size: 40px"";>מוכנים לשלם: <span id=""c_p_y""></span></p>","12","evaluation","49","20","10C,13A,19C,21B","40","58","12","","","","","","","","","","","","","","",""
"","","","","","html-keyboard-response","233","517707","0.0-25.0-2.7","197816d4-72ff-406a-aa8d-71f44d0031f7","null","<p style=""text-align: center;"">+</p>","null","fixation","","","","","","","","","","","","","","","","","","","","",""
"","","","","","html-slider-response","234","518718","0.0-25.0-0.8","197816d4-72ff-406a-aa8d-71f44d0031f7","1000","
                  <p style=""text-align: center;"">₪79
                                                <br>40%</p>
                  <p id=""wtp"" style=""text-align:center; margin-top: 0px; margin-bottom: 0px; font-size: 40px"";>&ensp;</p>","-","viewing","0","30","9B","","","","","","","","","","","","","","","","","",""
"","","","","","html-slider-response","235","520873","0.0-25.0-1.8","197816d4-72ff-406a-aa8d-71f44d0031f7","2153","
                  <p style=""text-align: center;"">₪79
                                                <br>40%</p>
                  <p id=""wtp"" style=""text-align:center; margin-top: 0px; margin-bottom: 0px; font-size: 40px"";>מוכנים לשלם: <span id=""c_p_y""></span></p>","15","evaluation","5","30","9B","40","79","15","","","","","","","","","","","","","","",""
"","","","","","html-keyboard-response","236","522292","0.0-25.0-2.8","197816d4-72ff-406a-aa8d-71f44d0031f7","null","<p style=""text-align: center;"">+</p>","null","fixation","","","","","","","","","","","","","","","","","","","","",""
"","","","","","html-slider-response","237","523295","0.0-25.0-0.9","197816d4-72ff-406a-aa8d-71f44d0031f7","1000","
                  <p style=""text-align: center;"">₪71
                                                <br>75%</p>
                  <p id=""wtp"" style=""text-align:center; margin-top: 0px; margin-bottom: 0px; font-size: 40px"";>&ensp;</p>","-","viewing","0","28","8B","","","","","","","","","","","","","","","","","",""
"","","","","","html-slider-response","238","526145","0.0-25.0-1.9","197816d4-72ff-406a-aa8d-71f44d0031f7","2849","
                  <p style=""text-align: center;"">₪71
                                                <br>75%</p>
                  <p id=""wtp"" style=""text-align:center; margin-top: 0px; margin-bottom: 0px; font-size: 40px"";>מוכנים לשלם: <span id=""c_p_y""></span></p>","25","evaluation","71","28","8B","75","71","25","","","","","","","","","","","","","","",""
"","","","","","html-keyboard-response","239","526821","0.0-25.0-2.9","197816d4-72ff-406a-aa8d-71f44d0031f7","null","<p style=""text-align: center;"">+</p>","null","fixation","","","","","","","","","","","","","","","","","","","","",""
"","","","","","html-slider-response","240","527834","0.0-25.0-0.10","197816d4-72ff-406a-aa8d-71f44d0031f7","1000","
                  <p style=""text-align: center;"">₪64
                                                <br>25%</p>
                  <p id=""wtp"" style=""text-align:center; margin-top: 0px; margin-bottom: 0px; font-size: 40px"";>&ensp;</p>","-","viewing","0","24","6A,21A","","","","","","","","","","","","","","","","","",""
"","","","","","html-slider-response","241","529905","0.0-25.0-1.10","197816d4-72ff-406a-aa8d-71f44d0031f7","2069","
                  <p style=""text-align: center;"">₪64
                                                <br>25%</p>
                  <p id=""wtp"" style=""text-align:center; margin-top: 0px; margin-bottom: 0px; font-size: 40px"";>מוכנים לשלם: <span id=""c_p_y""></span></p>","20","evaluation","45","24","6A,21A","25","64","20","","","","","","","","","","","","","","",""
"","","","","","html-keyboard-response","242","531323","0.0-25.0-2.10","197816d4-72ff-406a-aa8d-71f44d0031f7","null","<p style=""text-align: center;"">+</p>","null","fixation","","","","","","","","","","","","","","","","","","","","",""
"","","","","","html-slider-response","243","532326","0.0-25.0-0.11","197816d4-72ff-406a-aa8d-71f44d0031f7","1000","
                  <p style=""text-align: center;"">₪36
                                                <br>60%</p>
                  <p id=""wtp"" style=""text-align:center; margin-top: 0px; margin-bottom: 0px; font-size: 40px"";>&ensp;</p>","-","viewing","0","12","1C,7C,15C","","","","","","","","","","","","","","","","","",""
"","","","","","html-slider-response","244","535169","0.0-25.0-1.11","197816d4-72ff-406a-aa8d-71f44d0031f7","2842","
                  <p style=""text-align: center;"">₪36
                                                <br>60%</p>
                  <p id=""wtp"" style=""text-align:center; margin-top: 0px; margin-bottom: 0px; font-size: 40px"";>מוכנים לשלם: <span id=""c_p_y""></span></p>","10","evaluation","79","12","1C,7C,15C","60","36","10","","","","","","","","","","","","","","",""
"","","","","","html-keyboard-response","245","536552","0.0-25.0-2.11","197816d4-72ff-406a-aa8d-71f44d0031f7","null","<p style=""text-align: center;"">+</p>","null","fixation","","","","","","","","","","","","","","","","","","","","",""
"","","","","","html-slider-response","246","537567","0.0-25.0-0.12","197816d4-72ff-406a-aa8d-71f44d0031f7","1000","
                  <p style=""text-align: center;"">₪61
                                                <br>55%</p>
                  <p id=""wtp"" style=""text-align:center; margin-top: 0px; margin-bottom: 0px; font-size: 40px"";>&ensp;</p>","-","viewing","0","23","7B,26B","","","","","","","","","","","","","","","","","",""
"","","","","","html-slider-response","247","540169","0.0-25.0-1.12","197816d4-72ff-406a-aa8d-71f44d0031f7","2600","
                  <p style=""text-align: center;"">₪61
                                                <br>55%</p>
                  <p id=""wtp"" style=""text-align:center; margin-top: 0px; margin-bottom: 0px; font-size: 40px"";>מוכנים לשלם: <span id=""c_p_y""></span></p>","10","evaluation","43","23","7B,26B","55","61","10","","","","","","","","","","","","","","",""
"","","","","","html-keyboard-response","248","541282","0.0-25.0-2.12","197816d4-72ff-406a-aa8d-71f44d0031f7","null","<p style=""text-align: center;"">+</p>","null","fixation","","","","","","","","","","","","","","","","","","","","",""
"","","","","","html-slider-response","249","542286","0.0-25.0-0.13","197816d4-72ff-406a-aa8d-71f44d0031f7","1000","
                  <p style=""text-align: center;"">₪11
                                                <br>20%</p>
                  <p id=""wtp"" style=""text-align:center; margin-top: 0px; margin-bottom: 0px; font-size: 40px"";>&ensp;</p>","-","viewing","0","4","12C,17C,23C,28C","","","","","","","","","","","","","","","","","",""
"","","","","","html-slider-response","250","544665","0.0-25.0-1.13","197816d4-72ff-406a-aa8d-71f44d0031f7","2378","
                  <p style=""text-align: center;"">₪11
                                                <br>20%</p>
                  <p id=""wtp"" style=""text-align:center; margin-top: 0px; margin-bottom: 0px; font-size: 40px"";>מוכנים לשלם: <span id=""c_p_y""></span></p>","6","evaluation","77","4","12C,17C,23C,28C","20","11","6","","","","","","","","","","","","","","",""
"","","","","","html-keyboard-response","251","545517","0.0-25.0-2.13","197816d4-72ff-406a-aa8d-71f44d0031f7","null","<p style=""text-align: center;"">+</p>","null","fixation","","","","","","","","","","","","","","","","","","","","",""
"","","","","","html-slider-response","252","546526","0.0-25.0-0.14","197816d4-72ff-406a-aa8d-71f44d0031f7","1000","
                  <p style=""text-align: center;"">₪58
                                                <br>30%</p>
                  <p id=""wtp"" style=""text-align:center; margin-top: 0px; margin-bottom: 0px; font-size: 40px"";>&ensp;</p>","-","viewing","0","19","13C,30A","","","","","","","","","","","","","","","","","",""
