"success","timeout","failed_images","failed_audio","failed_video","trial_type","trial_index","time_elapsed","internal_node_id","subject_id","rt","stimulus","response","part","slider_start","ID","set_ID","prob","amount","last_location","actual_choice","actual_EV","binary_id","trinary_id","catch","direction","A_key","S_key","D_key","choice_prob","choice_amount","won_prize","potential_prize_amount","potential_prize_prob","total_prize","accuracy"
"true","false","[]","[]","[]","preload","0","13","0.0-0.0","edf70186-0535-41d2-8843-3b95f3b54e9c","","","","","","","","","","","","","","","","","","","","","","","","","",""
"","","","","","html-keyboard-response","1","17622","0.0-1.0","edf70186-0535-41d2-8843-3b95f3b54e9c","null","
          <h1>שלום וברוכים הבאים!</h1>
          <p>לפניכם ניסוי בקבלת החלטות עם שני חלקים.
          <br><br>לחצו על העכבר כדי להמשיך.</p>","0","example","","","","","","","","","","","","","","","","","","","","","",""
"","","","","","html-keyboard-response","2","28405","0.0-2.0","edf70186-0535-41d2-8843-3b95f3b54e9c","null","
        <h1>חלק 1</h1>
        <p>בקרוב יוצגו בפניכם הגרלות.
        <br>עליכם לבחור את המחיר המירבי שתהיו מוכנים לשלם כדי להשתתף בהגרלה שתוצג.
        <br>יש לכם תקציב של ₪80 לכל הגרלה. 
        <br>נסו להעריך כל הגרלה בנפרד ולחשוב כמה היא שווה עבורכם, ₪80 זמינים לכל הגרלה בנפרד.
        <br><br>לחצו על העכבר כדי להמשיך.</p>","1","instructions","","","","","","","","","","","","","","","","","","","","","",""
"","","","","","html-keyboard-response","3","30429","0.0-3.0","edf70186-0535-41d2-8843-3b95f3b54e9c","null","
        <p>בסוף הניסוי, המחשב יבחר את אחת ההגרלות ויקבע מחיר לכרטיס עבורה. 
        <br>במידה והמחיר שבחרתם נמוך מהמחיר שנבחר על ידי המחשב, לא תשתתפו בהגרלה ותשארו עם מלוא התקציב.
        <br>במידה והמחיר שבחרתם גבוה מהמחיר שנבחר על ידי המחשב, תשלמו את המחיר שנקבע ותשתתפו בהגרלה.
        <br><br>לחצו על העכבר כדי להמשיך.</p>","1","instructions","","","","","","","","","","","","","","","","","","","","","",""
"","","","","","html-slider-response","4","40318","0.0-4.0","edf70186-0535-41d2-8843-3b95f3b54e9c","9773","
        <p style=""font-size: 42px;"">נתחיל עם דוגמא: 
        <br>ההגרלה מטה מציעה 65% סיכוי לזכות ב-₪40 
        <br>&emsp;&emsp;&emsp;&emsp;&emsp;&emsp;&emsp;&emsp;&ensp;35% סיכוי לזכות ב-₪0.
        <br><br>מה המחיר המירבי שתהיו מוכנים לשלם על כרטיס להגרלה זו בין 0 ל-₪80?
        <br>הזיזו את העכבר על פני המלבן ולחצו כדי לבצע בחירה.</p>
        
        <p style=""text-align: center;"">₪40<br>65%</p>

        <p id=""wtp"" style=""text-align:center; margin-top: 0px; margin-bottom: 0px; font-size: 40px"";>מוכנים לשלם: <span id=""c_p_y""></span></p>","33","example","42","","","","","","","","","","","","","","","","","","","","",""
"","","","","","html-keyboard-response","5","46510","0.0-5.0","edf70186-0535-41d2-8843-3b95f3b54e9c","null","<p>יפה מאוד!
                <br> בחרתם שתהיו מוכנים לשלם ₪33 כדי להשתתף בהגרלה:
                <br><p style=""text-align: center;"">₪40<br>65%</p>
                <p>נשמע נכון?
                <br>נניח שהגרלה זו נבחרה בסוף הניסוי.
                <br>כעת המחשב יקבע מחיר עבורה באקראי.
                <br>לחצו על העכבר להמשך.</p>","1","example","","","","","","","","","","","","","","","","","","","","","",""
"","","","","","html-keyboard-response","6","50238","0.0-6.0","edf70186-0535-41d2-8843-3b95f3b54e9c","null","<p>המחשב קבע מחיר: ₪35
                <br>ואתם בחרתם לשלם לכל היותר: ₪33
                <br><br>מכיוון שהמחיר שבחרתם נמוך מהמחיר שנקבע, לא תתשתתפו בהגרלה.
                <br>במקרה כזה, בסוף הניסוי תקבלו את כל התקציב ההתחלתי של ₪80.
                <br><br>לחצו על העכבר להמשך.</p>","1","example","","","","","","","","","","","","","","","","","","","","","",""
"","","","","","html-slider-response","7","55134","0.0-7.0","edf70186-0535-41d2-8843-3b95f3b54e9c","4628","<p style=""font-size: 42px;"">הנה עוד דוגמא:
                <br>ההגרלה מטה מציעה 35% סיכוי לזכות ב-₪18 
                <br>&emsp;&emsp;&emsp;&emsp;&emsp;&emsp;&emsp;&emsp;&ensp;65% סיכוי לזכות ב-₪0.</p>
        
                <p style=""text-align: center;"">₪18<br>35%</p>
                <p id=""wtp"" style=""text-align:center; margin-top: 0px; margin-bottom: 0px; font-size: 40px"";>מוכנים לשלם: <span id=""c_p_y""></span></p>","15","example","44","","","","","","","","","","","","","","","","","","","","",""
"","","","","","html-keyboard-response","8","62862","0.0-8.0","edf70186-0535-41d2-8843-3b95f3b54e9c","null","<p>הייתם מוכנים לשלם  ₪15 כדי להשתתף בהגרלה:
                <p style=""text-align: center;"">₪18<br>35%</p>
                <p>כעת נניח שהמחשב בחר את ההגרלה הזו בסוף הניסוי, וקבע עבורה מחיר.
                <br><br>לחצו על העכבר כדי להמשיך.</p>","1","instructions","","","","","","","","","","","","","","","","","","","","","",""
"","","","","","html-keyboard-response","9","67574","0.0-9.0","edf70186-0535-41d2-8843-3b95f3b54e9c","null","<p>המחשב קבע מחיר להגרלה: ₪7<br>ואתם בחרתם לשלם לכל היותר: ₪15
                <br><br>כעת המחיר שנקבע נמוך מזה שבחרתם, אז תשלמו את המחיר שקבע המחשב (₪7) ותשתתפו בהגרלה.
                <br>במקרה כזה, תסיימו את הניסוי עם תקציב של ₪73 ועם סיכוי לזכות ב-₪18 נוספים מההגרלה.
                <br>כלומר, תוכלו לקבל ₪73 אם לא תזכו בהגרלה, או ₪91 אם תזכו בהגרלה.
                <br><br>לחצו על העכבר להמשך.</p>","1","example","","","","","","","","","","","","","","","","","","","","","",""
"","","","","","html-keyboard-response","10","75693","0.0-10.0","edf70186-0535-41d2-8843-3b95f3b54e9c","null","<p>במהלך הניסוי, קודם תראו את ההגרלה ורק לאחר מכן תוכלו לבחור.
                <p>כמו כן, יהיו לכם מספר שניות מוגבל להגיב.
                <p>בואו ננסה זאת עם ההגרלה הקודמת.
                <br>לחצו על העכבר כדי להמשיך.</p>","1","instructions","","","","","","","","","","","","","","","","","","","","","",""
"","","","","","html-slider-response","11","76967","0.0-11.0","edf70186-0535-41d2-8843-3b95f3b54e9c","1000","
                    <p style=""text-align: center;"">₪18<br>35%</p>
                    <p id=""wtp"" style=""text-align:center; margin-top: 0px; margin-bottom: 0px; font-size: 40px"";>&ensp;</p>","69","instructions","0","","","","","","","","","","","","","","","","","","","","",""
"","","","","","html-slider-response","12","81221","0.0-12.0","edf70186-0535-41d2-8843-3b95f3b54e9c","null","
                    <p style=""text-align: center;"">₪18<br>35%</p>
                    <p id=""wtp"" style=""text-align:center; margin-top: 0px; margin-bottom: 0px; font-size: 40px"";>מוכנים לשלם: <span id=""c_p_y""></span></p>","null","instructions","70","","","","","","","","","","","","","","","","","","","","",""
"","","","","","html-keyboard-response","13","83717","0.0-13.0","edf70186-0535-41d2-8843-3b95f3b54e9c","null","<p>לא הגבתם בזמן המוקצב לתגובה. 
                <br>נסו להגיב מהר יותר בפעם הבאה.
                <br><br>לחצו על העכבר כדי להמשיך.</p>","1","instructions","","","","","","","","","","","","","","","","","","","","","",""
"","","","","","html-slider-response","14","85750","0.0-14.0-0.0","edf70186-0535-41d2-8843-3b95f3b54e9c","1780","
                    <p style=""text-align: center;"">₪40<br>65%</p>
                    <p id=""wtp"" style=""text-align:center; margin-top: 0px; margin-bottom: 0px; font-size: 40px"";>מוכנים לשלם: <span id=""c_p_y""></span></p>","37","instructions","61","","","","","","","","","","","","","","","","","","","","",""
"","","","","","html-keyboard-response","15","87350","0.0-14.0-1.0","edf70186-0535-41d2-8843-3b95f3b54e9c","null","<p>יפה. הפעם בחרתם לשלם לכל היותר ₪37.
                <br><br>לחצו על העכבר כדי להמשיך.</p>","1","instructions","","","","","","","","","","","","","","","","","","","","","",""
"","","","","","html-keyboard-response","16","97430","0.0-15.0","edf70186-0535-41d2-8843-3b95f3b54e9c","null","<p>כעת נתחיל את הניסוי.
                <br><br>אתם תראו הגרלות ותתבקשו לבחור כמה תהיו מוכנים לשלם כדי להשתתף בהן.
                <br>יש לכם תקציב של ₪80 עבור כל הגרלה.
                <br>בסוף הניסוי הגרלה אחת תבחר באקראי ותשוחק.
                <br><br>לחצו על העכבר כדי להתחיל את הניסוי.</p>","1","instructions","","","","","","","","","","","","","","","","","","","","","",""
"","","","","","html-keyboard-response","17","98684","0.0-16.0","edf70186-0535-41d2-8843-3b95f3b54e9c","null","<p style=""text-align: center;"">+</p>","null","fixation","","","","","","","","","","","","","","","","","","","","","",""
"","","","","","html-slider-response","18","99689","0.0-17.0-0.0","edf70186-0535-41d2-8843-3b95f3b54e9c","1000","
                  <p style=""text-align: center;"">₪39
                                                <br>65%</p>
                  <p id=""wtp"" style=""text-align:center; margin-top: 0px; margin-bottom: 0px; font-size: 40px"";>&ensp;</p>","-","viewing","0","16","1A,15A,26C","","","","","","","","","","","","","","","","","","",""
"","","","","","html-slider-response","19","102214","0.0-17.0-1.0","edf70186-0535-41d2-8843-3b95f3b54e9c","2523","
                  <p style=""text-align: center;"">₪39
                                                <br>65%</p>
                  <p id=""wtp"" style=""text-align:center; margin-top: 0px; margin-bottom: 0px; font-size: 40px"";>מוכנים לשלם: <span id=""c_p_y""></span></p>","40","evaluation","47","16","1A,15A,26C","65","39","40","","","","","","","","","","","","","","","",""
"","","","","","html-keyboard-response","20","102715","0.0-17.0-2.0","edf70186-0535-41d2-8843-3b95f3b54e9c","null","<p style=""text-align: center;"">+</p>","null","fixation","","","","","","","","","","","","","","","","","","","","","",""
"","","","","","html-slider-response","21","103718","0.0-17.0-0.1","edf70186-0535-41d2-8843-3b95f3b54e9c","1000","
                  <p style=""text-align: center;"">₪71
                                                <br>75%</p>
                  <p id=""wtp"" style=""text-align:center; margin-top: 0px; margin-bottom: 0px; font-size: 40px"";>&ensp;</p>","-","viewing","0","28","8B","","","","","","","","","","","","","","","","","","",""
"","","","","","html-slider-response","22","106326","0.0-17.0-1.1","edf70186-0535-41d2-8843-3b95f3b54e9c","2607","
                  <p style=""text-align: center;"">₪71
                                                <br>75%</p>
                  <p id=""wtp"" style=""text-align:center; margin-top: 0px; margin-bottom: 0px; font-size: 40px"";>מוכנים לשלם: <span id=""c_p_y""></span></p>","72","evaluation","50","28","8B","75","71","71","","","","","","","","","","","","","","","",""
"","","","","","html-keyboard-response","23","107047","0.0-17.0-2.1","edf70186-0535-41d2-8843-3b95f3b54e9c","null","<p style=""text-align: center;"">+</p>","null","fixation","","","","","","","","","","","","","","","","","","","","","",""
"","","","","","html-slider-response","24","108049","0.0-17.0-0.2","edf70186-0535-41d2-8843-3b95f3b54e9c","1000","
                  <p style=""text-align: center;"">₪39
                                                <br>60%</p>
                  <p id=""wtp"" style=""text-align:center; margin-top: 0px; margin-bottom: 0px; font-size: 40px"";>&ensp;</p>","-","viewing","0","15","9C,25B","","","","","","","","","","","","","","","","","","",""
"","","","","","html-slider-response","25","110014","0.0-17.0-1.2","edf70186-0535-41d2-8843-3b95f3b54e9c","1964","
                  <p style=""text-align: center;"">₪39
                                                <br>60%</p>
                  <p id=""wtp"" style=""text-align:center; margin-top: 0px; margin-bottom: 0px; font-size: 40px"";>מוכנים לשלם: <span id=""c_p_y""></span></p>","40","evaluation","7","15","9C,25B","60","39","40","","","","","","","","","","","","","","","",""
"","","","","","html-keyboard-response","26","111134","0.0-17.0-2.2","edf70186-0535-41d2-8843-3b95f3b54e9c","null","<p style=""text-align: center;"">+</p>","null","fixation","","","","","","","","","","","","","","","","","","","","","",""
"","","","","","html-slider-response","27","112136","0.0-17.0-0.3","edf70186-0535-41d2-8843-3b95f3b54e9c","1000","
                  <p style=""text-align: center;"">₪11
                                                <br>75%</p>
                  <p id=""wtp"" style=""text-align:center; margin-top: 0px; margin-bottom: 0px; font-size: 40px"";>&ensp;</p>","-","viewing","0","7","6B,18B,22C,24C,29A","","","","","","","","","","","","","","","","","","",""
"","","","","","html-slider-response","28","113742","0.0-17.0-1.3","edf70186-0535-41d2-8843-3b95f3b54e9c","1604","
                  <p style=""text-align: center;"">₪11
                                                <br>75%</p>
                  <p id=""wtp"" style=""text-align:center; margin-top: 0px; margin-bottom: 0px; font-size: 40px"";>מוכנים לשלם: <span id=""c_p_y""></span></p>","39","evaluation","2","7","6B,18B,22C,24C,29A","75","11","39","","","","","","","","","","","","","","","",""
"","","","","","html-keyboard-response","29","115228","0.0-17.0-2.3","edf70186-0535-41d2-8843-3b95f3b54e9c","null","<p style=""text-align: center;"">+</p>","null","fixation","","","","","","","","","","","","","","","","","","","","","",""
"","","","","","html-slider-response","30","116238","0.0-17.0-0.4","edf70186-0535-41d2-8843-3b95f3b54e9c","1000","
                  <p style=""text-align: center;"">₪58
                                                <br>30%</p>
                  <p id=""wtp"" style=""text-align:center; margin-top: 0px; margin-bottom: 0px; font-size: 40px"";>&ensp;</p>","-","viewing","0","19","13C,30A","","","","","","","","","","","","","","","","","","",""
"","","","","","html-slider-response","31","118110","0.0-17.0-1.4","edf70186-0535-41d2-8843-3b95f3b54e9c","1871","
                  <p style=""text-align: center;"">₪58
                                                <br>30%</p>
                  <p id=""wtp"" style=""text-align:center; margin-top: 0px; margin-bottom: 0px; font-size: 40px"";>מוכנים לשלם: <span id=""c_p_y""></span></p>","12","evaluation","35","19","13C,30A","30","58","12","","","","","","","","","","","","","","","",""
"","","","","","html-keyboard-response","32","119291","0.0-17.0-2.4","edf70186-0535-41d2-8843-3b95f3b54e9c","null","<p style=""text-align: center;"">+</p>","null","fixation","","","","","","","","","","","","","","","","","","","","","",""
"","","","","","html-slider-response","33","120293","0.0-17.0-0.5","edf70186-0535-41d2-8843-3b95f3b54e9c","1000","
                  <p style=""text-align: center;"">₪71
                                                <br>45%</p>
                  <p id=""wtp"" style=""text-align:center; margin-top: 0px; margin-bottom: 0px; font-size: 40px"";>&ensp;</p>","-","viewing","0","26","2B,16A","","","","","","","","","","","","","","","","","","",""
"","","","","","html-slider-response","34","121990","0.0-17.0-1.5","edf70186-0535-41d2-8843-3b95f3b54e9c","1695","
                  <p style=""text-align: center;"">₪71
                                                <br>45%</p>
                  <p id=""wtp"" style=""text-align:center; margin-top: 0px; margin-bottom: 0px; font-size: 40px"";>מוכנים לשלם: <span id=""c_p_y""></span></p>","28","evaluation","67","26","2B,16A","45","71","28","","","","","","","","","","","","","","","",""
"","","","","","html-keyboard-response","35","122541","0.0-17.0-2.5","edf70186-0535-41d2-8843-3b95f3b54e9c","null","<p style=""text-align: center;"">+</p>","null","fixation","","","","","","","","","","","","","","","","","","","","","",""
"","","","","","html-slider-response","36","123555","0.0-17.0-0.6","edf70186-0535-41d2-8843-3b95f3b54e9c","1000","
                  <p style=""text-align: center;"">₪16
                                                <br>20%</p>
                  <p id=""wtp"" style=""text-align:center; margin-top: 0px; margin-bottom: 0px; font-size: 40px"";>&ensp;</p>","-","viewing","0","8","14C,17A,20C,27A","","","","","","","","","","","","","","","","","","",""
"","","","","","html-slider-response","37","126175","0.0-17.0-1.6","edf70186-0535-41d2-8843-3b95f3b54e9c","2619","
                  <p style=""text-align: center;"">₪16
                                                <br>20%</p>
                  <p id=""wtp"" style=""text-align:center; margin-top: 0px; margin-bottom: 0px; font-size: 40px"";>מוכנים לשלם: <span id=""c_p_y""></span></p>","4","evaluation","2","8","14C,17A,20C,27A","20","16","5","","","","","","","","","","","","","","","",""
"","","","","","html-keyboard-response","38","127311","0.0-17.0-2.6","edf70186-0535-41d2-8843-3b95f3b54e9c","null","<p style=""text-align: center;"">+</p>","null","fixation","","","","","","","","","","","","","","","","","","","","","",""
"","","","","","html-slider-response","39","128314","0.0-17.0-0.7","edf70186-0535-41d2-8843-3b95f3b54e9c","1000","
                  <p style=""text-align: center;"">₪11
                                                <br>20%</p>
                  <p id=""wtp"" style=""text-align:center; margin-top: 0px; margin-bottom: 0px; font-size: 40px"";>&ensp;</p>","-","viewing","0","4","12C,17C,23C,28C","","","","","","","","","","","","","","","","","","",""
"","","","","","html-slider-response","40","129959","0.0-17.0-1.7","edf70186-0535-41d2-8843-3b95f3b54e9c","1643","
                  <p style=""text-align: center;"">₪11
                                                <br>20%</p>
                  <p id=""wtp"" style=""text-align:center; margin-top: 0px; margin-bottom: 0px; font-size: 40px"";>מוכנים לשלם: <span id=""c_p_y""></span></p>","2","evaluation","45","4","12C,17C,23C,28C","20","11","2","","","","","","","","","","","","","","","",""
"","","","","","html-keyboard-response","41","130886","0.0-17.0-2.7","edf70186-0535-41d2-8843-3b95f3b54e9c","null","<p style=""text-align: center;"">+</p>","null","fixation","","","","","","","","","","","","","","","","","","","","","",""
"","","","","","html-slider-response","42","131888","0.0-17.0-0.8","edf70186-0535-41d2-8843-3b95f3b54e9c","1000","
                  <p style=""text-align: center;"">₪18
                                                <br>25%</p>
                  <p id=""wtp"" style=""text-align:center; margin-top: 0px; margin-bottom: 0px; font-size: 40px"";>&ensp;</p>","-","viewing","0","9","14A,23A","","","","","","","","","","","","","","","","","","",""
"","","","","","html-slider-response","43","133583","0.0-17.0-1.8","edf70186-0535-41d2-8843-3b95f3b54e9c","1693","
                  <p style=""text-align: center;"">₪18
                                                <br>25%</p>
                  <p id=""wtp"" style=""text-align:center; margin-top: 0px; margin-bottom: 0px; font-size: 40px"";>מוכנים לשלם: <span id=""c_p_y""></span></p>","12","evaluation","64","9","14A,23A","25","18","13","","","","","","","","","","","","","","","",""
"","","","","","html-keyboard-response","44","134860","0.0-17.0-2.8","edf70186-0535-41d2-8843-3b95f3b54e9c","null","<p style=""text-align: center;"">+</p>","null","fixation","","","","","","","","","","","","","","","","","","","","","",""
"","","","","","html-slider-response","45","135873","0.0-17.0-0.9","edf70186-0535-41d2-8843-3b95f3b54e9c","1000","
                  <p style=""text-align: center;"">₪36
                                                <br>30%</p>
                  <p id=""wtp"" style=""text-align:center; margin-top: 0px; margin-bottom: 0px; font-size: 40px"";>&ensp;</p>","-","viewing","0","11","3C,20A,22A","","","","","","","","","","","","","","","","","","",""
"","","","","","html-slider-response","46","136846","0.0-17.0-1.9","edf70186-0535-41d2-8843-3b95f3b54e9c","972","
                  <p style=""text-align: center;"">₪36
                                                <br>30%</p>
                  <p id=""wtp"" style=""text-align:center; margin-top: 0px; margin-bottom: 0px; font-size: 40px"";>מוכנים לשלם: <span id=""c_p_y""></span></p>","16","evaluation","30","11","3C,20A,22A","30","36","16","","","","","","","","","","","","","","","",""
"","","","","","html-keyboard-response","47","137980","0.0-17.0-2.9","edf70186-0535-41d2-8843-3b95f3b54e9c","null","<p style=""text-align: center;"">+</p>","null","fixation","","","","","","","","","","","","","","","","","","","","","",""
"","","","","","html-slider-response","48","138985","0.0-17.0-0.10","edf70186-0535-41d2-8843-3b95f3b54e9c","1000","
                  <p style=""text-align: center;"">₪36
                                                <br>60%</p>
                  <p id=""wtp"" style=""text-align:center; margin-top: 0px; margin-bottom: 0px; font-size: 40px"";>&ensp;</p>","-","viewing","0","12","1C,7C,15C","","","","","","","","","","","","","","","","","","",""
"","","","","","html-slider-response","49","141534","0.0-17.0-1.10","edf70186-0535-41d2-8843-3b95f3b54e9c","2548","
                  <p style=""text-align: center;"">₪36
                                                <br>60%</p>
                  <p id=""wtp"" style=""text-align:center; margin-top: 0px; margin-bottom: 0px; font-size: 40px"";>מוכנים לשלם: <span id=""c_p_y""></span></p>","35","evaluation","38","12","1C,7C,15C","60","36","35","","","","","","","","","","","","","","","",""
"","","","","","html-keyboard-response","50","142332","0.0-17.0-2.10","edf70186-0535-41d2-8843-3b95f3b54e9c","null","<p style=""text-align: center;"">+</p>","null","fixation","","","","","","","","","","","","","","","","","","","","","",""
"","","","","","html-slider-response","51","143342","0.0-17.0-0.11","edf70186-0535-41d2-8843-3b95f3b54e9c","1000","
                  <p style=""text-align: center;"">₪11
                                                <br>45%</p>
                  <p id=""wtp"" style=""text-align:center; margin-top: 0px; margin-bottom: 0px; font-size: 40px"";>&ensp;</p>","-","viewing","0","6","14B,21C,25C","","","","","","","","","","","","","","","","","","",""
"","","","","","html-slider-response","52","146775","0.0-17.0-1.11","edf70186-0535-41d2-8843-3b95f3b54e9c","3431","
                  <p style=""text-align: center;"">₪11
                                                <br>45%</p>
                  <p id=""wtp"" style=""text-align:center; margin-top: 0px; margin-bottom: 0px; font-size: 40px"";>מוכנים לשלם: <span id=""c_p_y""></span></p>","5","evaluation","75","6","14B,21C,25C","45","11","5","","","","","","","","","","","","","","","",""
"","","","","","html-keyboard-response","53","147452","0.0-17.0-2.11","edf70186-0535-41d2-8843-3b95f3b54e9c","null","<p style=""text-align: center;"">+</p>","null","fixation","","","","","","","","","","","","","","","","","","","","","",""
"","","","","","html-slider-response","54","148454","0.0-17.0-0.12","edf70186-0535-41d2-8843-3b95f3b54e9c","1000","
                  <p style=""text-align: center;"">₪58
                                                <br>40%</p>
                  <p id=""wtp"" style=""text-align:center; margin-top: 0px; margin-bottom: 0px; font-size: 40px"";>&ensp;</p>","-","viewing","0","20","10C,13A,19C,21B","","","","","","","","","","","","","","","","","","",""
"","","","","","html-slider-response","55","150711","0.0-17.0-1.12","edf70186-0535-41d2-8843-3b95f3b54e9c","2255","
                  <p style=""text-align: center;"">₪58
                                                <br>40%</p>
                  <p id=""wtp"" style=""text-align:center; margin-top: 0px; margin-bottom: 0px; font-size: 40px"";>מוכנים לשלם: <span id=""c_p_y""></span></p>","20","evaluation","61","20","10C,13A,19C,21B","40","58","20","","","","","","","","","","","","","","","",""
"","","","","","html-keyboard-response","56","151786","0.0-17.0-2.12","edf70186-0535-41d2-8843-3b95f3b54e9c","null","<p style=""text-align: center;"">+</p>","null","fixation","","","","","","","","","","","","","","","","","","","","","",""
"","","","","","html-slider-response","57","152802","0.0-17.0-0.13","edf70186-0535-41d2-8843-3b95f3b54e9c","1000","
                  <p style=""text-align: center;"">₪58
                                                <br>45%</p>
                  <p id=""wtp"" style=""text-align:center; margin-top: 0px; margin-bottom: 0px; font-size: 40px"";>&ensp;</p>","-","viewing","0","21","11C,18C,25A","","","","","","","","","","","","","","","","","","",""
"","","","","","html-slider-response","58","155359","0.0-17.0-1.13","edf70186-0535-41d2-8843-3b95f3b54e9c","2555","
                  <p style=""text-align: center;"">₪58
                                                <br>45%</p>
                  <p id=""wtp"" style=""text-align:center; margin-top: 0px; margin-bottom: 0px; font-size: 40px"";>מוכנים לשלם: <span id=""c_p_y""></span></p>","38","evaluation","69","21","11C,18C,25A","45","58","38","","","","","","","","","","","","","","","",""
"","","","","","html-keyboard-response","59","156432","0.0-17.0-2.13","edf70186-0535-41d2-8843-3b95f3b54e9c","null","<p style=""text-align: center;"">+</p>","null","fixation","","","","","","","","","","","","","","","","","","","","","",""
"","","","","","html-slider-response","60","157438","0.0-17.0-0.14","edf70186-0535-41d2-8843-3b95f3b54e9c","1000","
                  <p style=""text-align: center;"">₪79
                                                <br>40%</p>
                  <p id=""wtp"" style=""text-align:center; margin-top: 0px; margin-bottom: 0px; font-size: 40px"";>&ensp;</p>","-","viewing","0","30","9B","","","","","","","","","","","","","","","","","","",""
"","","","","","html-slider-response","61","159695","0.0-17.0-1.14","edf70186-0535-41d2-8843-3b95f3b54e9c","2255","
                  <p style=""text-align: center;"">₪79
                                                <br>40%</p>
                  <p id=""wtp"" style=""text-align:center; margin-top: 0px; margin-bottom: 0px; font-size: 40px"";>מוכנים לשלם: <span id=""c_p_y""></span></p>","24","evaluation","44","30","9B","40","79","24","","","","","","","","","","","","","","","",""
"","","","","","html-keyboard-response","62","160245","0.0-17.0-2.14","edf70186-0535-41d2-8843-3b95f3b54e9c","null","<p style=""text-align: center;"">+</p>","null","fixation","","","","","","","","","","","","","","","","","","","","","",""
"","","","","","html-slider-response","63","161255","0.0-17.0-0.15","edf70186-0535-41d2-8843-3b95f3b54e9c","1000","
                  <p style=""text-align: center;"">₪79
                                                <br>65%</p>
                  <p id=""wtp"" style=""text-align:center; margin-top: 0px; margin-bottom: 0px; font-size: 40px"";>&ensp;</p>","-","viewing","0","31","8A","","","","","","","","","","","","","","","","","","",""
"","","","","","html-slider-response","64","162407","0.0-17.0-1.15","edf70186-0535-41d2-8843-3b95f3b54e9c","1150","
                  <p style=""text-align: center;"">₪79
                                                <br>65%</p>
                  <p id=""wtp"" style=""text-align:center; margin-top: 0px; margin-bottom: 0px; font-size: 40px"";>מוכנים לשלם: <span id=""c_p_y""></span></p>","40","evaluation","26","31","8A","65","79","40","","","","","","","","","","","","","","","",""
"","","","","","html-keyboard-response","65","163368","0.0-17.0-2.15","edf70186-0535-41d2-8843-3b95f3b54e9c","null","<p style=""text-align: center;"">+</p>","null","fixation","","","","","","","","","","","","","","","","","","","","","",""
"","","","","","html-slider-response","66","164378","0.0-17.0-0.16","edf70186-0535-41d2-8843-3b95f3b54e9c","1000","
                  <p style=""text-align: center;"">₪43
                                                <br>60%</p>
                  <p id=""wtp"" style=""text-align:center; margin-top: 0px; margin-bottom: 0px; font-size: 40px"";>&ensp;</p>","-","viewing","0","17","2A,7A,9A,15B","","","","","","","","","","","","","","","","","","",""
"","","","","","html-slider-response","67","167087","0.0-17.0-1.16","edf70186-0535-41d2-8843-3b95f3b54e9c","2708","
                  <p style=""text-align: center;"">₪43
                                                <br>60%</p>
                  <p id=""wtp"" style=""text-align:center; margin-top: 0px; margin-bottom: 0px; font-size: 40px"";>מוכנים לשלם: <span id=""c_p_y""></span></p>","23","evaluation","58","17","2A,7A,9A,15B","60","43","23","","","","","","","","","","","","","","","",""
"","","","","","html-keyboard-response","68","168320","0.0-17.0-2.16","edf70186-0535-41d2-8843-3b95f3b54e9c","null","<p style=""text-align: center;"">+</p>","null","fixation","","","","","","","","","","","","","","","","","","","","","",""
"","","","","","html-slider-response","69","169322","0.0-17.0-0.17","edf70186-0535-41d2-8843-3b95f3b54e9c","1000","
                  <p style=""text-align: center;"">₪61
                                                <br>45%</p>
                  <p id=""wtp"" style=""text-align:center; margin-top: 0px; margin-bottom: 0px; font-size: 40px"";>&ensp;</p>","-","viewing","0","22","10A,11A","","","","","","","","","","","","","","","","","","",""
"","","","","","html-slider-response","70","171334","0.0-17.0-1.17","edf70186-0535-41d2-8843-3b95f3b54e9c","2012","
                  <p style=""text-align: center;"">₪61
                                                <br>45%</p>
                  <p id=""wtp"" style=""text-align:center; margin-top: 0px; margin-bottom: 0px; font-size: 40px"";>מוכנים לשלם: <span id=""c_p_y""></span></p>","31","evaluation","25","22","10A,11A","45","61","31","","","","","","","","","","","","","","","",""
"","","","","","html-keyboard-response","71","172015","0.0-17.0-2.17","edf70186-0535-41d2-8843-3b95f3b54e9c","null","<p style=""text-align: center;"">+</p>","null","fixation","","","","","","","","","","","","","","","","","","","","","",""
"","","","","","html-slider-response","72","173017","0.0-17.0-0.18","edf70186-0535-41d2-8843-3b95f3b54e9c","1000","
                  <p style=""text-align: center;"">₪71
                                                <br>55%</p>
                  <p id=""wtp"" style=""text-align:center; margin-top: 0px; margin-bottom: 0px; font-size: 40px"";>&ensp;</p>","-","viewing","0","27","5B,18A","","","","","","","","","","","","","","","","","","",""
"","","","","","html-slider-response","73","174078","0.0-17.0-1.18","edf70186-0535-41d2-8843-3b95f3b54e9c","1060","
                  <p style=""text-align: center;"">₪71
                                                <br>55%</p>
                  <p id=""wtp"" style=""text-align:center; margin-top: 0px; margin-bottom: 0px; font-size: 40px"";>מוכנים לשלם: <span id=""c_p_y""></span></p>","33","evaluation","23","27","5B,18A","55","71","33","","","","","","","","","","","","","","","",""
"","","","","","html-keyboard-response","74","174834","0.0-17.0-2.18","edf70186-0535-41d2-8843-3b95f3b54e9c","null","<p style=""text-align: center;"">+</p>","null","fixation","","","","","","","","","","","","","","","","","","","","","",""
"","","","","","html-slider-response","75","175836","0.0-17.0-0.19","edf70186-0535-41d2-8843-3b95f3b54e9c","1000","
                  <p style=""text-align: center;"">₪11
                                                <br>25%</p>
                  <p id=""wtp"" style=""text-align:center; margin-top: 0px; margin-bottom: 0px; font-size: 40px"";>&ensp;</p>","-","viewing","0","5","12A,27B,28B,30B","","","","","","","","","","","","","","","","","","",""
"","","","","","html-slider-response","76","177598","0.0-17.0-1.19","edf70186-0535-41d2-8843-3b95f3b54e9c","1762","
                  <p style=""text-align: center;"">₪11
                                                <br>25%</p>
                  <p id=""wtp"" style=""text-align:center; margin-top: 0px; margin-bottom: 0px; font-size: 40px"";>מוכנים לשלם: <span id=""c_p_y""></span></p>","4","evaluation","36","5","12A,27B,28B,30B","25","11","4","","","","","","","","","","","","","","","",""
"","","","","","html-keyboard-response","77","178298","0.0-17.0-2.19","edf70186-0535-41d2-8843-3b95f3b54e9c","null","<p style=""text-align: center;"">+</p>","null","fixation","","","","","","","","","","","","","","","","","","","","","",""
"","","","","","html-slider-response","78","179300","0.0-17.0-0.20","edf70186-0535-41d2-8843-3b95f3b54e9c","1000","
                  <p style=""text-align: center;"">₪4
                                                <br>25%</p>
                  <p id=""wtp"" style=""text-align:center; margin-top: 0px; margin-bottom: 0px; font-size: 40px"";>&ensp;</p>","-","viewing","0","1","6C,29B,30C","","","","","","","","","","","","","","","","","","",""
"","","","","","html-slider-response","79","180582","0.0-17.0-1.20","edf70186-0535-41d2-8843-3b95f3b54e9c","1281","
                  <p style=""text-align: center;"">₪4
                                                <br>25%</p>
                  <p id=""wtp"" style=""text-align:center; margin-top: 0px; margin-bottom: 0px; font-size: 40px"";>מוכנים לשלם: <span id=""c_p_y""></span></p>","0","evaluation","21","1","6C,29B,30C","25","4","0","","","","","","","","","","","","","","","",""
"","","","","","html-keyboard-response","80","181522","0.0-17.0-2.20","edf70186-0535-41d2-8843-3b95f3b54e9c","null","<p style=""text-align: center;"">+</p>","null","fixation","","","","","","","","","","","","","","","","","","","","","",""
"","","","","","html-slider-response","81","182535","0.0-17.0-0.21","edf70186-0535-41d2-8843-3b95f3b54e9c","1000","
                  <p style=""text-align: center;"">₪4
                                                <br>50%</p>
                  <p id=""wtp"" style=""text-align:center; margin-top: 0px; margin-bottom: 0px; font-size: 40px"";>&ensp;</p>","-","viewing","0","2","4C,17B","","","","","","","","","","","","","","","","","","",""
"","","","","","html-slider-response","82","185646","0.0-17.0-1.21","edf70186-0535-41d2-8843-3b95f3b54e9c","3111","
                  <p style=""text-align: center;"">₪4
                                                <br>50%</p>
                  <p id=""wtp"" style=""text-align:center; margin-top: 0px; margin-bottom: 0px; font-size: 40px"";>מוכנים לשלם: <span id=""c_p_y""></span></p>","0","evaluation","68","2","4C,17B","50","4","0","","","","","","","","","","","","","","","",""
"","","","","","html-keyboard-response","83","186316","0.0-17.0-2.21","edf70186-0535-41d2-8843-3b95f3b54e9c","null","<p style=""text-align: center;"">+</p>","null","fixation","","","","","","","","","","","","","","","","","","","","","",""
"","","","","","html-slider-response","84","187318","0.0-17.0-0.22","edf70186-0535-41d2-8843-3b95f3b54e9c","1000","
                  <p style=""text-align: center;"">₪64
                                                <br>25%</p>
                  <p id=""wtp"" style=""text-align:center; margin-top: 0px; margin-bottom: 0px; font-size: 40px"";>&ensp;</p>","-","viewing","0","24","6A,21A","","","","","","","","","","","","","","","","","","",""
"","","","","","html-slider-response","85","190342","0.0-17.0-1.22","edf70186-0535-41d2-8843-3b95f3b54e9c","3023","
                  <p style=""text-align: center;"">₪64
                                                <br>25%</p>
                  <p id=""wtp"" style=""text-align:center; margin-top: 0px; margin-bottom: 0px; font-size: 40px"";>מוכנים לשלם: <span id=""c_p_y""></span></p>","6","evaluation","50","24","6A,21A","25","64","6","","","","","","","","","","","","","","","",""
"","","","","","html-keyboard-response","86","191704","0.0-17.0-2.22","edf70186-0535-41d2-8843-3b95f3b54e9c","null","<p style=""text-align: center;"">+</p>","null","fixation","","","","","","","","","","","","","","","","","","","","","",""
"","","","","","html-slider-response","87","192713","0.0-17.0-0.23","edf70186-0535-41d2-8843-3b95f3b54e9c","1000","
                  <p style=""text-align: center;"">₪61
                                                <br>55%</p>
                  <p id=""wtp"" style=""text-align:center; margin-top: 0px; margin-bottom: 0px; font-size: 40px"";>&ensp;</p>","-","viewing","0","23","7B,26B","","","","","","","","","","","","","","","","","","",""
"","","","","","html-slider-response","88","194198","0.0-17.0-1.23","edf70186-0535-41d2-8843-3b95f3b54e9c","1484","
                  <p style=""text-align: center;"">₪61
                                                <br>55%</p>
                  <p id=""wtp"" style=""text-align:center; margin-top: 0px; margin-bottom: 0px; font-size: 40px"";>מוכנים לשלם: <span id=""c_p_y""></span></p>","21","evaluation","75","23","7B,26B","55","61","21","","","","","","","","","","","","","","","",""
"","","","","","html-keyboard-response","89","195207","0.0-17.0-2.23","edf70186-0535-41d2-8843-3b95f3b54e9c","null","<p style=""text-align: center;"">+</p>","null","fixation","","","","","","","","","","","","","","","","","","","","","",""
"","","","","","html-slider-response","90","196209","0.0-17.0-0.24","edf70186-0535-41d2-8843-3b95f3b54e9c","1000","
                  <p style=""text-align: center;"">₪43
                                                <br>75%</p>
                  <p id=""wtp"" style=""text-align:center; margin-top: 0px; margin-bottom: 0px; font-size: 40px"";>&ensp;</p>","-","viewing","0","18","11B,19B,24A,26A","","","","","","","","","","","","","","","","","","",""
"","","","","","html-slider-response","91","199118","0.0-17.0-1.24","edf70186-0535-41d2-8843-3b95f3b54e9c","2908","
                  <p style=""text-align: center;"">₪43
                                                <br>75%</p>
                  <p id=""wtp"" style=""text-align:center; margin-top: 0px; margin-bottom: 0px; font-size: 40px"";>מוכנים לשלם: <span id=""c_p_y""></span></p>","22","evaluation","17","18","11B,19B,24A,26A","75","43","22","","","","","","","","","","","","","","","",""
"","","","","","html-keyboard-response","92","199632","0.0-17.0-2.24","edf70186-0535-41d2-8843-3b95f3b54e9c","null","<p style=""text-align: center;"">+</p>","null","fixation","","","","","","","","","","","","","","","","","","","","","",""
"","","","","","html-slider-response","93","200636","0.0-17.0-0.25","edf70186-0535-41d2-8843-3b95f3b54e9c","1000","
                  <p style=""text-align: center;"">₪4
                                                <br>75%</p>
                  <p id=""wtp"" style=""text-align:center; margin-top: 0px; margin-bottom: 0px; font-size: 40px"";>&ensp;</p>","-","viewing","0","3","12B,20B,23B,27C,29C","","","","","","","","","","","","","","","","","","",""
"","","","","","html-slider-response","94","202134","0.0-17.0-1.25","edf70186-0535-41d2-8843-3b95f3b54e9c","1497","
                  <p style=""text-align: center;"">₪4
                                                <br>75%</p>
                  <p id=""wtp"" style=""text-align:center; margin-top: 0px; margin-bottom: 0px; font-size: 40px"";>מוכנים לשלם: <span id=""c_p_y""></span></p>","0","evaluation","18","3","12B,20B,23B,27C,29C","75","4","1","","","","","","","","","","","","","","","",""
"","","","","","html-keyboard-response","95","203150","0.0-17.0-2.25","edf70186-0535-41d2-8843-3b95f3b54e9c","null","<p style=""text-align: center;"">+</p>","null","fixation","","","","","","","","","","","","","","","","","","","","","",""
"","","","","","html-slider-response","96","204161","0.0-17.0-0.26","edf70186-0535-41d2-8843-3b95f3b54e9c","1000","
                  <p style=""text-align: center;"">₪64
                                                <br>50%</p>
                  <p id=""wtp"" style=""text-align:center; margin-top: 0px; margin-bottom: 0px; font-size: 40px"";>&ensp;</p>","-","viewing","0","25","1B,3B,4A","","","","","","","","","","","","","","","","","","",""
"","","","","","html-slider-response","97","206174","0.0-17.0-1.26","edf70186-0535-41d2-8843-3b95f3b54e9c","2012","
                  <p style=""text-align: center;"">₪64
                                                <br>50%</p>
                  <p id=""wtp"" style=""text-align:center; margin-top: 0px; margin-bottom: 0px; font-size: 40px"";>מוכנים לשלם: <span id=""c_p_y""></span></p>","30","evaluation","36","25","1B,3B,4A","50","64","30","","","","","","","","","","","","","","","",""
"","","","","","html-keyboard-response","98","207583","0.0-17.0-2.26","edf70186-0535-41d2-8843-3b95f3b54e9c","null","<p style=""text-align: center;"">+</p>","null","fixation","","","","","","","","","","","","","","","","","","","","","",""
"","","","","","html-slider-response","99","208600","0.0-17.0-0.27","edf70186-0535-41d2-8843-3b95f3b54e9c","1000","
                  <p style=""text-align: center;"">₪36
                                                <br>75%</p>
                  <p id=""wtp"" style=""text-align:center; margin-top: 0px; margin-bottom: 0px; font-size: 40px"";>&ensp;</p>","-","viewing","0","14","4B,5A,13B,16B","","","","","","","","","","","","","","","","","","",""
"","","","","","html-slider-response","100","211278","0.0-17.0-1.27","edf70186-0535-41d2-8843-3b95f3b54e9c","2677","
                  <p style=""text-align: center;"">₪36
                                                <br>75%</p>
                  <p id=""wtp"" style=""text-align:center; margin-top: 0px; margin-bottom: 0px; font-size: 40px"";>מוכנים לשלם: <span id=""c_p_y""></span></p>","24","evaluation","34","14","4B,5A,13B,16B","75","36","24","","","","","","","","","","","","","","","",""
"","","","","","html-keyboard-response","101","212152","0.0-17.0-2.27","edf70186-0535-41d2-8843-3b95f3b54e9c","null","<p style=""text-align: center;"">+</p>","null","fixation","","","","","","","","","","","","","","","","","","","","","",""
"","","","","","html-slider-response","102","213154","0.0-17.0-0.28","edf70186-0535-41d2-8843-3b95f3b54e9c","1000","
                  <p style=""text-align: center;"">₪18
                                                <br>50%</p>
                  <p id=""wtp"" style=""text-align:center; margin-top: 0px; margin-bottom: 0px; font-size: 40px"";>&ensp;</p>","-","viewing","0","10","2C,16C,22B,28A","","","","","","","","","","","","","","","","","","",""
"","","","","","html-slider-response","103","216238","0.0-17.0-1.28","edf70186-0535-41d2-8843-3b95f3b54e9c","3083","
                  <p style=""text-align: center;"">₪18
                                                <br>50%</p>
                  <p id=""wtp"" style=""text-align:center; margin-top: 0px; margin-bottom: 0px; font-size: 40px"";>מוכנים לשלם: <span id=""c_p_y""></span></p>","5","evaluation","50","10","2C,16C,22B,28A","50","18","5","","","","","","","","","","","","","","","",""
"","","","","","html-keyboard-response","104","217086","0.0-17.0-2.28","edf70186-0535-41d2-8843-3b95f3b54e9c","null","<p style=""text-align: center;"">+</p>","null","fixation","","","","","","","","","","","","","","","","","","","","","",""
"","","","","","html-slider-response","105","218089","0.0-17.0-0.29","edf70186-0535-41d2-8843-3b95f3b54e9c","1000","
                  <p style=""text-align: center;"">₪76
                                                <br>65%</p>
                  <p id=""wtp"" style=""text-align:center; margin-top: 0px; margin-bottom: 0px; font-size: 40px"";>&ensp;</p>","-","viewing","0","29","8C,19A,24B","","","","","","","","","","","","","","","","","","",""
"","","","","","html-slider-response","106","220070","0.0-17.0-1.29","edf70186-0535-41d2-8843-3b95f3b54e9c","1980","
                  <p style=""text-align: center;"">₪76
                                                <br>65%</p>
                  <p id=""wtp"" style=""text-align:center; margin-top: 0px; margin-bottom: 0px; font-size: 40px"";>מוכנים לשלם: <span id=""c_p_y""></span></p>","19","evaluation","20","29","8C,19A,24B","65","76","19","","","","","","","","","","","","","","","",""
"","","","","","html-keyboard-response","107","220688","0.0-17.0-2.29","edf70186-0535-41d2-8843-3b95f3b54e9c","null","<p style=""text-align: center;"">+</p>","null","fixation","","","","","","","","","","","","","","","","","","","","","",""
"","","","","","html-slider-response","108","221701","0.0-17.0-0.30","edf70186-0535-41d2-8843-3b95f3b54e9c","1000","
                  <p style=""text-align: center;"">₪36
                                                <br>70%</p>
                  <p id=""wtp"" style=""text-align:center; margin-top: 0px; margin-bottom: 0px; font-size: 40px"";>&ensp;</p>","-","viewing","0","13","3A,5C,10B","","","","","","","","","","","","","","","","","","",""
"","","","","","html-slider-response","109","224142","0.0-17.0-1.30","edf70186-0535-41d2-8843-3b95f3b54e9c","2440","
                  <p style=""text-align: center;"">₪36
                                                <br>70%</p>
                  <p id=""wtp"" style=""text-align:center; margin-top: 0px; margin-bottom: 0px; font-size: 40px"";>מוכנים לשלם: <span id=""c_p_y""></span></p>","21","evaluation","51","13","3A,5C,10B","70","36","21","","","","","","","","","","","","","","","",""
"","","","","","html-keyboard-response","110","225394","0.0-17.0-2.30","edf70186-0535-41d2-8843-3b95f3b54e9c","null","<p style=""text-align: center;"">+</p>","null","fixation","","","","","","","","","","","","","","","","","","","","","",""
"","","","","","html-keyboard-response","111","226405","0.0-18.0","edf70186-0535-41d2-8843-3b95f3b54e9c","null","<p style=""text-align: center;"">+</p>","null","fixation","","","","","","","","","","","","","","","","","","","","","",""
"","","","","","html-keyboard-response","112","230262","0.0-19.0","edf70186-0535-41d2-8843-3b95f3b54e9c","null","<p>הפסקה.
          <br>לחצו כדי להמשיך.</p>","1","scan_wait","","","","","","","","","","","","","","","","","","","","","",""
"","","","","","html-keyboard-response","113","231263","0.0-20.0","edf70186-0535-41d2-8843-3b95f3b54e9c","null","<p style=""text-align: center;"">+</p>","null","fixation","","","","","","","","","","","","","","","","","","","","","",""
"","","","","","html-slider-response","114","232280","0.0-21.0-0.0","edf70186-0535-41d2-8843-3b95f3b54e9c","1000","
                  <p style=""text-align: center;"">₪79
                                                <br>65%</p>
                  <p id=""wtp"" style=""text-align:center; margin-top: 0px; margin-bottom: 0px; font-size: 40px"";>&ensp;</p>","-","viewing","0","31","8A","","","","","","","","","","","","","","","","","","",""
"","","","","","html-slider-response","115","234038","0.0-21.0-1.0","edf70186-0535-41d2-8843-3b95f3b54e9c","1757","
                  <p style=""text-align: center;"">₪79
                                                <br>65%</p>
                  <p id=""wtp"" style=""text-align:center; margin-top: 0px; margin-bottom: 0px; font-size: 40px"";>מוכנים לשלם: <span id=""c_p_y""></span></p>","28","evaluation","5","31","8A","65","79","28","","","","","","","","","","","","","","","",""
"","","","","","html-keyboard-response","116","234905","0.0-21.0-2.0","edf70186-0535-41d2-8843-3b95f3b54e9c","null","<p style=""text-align: center;"">+</p>","null","fixation","","","","","","","","","","","","","","","","","","","","","",""
"","","","","","html-slider-response","117","235916","0.0-21.0-0.1","edf70186-0535-41d2-8843-3b95f3b54e9c","1000","
                  <p style=""text-align: center;"">₪39
                                                <br>60%</p>
                  <p id=""wtp"" style=""text-align:center; margin-top: 0px; margin-bottom: 0px; font-size: 40px"";>&ensp;</p>","-","viewing","0","15","9C,25B","","","","","","","","","","","","","","","","","","",""
"","","","","","html-slider-response","118","237006","0.0-21.0-1.1","edf70186-0535-41d2-8843-3b95f3b54e9c","1089","
                  <p style=""text-align: center;"">₪39
                                                <br>60%</p>
                  <p id=""wtp"" style=""text-align:center; margin-top: 0px; margin-bottom: 0px; font-size: 40px"";>מוכנים לשלם: <span id=""c_p_y""></span></p>","24","evaluation","48","15","9C,25B","60","39","24","","","","","","","","","","","","","","","",""
"","","","","","html-keyboard-response","119","237862","0.0-21.0-2.1","edf70186-0535-41d2-8843-3b95f3b54e9c","null","<p style=""text-align: center;"">+</p>","null","fixation","","","","","","","","","","","","","","","","","","","","","",""
"","","","","","html-slider-response","120","238864","0.0-21.0-0.2","edf70186-0535-41d2-8843-3b95f3b54e9c","1000","
                  <p style=""text-align: center;"">₪36
                                                <br>75%</p>
                  <p id=""wtp"" style=""text-align:center; margin-top: 0px; margin-bottom: 0px; font-size: 40px"";>&ensp;</p>","-","viewing","0","14","4B,5A,13B,16B","","","","","","","","","","","","","","","","","","",""
"","","","","","html-slider-response","121","240014","0.0-21.0-1.2","edf70186-0535-41d2-8843-3b95f3b54e9c","1149","
                  <p style=""text-align: center;"">₪36
                                                <br>75%</p>
                  <p id=""wtp"" style=""text-align:center; margin-top: 0px; margin-bottom: 0px; font-size: 40px"";>מוכנים לשלם: <span id=""c_p_y""></span></p>","26","evaluation","33","14","4B,5A,13B,16B","75","36","26","","","","","","","","","","","","","","","",""
"","","","","","html-keyboard-response","122","241179","0.0-21.0-2.2","edf70186-0535-41d2-8843-3b95f3b54e9c","null","<p style=""text-align: center;"">+</p>","null","fixation","","","","","","","","","","","","","","","","","","","","","",""
"","","","","","html-slider-response","123","242181","0.0-21.0-0.3","edf70186-0535-41d2-8843-3b95f3b54e9c","1000","
                  <p style=""text-align: center;"">₪36
                                                <br>30%</p>
                  <p id=""wtp"" style=""text-align:center; margin-top: 0px; margin-bottom: 0px; font-size: 40px"";>&ensp;</p>","-","viewing","0","11","3C,20A,22A","","","","","","","","","","","","","","","","","","",""
"","","","","","html-slider-response","124","243422","0.0-21.0-1.3","edf70186-0535-41d2-8843-3b95f3b54e9c","1240","
                  <p style=""text-align: center;"">₪36
                                                <br>30%</p>
                  <p id=""wtp"" style=""text-align:center; margin-top: 0px; margin-bottom: 0px; font-size: 40px"";>מוכנים לשלם: <span id=""c_p_y""></span></p>","2","evaluation","21","11","3C,20A,22A","30","36","2","","","","","","","","","","","","","","","",""
"","","","","","html-keyboard-response","125","244273","0.0-21.0-2.3","edf70186-0535-41d2-8843-3b95f3b54e9c","null","<p style=""text-align: center;"">+</p>","null","fixation","","","","","","","","","","","","","","","","","","","","","",""
"","","","","","html-slider-response","126","245283","0.0-21.0-0.4","edf70186-0535-41d2-8843-3b95f3b54e9c","1000","
                  <p style=""text-align: center;"">₪39
                                                <br>65%</p>
                  <p id=""wtp"" style=""text-align:center; margin-top: 0px; margin-bottom: 0px; font-size: 40px"";>&ensp;</p>","-","viewing","0","16","1A,15A,26C","","","","","","","","","","","","","","","","","","",""
"","","","","","html-slider-response","127","247559","0.0-21.0-1.4","edf70186-0535-41d2-8843-3b95f3b54e9c","2274","
                  <p style=""text-align: center;"">₪39
                                                <br>65%</p>
                  <p id=""wtp"" style=""text-align:center; margin-top: 0px; margin-bottom: 0px; font-size: 40px"";>מוכנים לשלם: <span id=""c_p_y""></span></p>","6","evaluation","44","16","1A,15A,26C","65","39","7","","","","","","","","","","","","","","","",""
"","","","","","html-keyboard-response","128","248734","0.0-21.0-2.4","edf70186-0535-41d2-8843-3b95f3b54e9c","null","<p style=""text-align: center;"">+</p>","null","fixation","","","","","","","","","","","","","","","","","","","","","",""
"","","","","","html-slider-response","129","249750","0.0-21.0-0.5","edf70186-0535-41d2-8843-3b95f3b54e9c","1000","
                  <p style=""text-align: center;"">₪79
                                                <br>40%</p>
                  <p id=""wtp"" style=""text-align:center; margin-top: 0px; margin-bottom: 0px; font-size: 40px"";>&ensp;</p>","-","viewing","0","30","9B","","","","","","","","","","","","","","","","","","",""
"","","","","","html-slider-response","130","251743","0.0-21.0-1.5","edf70186-0535-41d2-8843-3b95f3b54e9c","1991","
                  <p style=""text-align: center;"">₪79
                                                <br>40%</p>
                  <p id=""wtp"" style=""text-align:center; margin-top: 0px; margin-bottom: 0px; font-size: 40px"";>מוכנים לשלם: <span id=""c_p_y""></span></p>","13","evaluation","65","30","9B","40","79","13","","","","","","","","","","","","","","","",""
"","","","","","html-keyboard-response","131","252730","0.0-21.0-2.5","edf70186-0535-41d2-8843-3b95f3b54e9c","null","<p style=""text-align: center;"">+</p>","null","fixation","","","","","","","","","","","","","","","","","","","","","",""
"","","","","","html-slider-response","132","253737","0.0-21.0-0.6","edf70186-0535-41d2-8843-3b95f3b54e9c","1000","
                  <p style=""text-align: center;"">₪11
                                                <br>75%</p>
                  <p id=""wtp"" style=""text-align:center; margin-top: 0px; margin-bottom: 0px; font-size: 40px"";>&ensp;</p>","-","viewing","0","7","6B,18B,22C,24C,29A","","","","","","","","","","","","","","","","","","",""
"","","","","","html-slider-response","133","257423","0.0-21.0-1.6","edf70186-0535-41d2-8843-3b95f3b54e9c","3685","
                  <p style=""text-align: center;"">₪11
                                                <br>75%</p>
                  <p id=""wtp"" style=""text-align:center; margin-top: 0px; margin-bottom: 0px; font-size: 40px"";>מוכנים לשלם: <span id=""c_p_y""></span></p>","6","evaluation","47","7","6B,18B,22C,24C,29A","75","11","6","","","","","","","","","","","","","","","",""
"","","","","","html-keyboard-response","134","257957","0.0-21.0-2.6","edf70186-0535-41d2-8843-3b95f3b54e9c","null","<p style=""text-align: center;"">+</p>","null","fixation","","","","","","","","","","","","","","","","","","","","","",""
"","","","","","html-slider-response","135","258959","0.0-21.0-0.7","edf70186-0535-41d2-8843-3b95f3b54e9c","1000","
                  <p style=""text-align: center;"">₪71
                                                <br>55%</p>
                  <p id=""wtp"" style=""text-align:center; margin-top: 0px; margin-bottom: 0px; font-size: 40px"";>&ensp;</p>","-","viewing","0","27","5B,18A","","","","","","","","","","","","","","","","","","",""
"","","","","","html-slider-response","136","260559","0.0-21.0-1.7","edf70186-0535-41d2-8843-3b95f3b54e9c","1598","
                  <p style=""text-align: center;"">₪71
                                                <br>55%</p>
                  <p id=""wtp"" style=""text-align:center; margin-top: 0px; margin-bottom: 0px; font-size: 40px"";>מוכנים לשלם: <span id=""c_p_y""></span></p>","29","evaluation","46","27","5B,18A","55","71","29","","","","","","","","","","","","","","","",""
"","","","","","html-keyboard-response","137","261707","0.0-21.0-2.7","edf70186-0535-41d2-8843-3b95f3b54e9c","null","<p style=""text-align: center;"">+</p>","null","fixation","","","","","","","","","","","","","","","","","","","","","",""
"","","","","","html-slider-response","138","262711","0.0-21.0-0.8","edf70186-0535-41d2-8843-3b95f3b54e9c","1000","
                  <p style=""text-align: center;"">₪64
                                                <br>50%</p>
                  <p id=""wtp"" style=""text-align:center; margin-top: 0px; margin-bottom: 0px; font-size: 40px"";>&ensp;</p>","-","viewing","0","25","1B,3B,4A","","","","","","","","","","","","","","","","","","",""
"","","","","","html-slider-response","139","266127","0.0-21.0-1.8","edf70186-0535-41d2-8843-3b95f3b54e9c","3414","
                  <p style=""text-align: center;"">₪64
                                                <br>50%</p>
                  <p id=""wtp"" style=""text-align:center; margin-top: 0px; margin-bottom: 0px; font-size: 40px"";>מוכנים לשלם: <span id=""c_p_y""></span></p>","5","evaluation","12","25","1B,3B,4A","50","64","5","","","","","","","","","","","","","","","",""
"","","","","","html-keyboard-response","140","267112","0.0-21.0-2.8","edf70186-0535-41d2-8843-3b95f3b54e9c","null","<p style=""text-align: center;"">+</p>","null","fixation","","","","","","","","","","","","","","","","","","","","","",""
"","","","","","html-slider-response","141","268114","0.0-21.0-0.9","edf70186-0535-41d2-8843-3b95f3b54e9c","1000","
                  <p style=""text-align: center;"">₪4
                                                <br>75%</p>
                  <p id=""wtp"" style=""text-align:center; margin-top: 0px; margin-bottom: 0px; font-size: 40px"";>&ensp;</p>","-","viewing","0","3","12B,20B,23B,27C,29C","","","","","","","","","","","","","","","","","","",""
"","","","","","html-slider-response","142","269895","0.0-21.0-1.9","edf70186-0535-41d2-8843-3b95f3b54e9c","1779","
                  <p style=""text-align: center;"">₪4
                                                <br>75%</p>
                  <p id=""wtp"" style=""text-align:center; margin-top: 0px; margin-bottom: 0px; font-size: 40px"";>מוכנים לשלם: <span id=""c_p_y""></span></p>","3","evaluation","20","3","12B,20B,23B,27C,29C","75","4","3","","","","","","","","","","","","","","","",""
"","","","","","html-keyboard-response","143","270938","0.0-21.0-2.9","edf70186-0535-41d2-8843-3b95f3b54e9c","null","<p style=""text-align: center;"">+</p>","null","fixation","","","","","","","","","","","","","","","","","","","","","",""
"","","","","","html-slider-response","144","271954","0.0-21.0-0.10","edf70186-0535-41d2-8843-3b95f3b54e9c","1000","
                  <p style=""text-align: center;"">₪4
                                                <br>50%</p>
                  <p id=""wtp"" style=""text-align:center; margin-top: 0px; margin-bottom: 0px; font-size: 40px"";>&ensp;</p>","-","viewing","0","2","4C,17B","","","","","","","","","","","","","","","","","","",""
"","","","","","html-slider-response","145","272990","0.0-21.0-1.10","edf70186-0535-41d2-8843-3b95f3b54e9c","1035","
                  <p style=""text-align: center;"">₪4
                                                <br>50%</p>
                  <p id=""wtp"" style=""text-align:center; margin-top: 0px; margin-bottom: 0px; font-size: 40px"";>מוכנים לשלם: <span id=""c_p_y""></span></p>","0","evaluation","72","2","4C,17B","50","4","0","","","","","","","","","","","","","","","",""
"","","","","","html-keyboard-response","146","273579","0.0-21.0-2.10","edf70186-0535-41d2-8843-3b95f3b54e9c","null","<p style=""text-align: center;"">+</p>","null","fixation","","","","","","","","","","","","","","","","","","","","","",""
"","","","","","html-slider-response","147","274592","0.0-21.0-0.11","edf70186-0535-41d2-8843-3b95f3b54e9c","1000","
                  <p style=""text-align: center;"">₪76
                                                <br>65%</p>
                  <p id=""wtp"" style=""text-align:center; margin-top: 0px; margin-bottom: 0px; font-size: 40px"";>&ensp;</p>","-","viewing","0","29","8C,19A,24B","","","","","","","","","","","","","","","","","","",""
"","","","","","html-slider-response","148","276399","0.0-21.0-1.11","edf70186-0535-41d2-8843-3b95f3b54e9c","1806","
                  <p style=""text-align: center;"">₪76
                                                <br>65%</p>
                  <p id=""wtp"" style=""text-align:center; margin-top: 0px; margin-bottom: 0px; font-size: 40px"";>מוכנים לשלם: <span id=""c_p_y""></span></p>","30","evaluation","60","29","8C,19A,24B","65","76","30","","","","","","","","","","","","","","","",""
"","","","","","html-keyboard-response","149","277071","0.0-21.0-2.11","edf70186-0535-41d2-8843-3b95f3b54e9c","null","<p style=""text-align: center;"">+</p>","null","fixation","","","","","","","","","","","","","","","","","","","","","",""
"","","","","","html-slider-response","150","278079","0.0-21.0-0.12","edf70186-0535-41d2-8843-3b95f3b54e9c","1000","
                  <p style=""text-align: center;"">₪11
                                                <br>20%</p>
                  <p id=""wtp"" style=""text-align:center; margin-top: 0px; margin-bottom: 0px; font-size: 40px"";>&ensp;</p>","-","viewing","0","4","12C,17C,23C,28C","","","","","","","","","","","","","","","","","","",""
"","","","","","html-slider-response","151","281639","0.0-21.0-1.12","edf70186-0535-41d2-8843-3b95f3b54e9c","3558","
                  <p style=""text-align: center;"">₪11
                                                <br>20%</p>
                  <p id=""wtp"" style=""text-align:center; margin-top: 0px; margin-bottom: 0px; font-size: 40px"";>מוכנים לשלם: <span id=""c_p_y""></span></p>","0","evaluation","63","4","12C,17C,23C,28C","20","11","0","","","","","","","","","","","","","","","",""
"","","","","","html-keyboard-response","152","282462","0.0-21.0-2.12","edf70186-0535-41d2-8843-3b95f3b54e9c","null","<p style=""text-align: center;"">+</p>","null","fixation","","","","","","","","","","","","","","","","","","","","","",""
"","","","","","html-slider-response","153","283479","0.0-21.0-0.13","edf70186-0535-41d2-8843-3b95f3b54e9c","1000","
                  <p style=""text-align: center;"">₪11
                                                <br>45%</p>
                  <p id=""wtp"" style=""text-align:center; margin-top: 0px; margin-bottom: 0px; font-size: 40px"";>&ensp;</p>","-","viewing","0","6","14B,21C,25C","","","","","","","","","","","","","","","","","","",""
"","","","","","html-slider-response","154","284455","0.0-21.0-1.13","edf70186-0535-41d2-8843-3b95f3b54e9c","974","
                  <p style=""text-align: center;"">₪11
                                                <br>45%</p>
                  <p id=""wtp"" style=""text-align:center; margin-top: 0px; margin-bottom: 0px; font-size: 40px"";>מוכנים לשלם: <span id=""c_p_y""></span></p>","1","evaluation","23","6","14B,21C,25C","45","11","2","","","","","","","","","","","","","","","",""
"","","","","","html-keyboard-response","155","285348","0.0-21.0-2.13","edf70186-0535-41d2-8843-3b95f3b54e9c","null","<p style=""text-align: center;"">+</p>","null","fixation","","","","","","","","","","","","","","","","","","","","","",""
"","","","","","html-slider-response","156","286353","0.0-21.0-0.14","edf70186-0535-41d2-8843-3b95f3b54e9c","1000","
                  <p style=""text-align: center;"">₪64
                                                <br>25%</p>
                  <p id=""wtp"" style=""text-align:center; margin-top: 0px; margin-bottom: 0px; font-size: 40px"";>&ensp;</p>","-","viewing","0","24","6A,21A","","","","","","","","","","","","","","","","","","",""
"","","","","","html-slider-response","157","288919","0.0-21.0-1.14","edf70186-0535-41d2-8843-3b95f3b54e9c","2564","
                  <p style=""text-align: center;"">₪64
                                                <br>25%</p>
                  <p id=""wtp"" style=""text-align:center; margin-top: 0px; margin-bottom: 0px; font-size: 40px"";>מוכנים לשלם: <span id=""c_p_y""></span></p>","2","evaluation","55","24","6A,21A","25","64","2","","","","","","","","","","","","","","","",""
"","","","","","html-keyboard-response","158","289572","0.0-21.0-2.14","edf70186-0535-41d2-8843-3b95f3b54e9c","null","<p style=""text-align: center;"">+</p>","null","fixation","","","","","","","","","","","","","","","","","","","","","",""
"","","","","","html-slider-response","159","290574","0.0-21.0-0.15","edf70186-0535-41d2-8843-3b95f3b54e9c","1000","
                  <p style=""text-align: center;"">₪71
                                                <br>45%</p>
                  <p id=""wtp"" style=""text-align:center; margin-top: 0px; margin-bottom: 0px; font-size: 40px"";>&ensp;</p>","-","viewing","0","26","2B,16A","","","","","","","","","","","","","","","","","","",""
"","","","","","html-slider-response","160","292743","0.0-21.0-1.15","edf70186-0535-41d2-8843-3b95f3b54e9c","2168","
                  <p style=""text-align: center;"">₪71
                                                <br>45%</p>
                  <p id=""wtp"" style=""text-align:center; margin-top: 0px; margin-bottom: 0px; font-size: 40px"";>מוכנים לשלם: <span id=""c_p_y""></span></p>","40","evaluation","24","26","2B,16A","45","71","40","","","","","","","","","","","","","","","",""
"","","","","","html-keyboard-response","161","293372","0.0-21.0-2.15","edf70186-0535-41d2-8843-3b95f3b54e9c","null","<p style=""text-align: center;"">+</p>","null","fixation","","","","","","","","","","","","","","","","","","","","","",""
"","","","","","html-slider-response","162","294385","0.0-21.0-0.16","edf70186-0535-41d2-8843-3b95f3b54e9c","1000","
                  <p style=""text-align: center;"">₪16
                                                <br>20%</p>
                  <p id=""wtp"" style=""text-align:center; margin-top: 0px; margin-bottom: 0px; font-size: 40px"";>&ensp;</p>","-","viewing","0","8","14C,17A,20C,27A","","","","","","","","","","","","","","","","","","",""
"","","","","","html-slider-response","163","296159","0.0-21.0-1.16","edf70186-0535-41d2-8843-3b95f3b54e9c","1772","
                  <p style=""text-align: center;"">₪16
                                                <br>20%</p>
                  <p id=""wtp"" style=""text-align:center; margin-top: 0px; margin-bottom: 0px; font-size: 40px"";>מוכנים לשלם: <span id=""c_p_y""></span></p>","1","evaluation","36","8","14C,17A,20C,27A","20","16","2","","","","","","","","","","","","","","","",""
"","","","","","html-keyboard-response","164","296858","0.0-21.0-2.16","edf70186-0535-41d2-8843-3b95f3b54e9c","null","<p style=""text-align: center;"">+</p>","null","fixation","","","","","","","","","","","","","","","","","","","","","",""
"","","","","","html-slider-response","165","297865","0.0-21.0-0.17","edf70186-0535-41d2-8843-3b95f3b54e9c","1000","
                  <p style=""text-align: center;"">₪18
                                                <br>50%</p>
                  <p id=""wtp"" style=""text-align:center; margin-top: 0px; margin-bottom: 0px; font-size: 40px"";>&ensp;</p>","-","viewing","0","10","2C,16C,22B,28A","","","","","","","","","","","","","","","","","","",""
"","","","","","html-slider-response","166","300079","0.0-21.0-1.17","edf70186-0535-41d2-8843-3b95f3b54e9c","2212","
                  <p style=""text-align: center;"">₪18
                                                <br>50%</p>
                  <p id=""wtp"" style=""text-align:center; margin-top: 0px; margin-bottom: 0px; font-size: 40px"";>מוכנים לשלם: <span id=""c_p_y""></span></p>","6","evaluation","12","10","2C,16C,22B,28A","50","18","6","","","","","","","","","","","","","","","",""
"","","","","","html-keyboard-response","167","300736","0.0-21.0-2.17","edf70186-0535-41d2-8843-3b95f3b54e9c","null","<p style=""text-align: center;"">+</p>","null","fixation","","","","","","","","","","","","","","","","","","","","","",""
"","","","","","html-slider-response","168","301747","0.0-21.0-0.18","edf70186-0535-41d2-8843-3b95f3b54e9c","1000","
                  <p style=""text-align: center;"">₪11
                                                <br>25%</p>
                  <p id=""wtp"" style=""text-align:center; margin-top: 0px; margin-bottom: 0px; font-size: 40px"";>&ensp;</p>","-","viewing","0","5","12A,27B,28B,30B","","","","","","","","","","","","","","","","","","",""
"","","","","","html-slider-response","169","303359","0.0-21.0-1.18","edf70186-0535-41d2-8843-3b95f3b54e9c","1611","
                  <p style=""text-align: center;"">₪11
                                                <br>25%</p>
                  <p id=""wtp"" style=""text-align:center; margin-top: 0px; margin-bottom: 0px; font-size: 40px"";>מוכנים לשלם: <span id=""c_p_y""></span></p>","0","evaluation","76","5","12A,27B,28B,30B","25","11","0","","","","","","","","","","","","","","","",""
"","","","","","html-keyboard-response","170","304862","0.0-21.0-2.18","edf70186-0535-41d2-8843-3b95f3b54e9c","null","<p style=""text-align: center;"">+</p>","null","fixation","","","","","","","","","","","","","","","","","","","","","",""
"","","","","","html-slider-response","171","305874","0.0-21.0-0.19","edf70186-0535-41d2-8843-3b95f3b54e9c","1000","
                  <p style=""text-align: center;"">₪43
                                                <br>60%</p>
                  <p id=""wtp"" style=""text-align:center; margin-top: 0px; margin-bottom: 0px; font-size: 40px"";>&ensp;</p>","-","viewing","0","17","2A,7A,9A,15B","","","","","","","","","","","","","","","","","","",""
"","","","","","html-slider-response","172","307983","0.0-21.0-1.19","edf70186-0535-41d2-8843-3b95f3b54e9c","2108","
                  <p style=""text-align: center;"">₪43
                                                <br>60%</p>
                  <p id=""wtp"" style=""text-align:center; margin-top: 0px; margin-bottom: 0px; font-size: 40px"";>מוכנים לשלם: <span id=""c_p_y""></span></p>","39","evaluation","19","17","2A,7A,9A,15B","60","43","39","","","","","","","","","","","","","","","",""
"","","","","","html-keyboard-response","173","309135","0.0-21.0-2.19","edf70186-0535-41d2-8843-3b95f3b54e9c","null","<p style=""text-align: center;"">+</p>","null","fixation","","","","","","","","","","","","","","","","","","","","","",""
"","","","","","html-slider-response","174","310139","0.0-21.0-0.20","edf70186-0535-41d2-8843-3b95f3b54e9c","1000","
                  <p style=""text-align: center;"">₪58
                                                <br>45%</p>
                  <p id=""wtp"" style=""text-align:center; margin-top: 0px; margin-bottom: 0px; font-size: 40px"";>&ensp;</p>","-","viewing","0","21","11C,18C,25A","","","","","","","","","","","","","","","","","","",""
"","","","","","html-slider-response","175","311543","0.0-21.0-1.20","edf70186-0535-41d2-8843-3b95f3b54e9c","1402","
                  <p style=""text-align: center;"">₪58
                                                <br>45%</p>
                  <p id=""wtp"" style=""text-align:center; margin-top: 0px; margin-bottom: 0px; font-size: 40px"";>מוכנים לשלם: <span id=""c_p_y""></span></p>","2","evaluation","46","21","11C,18C,25A","45","58","2","","","","","","","","","","","","","","","",""
"","","","","","html-keyboard-response","176","312173","0.0-21.0-2.20","edf70186-0535-41d2-8843-3b95f3b54e9c","null","<p style=""text-align: center;"">+</p>","null","fixation","","","","","","","","","","","","","","","","","","","","","",""
"","","","","","html-slider-response","177","313174","0.0-21.0-0.21","edf70186-0535-41d2-8843-3b95f3b54e9c","1000","
                  <p style=""text-align: center;"">₪36
                                                <br>70%</p>
                  <p id=""wtp"" style=""text-align:center; margin-top: 0px; margin-bottom: 0px; font-size: 40px"";>&ensp;</p>","-","viewing","0","13","3A,5C,10B","","","","","","","","","","","","","","","","","","",""
"","","","","","html-slider-response","178","315471","0.0-21.0-1.21","edf70186-0535-41d2-8843-3b95f3b54e9c","2295","
                  <p style=""text-align: center;"">₪36
                                                <br>70%</p>
                  <p id=""wtp"" style=""text-align:center; margin-top: 0px; margin-bottom: 0px; font-size: 40px"";>מוכנים לשלם: <span id=""c_p_y""></span></p>","52","evaluation","66","13","3A,5C,10B","70","36","52","","","","","","","","","","","","","","","",""
"","","","","","html-keyboard-response","179","316135","0.0-21.0-2.21","edf70186-0535-41d2-8843-3b95f3b54e9c","null","<p style=""text-align: center;"">+</p>","null","fixation","","","","","","","","","","","","","","","","","","","","","",""
"","","","","","html-slider-response","180","317137","0.0-21.0-0.22","edf70186-0535-41d2-8843-3b95f3b54e9c","1000","
                  <p style=""text-align: center;"">₪71
                                                <br>75%</p>
                  <p id=""wtp"" style=""text-align:center; margin-top: 0px; margin-bottom: 0px; font-size: 40px"";>&ensp;</p>","-","viewing","0","28","8B","","","","","","","","","","","","","","","","","","",""
"","","","","","html-slider-response","181","319535","0.0-21.0-1.22","edf70186-0535-41d2-8843-3b95f3b54e9c","2396","
                  <p style=""text-align: center;"">₪71
                                                <br>75%</p>
                  <p id=""wtp"" style=""text-align:center; margin-top: 0px; margin-bottom: 0px; font-size: 40px"";>מוכנים לשלם: <span id=""c_p_y""></span></p>","69","evaluation","21","28","8B","75","71","69","","","","","","","","","","","","","","","",""
"","","","","","html-keyboard-response","182","320943","0.0-21.0-2.22","edf70186-0535-41d2-8843-3b95f3b54e9c","null","<p style=""text-align: center;"">+</p>","null","fixation","","","","","","","","","","","","","","","","","","","","","",""
"","","","","","html-slider-response","183","321950","0.0-21.0-0.23","edf70186-0535-41d2-8843-3b95f3b54e9c","1000","
                  <p style=""text-align: center;"">₪18
                                                <br>25%</p>
                  <p id=""wtp"" style=""text-align:center; margin-top: 0px; margin-bottom: 0px; font-size: 40px"";>&ensp;</p>","-","viewing","0","9","14A,23A","","","","","","","","","","","","","","","","","","",""
"","","","","","html-slider-response","184","323391","0.0-21.0-1.23","edf70186-0535-41d2-8843-3b95f3b54e9c","1440","
                  <p style=""text-align: center;"">₪18
                                                <br>25%</p>
                  <p id=""wtp"" style=""text-align:center; margin-top: 0px; margin-bottom: 0px; font-size: 40px"";>מוכנים לשלם: <span id=""c_p_y""></span></p>","0","evaluation","63","9","14A,23A","25","18","1","","","","","","","","","","","","","","","",""
"","","","","","html-keyboard-response","185","324615","0.0-21.0-2.23","edf70186-0535-41d2-8843-3b95f3b54e9c","null","<p style=""text-align: center;"">+</p>","null","fixation","","","","","","","","","","","","","","","","","","","","","",""
"","","","","","html-slider-response","186","325618","0.0-21.0-0.24","edf70186-0535-41d2-8843-3b95f3b54e9c","1000","
                  <p style=""text-align: center;"">₪58
                                                <br>40%</p>
                  <p id=""wtp"" style=""text-align:center; margin-top: 0px; margin-bottom: 0px; font-size: 40px"";>&ensp;</p>","-","viewing","0","20","10C,13A,19C,21B","","","","","","","","","","","","","","","","","","",""
"","","","","","html-slider-response","187","327791","0.0-21.0-1.24","edf70186-0535-41d2-8843-3b95f3b54e9c","2171","
                  <p style=""text-align: center;"">₪58
                                                <br>40%</p>
                  <p id=""wtp"" style=""text-align:center; margin-top: 0px; margin-bottom: 0px; font-size: 40px"";>מוכנים לשלם: <span id=""c_p_y""></span></p>","8","evaluation","45","20","10C,13A,19C,21B","40","58","8","","","","","","","","","","","","","","","",""
"","","","","","html-keyboard-response","188","328808","0.0-21.0-2.24","edf70186-0535-41d2-8843-3b95f3b54e9c","null","<p style=""text-align: center;"">+</p>","null","fixation","","","","","","","","","","","","","","","","","","","","","",""
"","","","","","html-slider-response","189","329815","0.0-21.0-0.25","edf70186-0535-41d2-8843-3b95f3b54e9c","1000","
                  <p style=""text-align: center;"">₪4
                                                <br>25%</p>
                  <p id=""wtp"" style=""text-align:center; margin-top: 0px; margin-bottom: 0px; font-size: 40px"";>&ensp;</p>","-","viewing","0","1","6C,29B,30C","","","","","","","","","","","","","","","","","","",""
"","","","","","html-slider-response","190","331175","0.0-21.0-1.25","edf70186-0535-41d2-8843-3b95f3b54e9c","1359","
                  <p style=""text-align: center;"">₪4
                                                <br>25%</p>
                  <p id=""wtp"" style=""text-align:center; margin-top: 0px; margin-bottom: 0px; font-size: 40px"";>מוכנים לשלם: <span id=""c_p_y""></span></p>","0","evaluation","50","1","6C,29B,30C","25","4","1","","","","","","","","","","","","","","","",""
"","","","","","html-keyboard-response","191","331837","0.0-21.0-2.25","edf70186-0535-41d2-8843-3b95f3b54e9c","null","<p style=""text-align: center;"">+</p>","null","fixation","","","","","","","","","","","","","","","","","","","","","",""
"","","","","","html-slider-response","192","332839","0.0-21.0-0.26","edf70186-0535-41d2-8843-3b95f3b54e9c","1000","
                  <p style=""text-align: center;"">₪43
                                                <br>75%</p>
                  <p id=""wtp"" style=""text-align:center; margin-top: 0px; margin-bottom: 0px; font-size: 40px"";>&ensp;</p>","-","viewing","0","18","11B,19B,24A,26A","","","","","","","","","","","","","","","","","","",""
"","","","","","html-slider-response","193","333935","0.0-21.0-1.26","edf70186-0535-41d2-8843-3b95f3b54e9c","1095","
                  <p style=""text-align: center;"">₪43
                                                <br>75%</p>
                  <p id=""wtp"" style=""text-align:center; margin-top: 0px; margin-bottom: 0px; font-size: 40px"";>מוכנים לשלם: <span id=""c_p_y""></span></p>","40","evaluation","74","18","11B,19B,24A,26A","75","43","40","","","","","","","","","","","","","","","",""
"","","","","","html-keyboard-response","194","334478","0.0-21.0-2.26","edf70186-0535-41d2-8843-3b95f3b54e9c","null","<p style=""text-align: center;"">+</p>","null","fixation","","","","","","","","","","","","","","","","","","","","","",""
"","","","","","html-slider-response","195","335487","0.0-21.0-0.27","edf70186-0535-41d2-8843-3b95f3b54e9c","1000","
                  <p style=""text-align: center;"">₪61
                                                <br>45%</p>
                  <p id=""wtp"" style=""text-align:center; margin-top: 0px; margin-bottom: 0px; font-size: 40px"";>&ensp;</p>","-","viewing","0","22","10A,11A","","","","","","","","","","","","","","","","","","",""
"","","","","","html-slider-response","196","338007","0.0-21.0-1.27","edf70186-0535-41d2-8843-3b95f3b54e9c","2518","
                  <p style=""text-align: center;"">₪61
                                                <br>45%</p>
                  <p id=""wtp"" style=""text-align:center; margin-top: 0px; margin-bottom: 0px; font-size: 40px"";>מוכנים לשלם: <span id=""c_p_y""></span></p>","21","evaluation","37","22","10A,11A","45","61","21","","","","","","","","","","","","","","","",""
"","","","","","html-keyboard-response","197","338546","0.0-21.0-2.27","edf70186-0535-41d2-8843-3b95f3b54e9c","null","<p style=""text-align: center;"">+</p>","null","fixation","","","","","","","","","","","","","","","","","","","","","",""
"","","","","","html-slider-response","198","339562","0.0-21.0-0.28","edf70186-0535-41d2-8843-3b95f3b54e9c","1000","
                  <p style=""text-align: center;"">₪58
                                                <br>30%</p>
                  <p id=""wtp"" style=""text-align:center; margin-top: 0px; margin-bottom: 0px; font-size: 40px"";>&ensp;</p>","-","viewing","0","19","13C,30A","","","","","","","","","","","","","","","","","","",""
"","","","","","html-slider-response","199","342351","0.0-21.0-1.28","edf70186-0535-41d2-8843-3b95f3b54e9c","2788","
                  <p style=""text-align: center;"">₪58
                                                <br>30%</p>
                  <p id=""wtp"" style=""text-align:center; margin-top: 0px; margin-bottom: 0px; font-size: 40px"";>מוכנים לשלם: <span id=""c_p_y""></span></p>","0","evaluation","40","19","13C,30A","30","58","0","","","","","","","","","","","","","","","",""
"","","","","","html-keyboard-response","200","343584","0.0-21.0-2.28","edf70186-0535-41d2-8843-3b95f3b54e9c","null","<p style=""text-align: center;"">+</p>","null","fixation","","","","","","","","","","","","","","","","","","","","","",""
"","","","","","html-slider-response","201","344591","0.0-21.0-0.29","edf70186-0535-41d2-8843-3b95f3b54e9c","1000","
                  <p style=""text-align: center;"">₪36
                                                <br>60%</p>
                  <p id=""wtp"" style=""text-align:center; margin-top: 0px; margin-bottom: 0px; font-size: 40px"";>&ensp;</p>","-","viewing","0","12","1C,7C,15C","","","","","","","","","","","","","","","","","","",""
"","","","","","html-slider-response","202","347175","0.0-21.0-1.29","edf70186-0535-41d2-8843-3b95f3b54e9c","2582","
                  <p style=""text-align: center;"">₪36
                                                <br>60%</p>
                  <p id=""wtp"" style=""text-align:center; margin-top: 0px; margin-bottom: 0px; font-size: 40px"";>מוכנים לשלם: <span id=""c_p_y""></span></p>","25","evaluation","17","12","1C,7C,15C","60","36","25","","","","","","","","","","","","","","","",""
"","","","","","html-keyboard-response","203","348643","0.0-21.0-2.29","edf70186-0535-41d2-8843-3b95f3b54e9c","null","<p style=""text-align: center;"">+</p>","null","fixation","","","","","","","","","","","","","","","","","","","","","",""
"","","","","","html-slider-response","204","349646","0.0-21.0-0.30","edf70186-0535-41d2-8843-3b95f3b54e9c","1000","
                  <p style=""text-align: center;"">₪61
                                                <br>55%</p>
                  <p id=""wtp"" style=""text-align:center; margin-top: 0px; margin-bottom: 0px; font-size: 40px"";>&ensp;</p>","-","viewing","0","23","7B,26B","","","","","","","","","","","","","","","","","","",""
"","","","","","html-slider-response","205","351583","0.0-21.0-1.30","edf70186-0535-41d2-8843-3b95f3b54e9c","1936","
                  <p style=""text-align: center;"">₪61
                                                <br>55%</p>
                  <p id=""wtp"" style=""text-align:center; margin-top: 0px; margin-bottom: 0px; font-size: 40px"";>מוכנים לשלם: <span id=""c_p_y""></span></p>","37","evaluation","4","23","7B,26B","55","61","37","","","","","","","","","","","","","","","",""
"","","","","","html-keyboard-response","206","352863","0.0-21.0-2.30","edf70186-0535-41d2-8843-3b95f3b54e9c","null","<p style=""text-align: center;"">+</p>","null","fixation","","","","","","","","","","","","","","","","","","","","","",""
"","","","","","html-keyboard-response","207","353871","0.0-22.0","edf70186-0535-41d2-8843-3b95f3b54e9c","null","<p style=""text-align: center;"">+</p>","null","fixation","","","","","","","","","","","","","","","","","","","","","",""
"","","","","","html-keyboard-response","208","360006","0.0-23.0","edf70186-0535-41d2-8843-3b95f3b54e9c","null","<p>הפסקה.
          <br>לחצו כדי להמשיך.</p>","1","scan_wait","","","","","","","","","","","","","","","","","","","","","",""
"","","","","","html-keyboard-response","209","361008","0.0-24.0","edf70186-0535-41d2-8843-3b95f3b54e9c","null","<p style=""text-align: center;"">+</p>","null","fixation","","","","","","","","","","","","","","","","","","","","","",""
"","","","","","html-slider-response","210","362019","0.0-25.0-0.0","edf70186-0535-41d2-8843-3b95f3b54e9c","1000","
                  <p style=""text-align: center;"">₪61
                                                <br>45%</p>
                  <p id=""wtp"" style=""text-align:center; margin-top: 0px; margin-bottom: 0px; font-size: 40px"";>&ensp;</p>","-","viewing","0","22","10A,11A","","","","","","","","","","","","","","","","","","",""
"","","","","","html-slider-response","211","364079","0.0-25.0-1.0","edf70186-0535-41d2-8843-3b95f3b54e9c","2059","
                  <p style=""text-align: center;"">₪61
                                                <br>45%</p>
                  <p id=""wtp"" style=""text-align:center; margin-top: 0px; margin-bottom: 0px; font-size: 40px"";>מוכנים לשלם: <span id=""c_p_y""></span></p>","34","evaluation","36","22","10A,11A","45","61","34","","","","","","","","","","","","","","","",""
"","","","","","html-keyboard-response","212","364865","0.0-25.0-2.0","edf70186-0535-41d2-8843-3b95f3b54e9c","null","<p style=""text-align: center;"">+</p>","null","fixation","","","","","","","","","","","","","","","","","","","","","",""
"","","","","","html-slider-response","213","365875","0.0-25.0-0.1","edf70186-0535-41d2-8843-3b95f3b54e9c","1000","
                  <p style=""text-align: center;"">₪16
                                                <br>20%</p>
                  <p id=""wtp"" style=""text-align:center; margin-top: 0px; margin-bottom: 0px; font-size: 40px"";>&ensp;</p>","-","viewing","0","8","14C,17A,20C,27A","","","","","","","","","","","","","","","","","","",""
"","","","","","html-slider-response","214","366662","0.0-25.0-1.1","edf70186-0535-41d2-8843-3b95f3b54e9c","787","
                  <p style=""text-align: center;"">₪16
                                                <br>20%</p>
                  <p id=""wtp"" style=""text-align:center; margin-top: 0px; margin-bottom: 0px; font-size: 40px"";>מוכנים לשלם: <span id=""c_p_y""></span></p>","1","evaluation","35","8","14C,17A,20C,27A","20","16","1","","","","","","","","","","","","","","","",""
"","","","","","html-keyboard-response","215","367441","0.0-25.0-2.1","edf70186-0535-41d2-8843-3b95f3b54e9c","null","<p style=""text-align: center;"">+</p>","null","fixation","","","","","","","","","","","","","","","","","","","","","",""
"","","","","","html-slider-response","216","368443","0.0-25.0-0.2","edf70186-0535-41d2-8843-3b95f3b54e9c","1000","
                  <p style=""text-align: center;"">₪71
                                                <br>75%</p>
                  <p id=""wtp"" style=""text-align:center; margin-top: 0px; margin-bottom: 0px; font-size: 40px"";>&ensp;</p>","-","viewing","0","28","8B","","","","","","","","","","","","","","","","","","",""
"","","","","","html-slider-response","217","369687","0.0-25.0-1.2","edf70186-0535-41d2-8843-3b95f3b54e9c","1243","
                  <p style=""text-align: center;"">₪71
                                                <br>75%</p>
                  <p id=""wtp"" style=""text-align:center; margin-top: 0px; margin-bottom: 0px; font-size: 40px"";>מוכנים לשלם: <span id=""c_p_y""></span></p>","73","evaluation","51","28","8B","75","71","72","","","","","","","","","","","","","","","",""
"","","","","","html-keyboard-response","218","370202","0.0-25.0-2.2","edf70186-0535-41d2-8843-3b95f3b54e9c","null","<p style=""text-align: center;"">+</p>","null","fixation","","","","","","","","","","","","","","","","","","","","","",""
"","","","","","html-slider-response","219","371213","0.0-25.0-0.3","edf70186-0535-41d2-8843-3b95f3b54e9c","1000","
                  <p style=""text-align: center;"">₪39
                                                <br>65%</p>
                  <p id=""wtp"" style=""text-align:center; margin-top: 0px; margin-bottom: 0px; font-size: 40px"";>&ensp;</p>","-","viewing","0","16","1A,15A,26C","","","","","","","","","","","","","","","","","","",""
"","","","","","html-slider-response","220","372599","0.0-25.0-1.3","edf70186-0535-41d2-8843-3b95f3b54e9c","1385","
                  <p style=""text-align: center;"">₪39
                                                <br>65%</p>
                  <p id=""wtp"" style=""text-align:center; margin-top: 0px; margin-bottom: 0px; font-size: 40px"";>מוכנים לשלם: <span id=""c_p_y""></span></p>","46","evaluation","50","16","1A,15A,26C","65","39","46","","","","","","","","","","","","","","","",""
"","","","","","html-keyboard-response","221","374062","0.0-25.0-2.3","edf70186-0535-41d2-8843-3b95f3b54e9c","null","<p style=""text-align: center;"">+</p>","null","fixation","","","","","","","","","","","","","","","","","","","","","",""
"","","","","","html-slider-response","222","375070","0.0-25.0-0.4","edf70186-0535-41d2-8843-3b95f3b54e9c","1000","
                  <p style=""text-align: center;"">₪64
                                                <br>50%</p>
                  <p id=""wtp"" style=""text-align:center; margin-top: 0px; margin-bottom: 0px; font-size: 40px"";>&ensp;</p>","-","viewing","0","25","1B,3B,4A","","","","","","","","","","","","","","","","","","",""
"","","","","","html-slider-response","223","376815","0.0-25.0-1.4","edf70186-0535-41d2-8843-3b95f3b54e9c","1743","
                  <p style=""text-align: center;"">₪64
                                                <br>50%</p>
                  <p id=""wtp"" style=""text-align:center; margin-top: 0px; margin-bottom: 0px; font-size: 40px"";>מוכנים לשלם: <span id=""c_p_y""></span></p>","25","evaluation","5","25","1B,3B,4A","50","64","25","","","","","","","","","","","","","","","",""
"","","","","","html-keyboard-response","224","377956","0.0-25.0-2.4","edf70186-0535-41d2-8843-3b95f3b54e9c","null","<p style=""text-align: center;"">+</p>","null","fixation","","","","","","","","","","","","","","","","","","","","","",""
"","","","","","html-slider-response","225","378958","0.0-25.0-0.5","edf70186-0535-41d2-8843-3b95f3b54e9c","1000","
                  <p style=""text-align: center;"">₪36
                                                <br>60%</p>
                  <p id=""wtp"" style=""text-align:center; margin-top: 0px; margin-bottom: 0px; font-size: 40px"";>&ensp;</p>","-","viewing","0","12","1C,7C,15C","","","","","","","","","","","","","","","","","","",""
"","","","","","html-slider-response","226","381679","0.0-25.0-1.5","edf70186-0535-41d2-8843-3b95f3b54e9c","2720","
                  <p style=""text-align: center;"">₪36
                                                <br>60%</p>
                  <p id=""wtp"" style=""text-align:center; margin-top: 0px; margin-bottom: 0px; font-size: 40px"";>מוכנים לשלם: <span id=""c_p_y""></span></p>","51","evaluation","37","12","1C,7C,15C","60","36","51","","","","","","","","","","","","","","","",""
"","","","","","html-keyboard-response","227","382528","0.0-25.0-2.5","edf70186-0535-41d2-8843-3b95f3b54e9c","null","<p style=""text-align: center;"">+</p>","null","fixation","","","","","","","","","","","","","","","","","","","","","",""
"","","","","","html-slider-response","228","383541","0.0-25.0-0.6","edf70186-0535-41d2-8843-3b95f3b54e9c","1000","
                  <p style=""text-align: center;"">₪36
                                                <br>70%</p>
                  <p id=""wtp"" style=""text-align:center; margin-top: 0px; margin-bottom: 0px; font-size: 40px"";>&ensp;</p>","-","viewing","0","13","3A,5C,10B","","","","","","","","","","","","","","","","","","",""
"","","","","","html-slider-response","229","387398","0.0-25.0-1.6","edf70186-0535-41d2-8843-3b95f3b54e9c","3856","
                  <p style=""text-align: center;"">₪36
                                                <br>70%</p>
                  <p id=""wtp"" style=""text-align:center; margin-top: 0px; margin-bottom: 0px; font-size: 40px"";>מוכנים לשלם: <span id=""c_p_y""></span></p>","47","evaluation","70","13","3A,5C,10B","70","36","47","","","","","","","","","","","","","","","",""
"","","","","","html-keyboard-response","230","388798","0.0-25.0-2.6","edf70186-0535-41d2-8843-3b95f3b54e9c","null","<p style=""text-align: center;"">+</p>","null","fixation","","","","","","","","","","","","","","","","","","","","","",""
"","","","","","html-slider-response","231","389813","0.0-25.0-0.7","edf70186-0535-41d2-8843-3b95f3b54e9c","1000","
                  <p style=""text-align: center;"">₪36
                                                <br>75%</p>
                  <p id=""wtp"" style=""text-align:center; margin-top: 0px; margin-bottom: 0px; font-size: 40px"";>&ensp;</p>","-","viewing","0","14","4B,5A,13B,16B","","","","","","","","","","","","","","","","","","",""
"","","","","","html-slider-response","232","391863","0.0-25.0-1.7","edf70186-0535-41d2-8843-3b95f3b54e9c","2049","
                  <p style=""text-align: center;"">₪36
                                                <br>75%</p>
                  <p id=""wtp"" style=""text-align:center; margin-top: 0px; margin-bottom: 0px; font-size: 40px"";>מוכנים לשלם: <span id=""c_p_y""></span></p>","50","evaluation","45","14","4B,5A,13B,16B","75","36","50","","","","","","","","","","","","","","","",""
"","","","","","html-keyboard-response","233","392615","0.0-25.0-2.7","edf70186-0535-41d2-8843-3b95f3b54e9c","null","<p style=""text-align: center;"">+</p>","null","fixation","","","","","","","","","","","","","","","","","","","","","",""
"","","","","","html-slider-response","234","393622","0.0-25.0-0.8","edf70186-0535-41d2-8843-3b95f3b54e9c","1000","
                  <p style=""text-align: center;"">₪43
                                                <br>60%</p>
                  <p id=""wtp"" style=""text-align:center; margin-top: 0px; margin-bottom: 0px; font-size: 40px"";>&ensp;</p>","-","viewing","0","17","2A,7A,9A,15B","","","","","","","","","","","","","","","","","","",""
"","","","","","html-slider-response","235","395103","0.0-25.0-1.8","edf70186-0535-41d2-8843-3b95f3b54e9c","1479","
                  <p style=""text-align: center;"">₪43
                                                <br>60%</p>
                  <p id=""wtp"" style=""text-align:center; margin-top: 0px; margin-bottom: 0px; font-size: 40px"";>מוכנים לשלם: <span id=""c_p_y""></span></p>","43","evaluation","77","17","2A,7A,9A,15B","60","43","43","","","","","","","","","","","","","","","",""
"","","","","","html-keyboard-response","236","395663","0.0-25.0-2.8","edf70186-0535-41d2-8843-3b95f3b54e9c","null","<p style=""text-align: center;"">+</p>","null","fixation","","","","","","","","","","","","","","","","","","","","","",""
"","","","","","html-slider-response","237","396667","0.0-25.0-0.9","edf70186-0535-41d2-8843-3b95f3b54e9c","1000","
                  <p style=""text-align: center;"">₪11
                                                <br>45%</p>
                  <p id=""wtp"" style=""text-align:center; margin-top: 0px; margin-bottom: 0px; font-size: 40px"";>&ensp;</p>","-","viewing","0","6","14B,21C,25C","","","","","","","","","","","","","","","","","","",""
"","","","","","html-slider-response","238","397743","0.0-25.0-1.9","edf70186-0535-41d2-8843-3b95f3b54e9c","1074","
                  <p style=""text-align: center;"">₪11
                                                <br>45%</p>
                  <p id=""wtp"" style=""text-align:center; margin-top: 0px; margin-bottom: 0px; font-size: 40px"";>מוכנים לשלם: <span id=""c_p_y""></span></p>","0","evaluation","15","6","14B,21C,25C","45","11","0","","","","","","","","","","","","","","","",""
"","","","","","html-keyboard-response","239","398388","0.0-25.0-2.9","edf70186-0535-41d2-8843-3b95f3b54e9c","null","<p style=""text-align: center;"">+</p>","null","fixation","","","","","","","","","","","","","","","","","","","","","",""
"","","","","","html-slider-response","240","399393","0.0-25.0-0.10","edf70186-0535-41d2-8843-3b95f3b54e9c","1000","
                  <p style=""text-align: center;"">₪79
                                                <br>65%</p>
                  <p id=""wtp"" style=""text-align:center; margin-top: 0px; margin-bottom: 0px; font-size: 40px"";>&ensp;</p>","-","viewing","0","31","8A","","","","","","","","","","","","","","","","","","",""
"","","","","","html-slider-response","241","401495","0.0-25.0-1.10","edf70186-0535-41d2-8843-3b95f3b54e9c","2101","
                  <p style=""text-align: center;"">₪79
                                                <br>65%</p>
                  <p id=""wtp"" style=""text-align:center; margin-top: 0px; margin-bottom: 0px; font-size: 40px"";>מוכנים לשלם: <span id=""c_p_y""></span></p>","53","evaluation","58","31","8A","65","79","53","","","","","","","","","","","","","","","",""
"","","","","","html-keyboard-response","242","402540","0.0-25.0-2.10","edf70186-0535-41d2-8843-3b95f3b54e9c","null","<p style=""text-align: center;"">+</p>","null","fixation","","","","","","","","","","","","","","","","","","","","","",""
"","","","","","html-slider-response","243","403543","0.0-25.0-0.11","edf70186-0535-41d2-8843-3b95f3b54e9c","1000","
                  <p style=""text-align: center;"">₪11
                                                <br>20%</p>
                  <p id=""wtp"" style=""text-align:center; margin-top: 0px; margin-bottom: 0px; font-size: 40px"";>&ensp;</p>","-","viewing","0","4","12C,17C,23C,28C","","","","","","","","","","","","","","","","","","",""
"","","","","","html-slider-response","244","404511","0.0-25.0-1.11","edf70186-0535-41d2-8843-3b95f3b54e9c","967","
                  <p style=""text-align: center;"">₪11
                                                <br>20%</p>
                  <p id=""wtp"" style=""text-align:center; margin-top: 0px; margin-bottom: 0px; font-size: 40px"";>מוכנים לשלם: <span id=""c_p_y""></span></p>","0","evaluation","13","4","12C,17C,23C,28C","20","11","0","","","","","","","","","","","","","","","",""
"","","","","","html-keyboard-response","245","405570","0.0-25.0-2.11","edf70186-0535-41d2-8843-3b95f3b54e9c","null","<p style=""text-align: center;"">+</p>","null","fixation","","","","","","","","","","","","","","","","","","","","","",""
"","","","","","html-slider-response","246","406579","0.0-25.0-0.12","edf70186-0535-41d2-8843-3b95f3b54e9c","1000","
                  <p style=""text-align: center;"">₪61
                                                <br>55%</p>
                  <p id=""wtp"" style=""text-align:center; margin-top: 0px; margin-bottom: 0px; font-size: 40px"";>&ensp;</p>","-","viewing","0","23","7B,26B","","","","","","","","","","","","","","","","","","",""
"","","","","","html-slider-response","247","408679","0.0-25.0-1.12","edf70186-0535-41d2-8843-3b95f3b54e9c","2099","
                  <p style=""text-align: center;"">₪61
                                                <br>55%</p>
                  <p id=""wtp"" style=""text-align:center; margin-top: 0px; margin-bottom: 0px; font-size: 40px"";>מוכנים לשלם: <span id=""c_p_y""></span></p>","20","evaluation","23","23","7B,26B","55","61","20","","","","","","","","","","","","","","","",""
"","","","","","html-keyboard-response","248","409295","0.0-25.0-2.12","edf70186-0535-41d2-8843-3b95f3b54e9c","null","<p style=""text-align: center;"">+</p>","null","fixation","","","","","","","","","","","","","","","","","","","","","",""
"","","","","","html-slider-response","249","410297","0.0-25.0-0.13","edf70186-0535-41d2-8843-3b95f3b54e9c","1000","
                  <p style=""text-align: center;"">₪4
                                                <br>25%</p>
                  <p id=""wtp"" style=""text-align:center; margin-top: 0px; margin-bottom: 0px; font-size: 40px"";>&ensp;</p>","-","viewing","0","1","6C,29B,30C","","","","","","","","","","","","","","","","","","",""
"","","","","","html-slider-response","250","411902","0.0-25.0-1.13","edf70186-0535-41d2-8843-3b95f3b54e9c","1604","
                  <p style=""text-align: center;"">₪4
                                                <br>25%</p>
                  <p id=""wtp"" style=""text-align:center; margin-top: 0px; margin-bottom: 0px; font-size: 40px"";>מוכנים לשלם: <span id=""c_p_y""></span></p>","0","evaluation","73","1","6C,29B,30C","25","4","0","","","","","","","","","","","","","","","",""
