"success","timeout","failed_images","failed_audio","failed_video","trial_type","trial_index","time_elapsed","internal_node_id","subject_id","rt","stimulus","response","part","slider_start","ID","set_ID","prob","amount","last_location","actual_choice","actual_EV","binary_id","trinary_id","catch","A_key","D_key","choice_prob","choice_amount","chosen_part","won_prize","potential_prize_amount","potential_prize_prob","total_prize","accuracy"
"true","false","[]","[]","[]","preload","0","22","0.0-0.0","828dcae6-9f2a-4cba-b249-0a95d2887eea","","","","","","","","","","","","","","","","","","","","","","","","",""
"","","","","","html-keyboard-response","1","991846","0.0-1.0","828dcae6-9f2a-4cba-b249-0a95d2887eea","null","
          <h1>שלום וברוכים הבאים!</h1>
          <p>לפניכם ניסוי בקבלת החלטות עם שני חלקים.
          <br><br>לחצו על העכבר כדי להמשיך.</p>","0","example","","","","","","","","","","","","","","","","","","","","",""
"","","","","","html-keyboard-response","2","997493","0.0-2.0","828dcae6-9f2a-4cba-b249-0a95d2887eea","null","
        <h1>חלק 1</h1>
        <p>בקרוב יוצגו בפניכם הגרלות.
        <br>עליכם לבחור את המחיר המירבי שתהיו מוכנים לשלם כדי להשתתף בהגרלה שתוצג.
        <br>יש לכם תקציב של ₪80 לכל הגרלה. 
        <br>נסו להעריך כל הגרלה בנפרד ולחשוב כמה היא שווה עבורכם, ₪80 זמינים לכל הגרלה בנפרד.
        <br><br>לחצו על העכבר כדי להמשיך.</p>","1","instructions","","","","","","","","","","","","","","","","","","","","",""
"","","","","","html-keyboard-response","3","999069","0.0-3.0","828dcae6-9f2a-4cba-b249-0a95d2887eea","null","
        <p>בסוף הניסוי, המחשב יבחר את אחת ההגרלות ויקבע מחיר לכרטיס עבורה. 
        <br>במידה והמחיר שבחרתם נמוך מהמחיר שנבחר על ידי המחשב, לא תשתתפו בהגרלה ותשארו עם מלוא התקציב.
        <br>במידה והמחיר שבחרתם גבוה מהמחיר שנבחר על ידי המחשב, תשלמו את המחיר שנקבע ותשתתפו בהגרלה.
        <br><br>לחצו על העכבר כדי להמשיך.</p>","1","instructions","","","","","","","","","","","","","","","","","","","","",""
"","","","","","html-slider-response","4","1020733","0.0-4.0","828dcae6-9f2a-4cba-b249-0a95d2887eea","21547","
        <p style=""font-size: 42px;"">נתחיל עם דוגמא: 
        <br>ההגרלה מטה מציעה 65% סיכוי לזכות ב-₪40 
        <br>&emsp;&emsp;&emsp;&emsp;&emsp;&emsp;&emsp;&emsp;&ensp;35% סיכוי לזכות ב-₪0.
        <br><br>מה המחיר המירבי שתהיו מוכנים לשלם על כרטיס להגרלה זו בין 0 ל-₪80?
        <br>הזיזו את העכבר על פני המלבן ולחצו כדי לבצע בחירה.</p>
        
        <p style=""text-align: center;"">₪40<br>65%</p>

        <p id=""wtp"" style=""text-align:center; margin-top: 0px; margin-bottom: 0px; font-size: 40px"";>מוכנים לשלם: <span id=""c_p_y""></span></p>","20","example","16","","","","","","","","","","","","","","","","","","","",""
"","","","","","html-keyboard-response","5","1030437","0.0-5.0","828dcae6-9f2a-4cba-b249-0a95d2887eea","null","<p>יפה מאוד!
                <br> בחרתם שתהיו מוכנים לשלם ₪20 כדי להשתתף בהגרלה:
                <br><p style=""text-align: center;"">₪40<br>65%</p>
                <p>נשמע נכון?
                <br>נניח שהגרלה זו נבחרה בסוף הניסוי.
                <br>כעת המחשב יקבע מחיר עבורה באקראי.
                <br>לחצו על העכבר להמשך.</p>","1","example","","","","","","","","","","","","","","","","","","","","",""
"","","","","","html-keyboard-response","6","1042309","0.0-6.0","828dcae6-9f2a-4cba-b249-0a95d2887eea","null","<p>המחשב קבע מחיר: ₪48
                <br>ואתם בחרתם לשלם לכל היותר: ₪20
                <br><br>מכיוון שהמחיר שבחרתם נמוך מהמחיר שנקבע, לא תתשתתפו בהגרלה.
                <br>במקרה כזה, בסוף הניסוי תקבלו את כל התקציב ההתחלתי של ₪80.
                <br><br>לחצו על העכבר להמשך.</p>","1","example","","","","","","","","","","","","","","","","","","","","",""
"","","","","","html-slider-response","7","1049572","0.0-7.0","828dcae6-9f2a-4cba-b249-0a95d2887eea","7004","<p style=""font-size: 42px;"">הנה עוד דוגמא:
                <br>ההגרלה מטה מציעה 35% סיכוי לזכות ב-₪18 
                <br>&emsp;&emsp;&emsp;&emsp;&emsp;&emsp;&emsp;&emsp;&ensp;65% סיכוי לזכות ב-₪0.</p>
        
                <p style=""text-align: center;"">₪18<br>35%</p>
                <p id=""wtp"" style=""text-align:center; margin-top: 0px; margin-bottom: 0px; font-size: 40px"";>מוכנים לשלם: <span id=""c_p_y""></span></p>","5","example","12","","","","","","","","","","","","","","","","","","","",""
"","","","","","html-keyboard-response","8","1051597","0.0-8.0","828dcae6-9f2a-4cba-b249-0a95d2887eea","null","<p>הייתם מוכנים לשלם  ₪5 כדי להשתתף בהגרלה:
                <p style=""text-align: center;"">₪18<br>35%</p>
                <p>כעת נניח שהמחשב בחר את ההגרלה הזו בסוף הניסוי, וקבע עבורה מחיר.
                <br><br>לחצו על העכבר כדי להמשיך.</p>","1","instructions","","","","","","","","","","","","","","","","","","","","",""
"","","","","","html-keyboard-response","9","1057221","0.0-9.0","828dcae6-9f2a-4cba-b249-0a95d2887eea","null","<p>המחשב קבע מחיר להגרלה: ₪4<br>ואתם בחרתם לשלם לכל היותר: ₪5
                <br><br>כעת המחיר שנקבע נמוך מזה שבחרתם, אז תשלמו את המחיר שקבע המחשב (₪4) ותשתתפו בהגרלה.
                <br>במקרה כזה, תסיימו את הניסוי עם תקציב של ₪76 ועם סיכוי לזכות ב-₪18 נוספים מההגרלה.
                <br>כלומר, תוכלו לקבל ₪76 אם לא תזכו בהגרלה, או ₪94 אם תזכו בהגרלה.
                <br><br>לחצו על העכבר להמשך.</p>","1","example","","","","","","","","","","","","","","","","","","","","",""
"","","","","","html-keyboard-response","10","1074332","0.0-10.0","828dcae6-9f2a-4cba-b249-0a95d2887eea","null","<p>במהלך הניסוי, קודם תראו את ההגרלה ורק לאחר מכן תוכלו לבחור.
                <p>כמו כן, יהיו לכם מספר שניות מוגבל להגיב.
                <p>בואו ננסה זאת עם ההגרלה הקודמת.
                <br>לחצו על העכבר כדי להמשיך.</p>","1","instructions","","","","","","","","","","","","","","","","","","","","",""
"","","","","","html-slider-response","11","1075599","0.0-11.0","828dcae6-9f2a-4cba-b249-0a95d2887eea","1000","
                    <p style=""text-align: center;"">₪18<br>35%</p>
                    <p id=""wtp"" style=""text-align:center; margin-top: 0px; margin-bottom: 0px; font-size: 40px"";>&ensp;</p>","18","instructions","0","","","","","","","","","","","","","","","","","","","",""
"","","","","","html-slider-response","12","1079133","0.0-12.0","828dcae6-9f2a-4cba-b249-0a95d2887eea","3267","
                    <p style=""text-align: center;"">₪18<br>35%</p>
                    <p id=""wtp"" style=""text-align:center; margin-top: 0px; margin-bottom: 0px; font-size: 40px"";>מוכנים לשלם: <span id=""c_p_y""></span></p>","11","instructions","25","","","","","","","","","","","","","","","","","","","",""
"","","","","","html-keyboard-response","13","1084509","0.0-13.0","828dcae6-9f2a-4cba-b249-0a95d2887eea","null","<p>יפה. הפעם בחרתם לשלם לכל היותר ₪11.
                <br><br>לחצו על העכבר כדי להמשיך.</p>","1","instructions","","","","","","","","","","","","","","","","","","","","",""
"","","","","","html-keyboard-response","14","1090028","0.0-15.0","828dcae6-9f2a-4cba-b249-0a95d2887eea","null","<p>כעת נתחיל את הניסוי.
                <br><br>אתם תראו הגרלות ותתבקשו לבחור כמה תהיו מוכנים לשלם כדי להשתתף בהן.
                <br>יש לכם תקציב של ₪80 עבור כל הגרלה.
                <br>בסוף הניסוי הגרלה אחת תבחר באקראי ותשוחק.
                <br><br>לחצו על העכבר כדי להתחיל את הניסוי.</p>","1","instructions","","","","","","","","","","","","","","","","","","","","",""
"","","","","","html-keyboard-response","15","1091283","0.0-16.0","828dcae6-9f2a-4cba-b249-0a95d2887eea","null","<p style=""text-align: center;"">+</p>","null","fixation","","","","","","","","","","","","","","","","","","","","",""
"","","","","","html-slider-response","16","1092290","0.0-17.0-0.0","828dcae6-9f2a-4cba-b249-0a95d2887eea","1000","
                  <p style=""text-align: center;"">₪11
                                                <br>20%</p>
                  <p id=""wtp"" style=""text-align:center; margin-top: 0px; margin-bottom: 0px; font-size: 40px"";>&ensp;</p>","-","viewing","0","4","12C,17C,23C,28C","","","","","","","","","","","","","","","","","",""
"","","","","","html-slider-response","17","1095165","0.0-17.0-1.0","828dcae6-9f2a-4cba-b249-0a95d2887eea","2873","
                  <p style=""text-align: center;"">₪11
                                                <br>20%</p>
                  <p id=""wtp"" style=""text-align:center; margin-top: 0px; margin-bottom: 0px; font-size: 40px"";>מוכנים לשלם: <span id=""c_p_y""></span></p>","4","evaluation","39","4","12C,17C,23C,28C","20","11","4","","","","","","","","","","","","","","",""
"","","","","","html-keyboard-response","18","1096194","0.0-17.0-2.0","828dcae6-9f2a-4cba-b249-0a95d2887eea","null","<p style=""text-align: center;"">+</p>","null","fixation","","","","","","","","","","","","","","","","","","","","",""
"","","","","","html-slider-response","19","1097207","0.0-17.0-0.1","828dcae6-9f2a-4cba-b249-0a95d2887eea","1000","
                  <p style=""text-align: center;"">₪36
                                                <br>70%</p>
                  <p id=""wtp"" style=""text-align:center; margin-top: 0px; margin-bottom: 0px; font-size: 40px"";>&ensp;</p>","-","viewing","0","13","3A,5C,10B","","","","","","","","","","","","","","","","","",""
"","","","","","html-slider-response","20","1101215","0.0-17.0-1.1","828dcae6-9f2a-4cba-b249-0a95d2887eea","null","
                  <p style=""text-align: center;"">₪36
                                                <br>70%</p>
                  <p id=""wtp"" style=""text-align:center; margin-top: 0px; margin-bottom: 0px; font-size: 40px"";>מוכנים לשלם: <span id=""c_p_y""></span></p>","null","evaluation","4","13","3A,5C,10B","70","36","16","","","","","","","","","","","","","","",""
"","","","","","html-keyboard-response","21","1102519","0.0-17.0-2.1","828dcae6-9f2a-4cba-b249-0a95d2887eea","null","<p style=""text-align: center;"">+</p>","null","fixation","","","","","","","","","","","","","","","","","","","","",""
"","","","","","html-slider-response","22","1103531","0.0-17.0-0.2","828dcae6-9f2a-4cba-b249-0a95d2887eea","1000","
                  <p style=""text-align: center;"">₪4
                                                <br>25%</p>
                  <p id=""wtp"" style=""text-align:center; margin-top: 0px; margin-bottom: 0px; font-size: 40px"";>&ensp;</p>","-","viewing","0","1","6C,29B,30C","","","","","","","","","","","","","","","","","",""
"","","","","","html-slider-response","23","1104749","0.0-17.0-1.2","828dcae6-9f2a-4cba-b249-0a95d2887eea","1217","
                  <p style=""text-align: center;"">₪4
                                                <br>25%</p>
                  <p id=""wtp"" style=""text-align:center; margin-top: 0px; margin-bottom: 0px; font-size: 40px"";>מוכנים לשלם: <span id=""c_p_y""></span></p>","0","evaluation","70","1","6C,29B,30C","25","4","0","","","","","","","","","","","","","","",""
"","","","","","html-keyboard-response","24","1105719","0.0-17.0-2.2","828dcae6-9f2a-4cba-b249-0a95d2887eea","null","<p style=""text-align: center;"">+</p>","null","fixation","","","","","","","","","","","","","","","","","","","","",""
"","","","","","html-slider-response","25","1106726","0.0-17.0-0.3","828dcae6-9f2a-4cba-b249-0a95d2887eea","1000","
                  <p style=""text-align: center;"">₪79
                                                <br>65%</p>
                  <p id=""wtp"" style=""text-align:center; margin-top: 0px; margin-bottom: 0px; font-size: 40px"";>&ensp;</p>","-","viewing","0","31","8A","","","","","","","","","","","","","","","","","",""
"","","","","","html-slider-response","26","1108701","0.0-17.0-1.3","828dcae6-9f2a-4cba-b249-0a95d2887eea","1974","
                  <p style=""text-align: center;"">₪79
                                                <br>65%</p>
                  <p id=""wtp"" style=""text-align:center; margin-top: 0px; margin-bottom: 0px; font-size: 40px"";>מוכנים לשלם: <span id=""c_p_y""></span></p>","29","evaluation","8","31","8A","65","79","29","","","","","","","","","","","","","","",""
"","","","","","html-keyboard-response","27","1109566","0.0-17.0-2.3","828dcae6-9f2a-4cba-b249-0a95d2887eea","null","<p style=""text-align: center;"">+</p>","null","fixation","","","","","","","","","","","","","","","","","","","","",""
"","","","","","html-slider-response","28","1110583","0.0-17.0-0.4","828dcae6-9f2a-4cba-b249-0a95d2887eea","1000","
                  <p style=""text-align: center;"">₪11
                                                <br>75%</p>
                  <p id=""wtp"" style=""text-align:center; margin-top: 0px; margin-bottom: 0px; font-size: 40px"";>&ensp;</p>","-","viewing","0","7","6B,18B,22C,24C,29A","","","","","","","","","","","","","","","","","",""
"","","","","","html-slider-response","29","1112060","0.0-17.0-1.4","828dcae6-9f2a-4cba-b249-0a95d2887eea","1476","
                  <p style=""text-align: center;"">₪11
                                                <br>75%</p>
                  <p id=""wtp"" style=""text-align:center; margin-top: 0px; margin-bottom: 0px; font-size: 40px"";>מוכנים לשלם: <span id=""c_p_y""></span></p>","8","evaluation","0","7","6B,18B,22C,24C,29A","75","11","8","","","","","","","","","","","","","","",""
"","","","","","html-keyboard-response","30","1113227","0.0-17.0-2.4","828dcae6-9f2a-4cba-b249-0a95d2887eea","null","<p style=""text-align: center;"">+</p>","null","fixation","","","","","","","","","","","","","","","","","","","","",""
"","","","","","html-slider-response","31","1114233","0.0-17.0-0.5","828dcae6-9f2a-4cba-b249-0a95d2887eea","1000","
                  <p style=""text-align: center;"">₪4
                                                <br>75%</p>
                  <p id=""wtp"" style=""text-align:center; margin-top: 0px; margin-bottom: 0px; font-size: 40px"";>&ensp;</p>","-","viewing","0","3","12B,20B,23B,27C,29C","","","","","","","","","","","","","","","","","",""
"","","","","","html-slider-response","32","1117052","0.0-17.0-1.5","828dcae6-9f2a-4cba-b249-0a95d2887eea","2819","
                  <p style=""text-align: center;"">₪4
                                                <br>75%</p>
                  <p id=""wtp"" style=""text-align:center; margin-top: 0px; margin-bottom: 0px; font-size: 40px"";>מוכנים לשלם: <span id=""c_p_y""></span></p>","2","evaluation","59","3","12B,20B,23B,27C,29C","75","4","2","","","","","","","","","","","","","","",""
"","","","","","html-keyboard-response","33","1117877","0.0-17.0-2.5","828dcae6-9f2a-4cba-b249-0a95d2887eea","null","<p style=""text-align: center;"">+</p>","null","fixation","","","","","","","","","","","","","","","","","","","","",""
"","","","","","html-slider-response","34","1118889","0.0-17.0-0.6","828dcae6-9f2a-4cba-b249-0a95d2887eea","1000","
                  <p style=""text-align: center;"">₪58
                                                <br>30%</p>
                  <p id=""wtp"" style=""text-align:center; margin-top: 0px; margin-bottom: 0px; font-size: 40px"";>&ensp;</p>","-","viewing","0","19","13C,30A","","","","","","","","","","","","","","","","","",""
"","","","","","html-slider-response","35","1121764","0.0-17.0-1.6","828dcae6-9f2a-4cba-b249-0a95d2887eea","2874","
                  <p style=""text-align: center;"">₪58
                                                <br>30%</p>
                  <p id=""wtp"" style=""text-align:center; margin-top: 0px; margin-bottom: 0px; font-size: 40px"";>מוכנים לשלם: <span id=""c_p_y""></span></p>","6","evaluation","77","19","13C,30A","30","58","6","","","","","","","","","","","","","","",""
"","","","","","html-keyboard-response","36","1122431","0.0-17.0-2.6","828dcae6-9f2a-4cba-b249-0a95d2887eea","null","<p style=""text-align: center;"">+</p>","null","fixation","","","","","","","","","","","","","","","","","","","","",""
"","","","","","html-slider-response","37","1123446","0.0-17.0-0.7","828dcae6-9f2a-4cba-b249-0a95d2887eea","1000","
                  <p style=""text-align: center;"">₪16
                                                <br>20%</p>
                  <p id=""wtp"" style=""text-align:center; margin-top: 0px; margin-bottom: 0px; font-size: 40px"";>&ensp;</p>","-","viewing","0","8","14C,17A,20C,27A","","","","","","","","","","","","","","","","","",""
"","","","","","html-slider-response","38","1126812","0.0-17.0-1.7","828dcae6-9f2a-4cba-b249-0a95d2887eea","3365","
                  <p style=""text-align: center;"">₪16
                                                <br>20%</p>
                  <p id=""wtp"" style=""text-align:center; margin-top: 0px; margin-bottom: 0px; font-size: 40px"";>מוכנים לשלם: <span id=""c_p_y""></span></p>","8","evaluation","49","8","14C,17A,20C,27A","20","16","8","","","","","","","","","","","","","","",""
"","","","","","html-keyboard-response","39","1127932","0.0-17.0-2.7","828dcae6-9f2a-4cba-b249-0a95d2887eea","null","<p style=""text-align: center;"">+</p>","null","fixation","","","","","","","","","","","","","","","","","","","","",""
"","","","","","html-slider-response","40","1128935","0.0-17.0-0.8","828dcae6-9f2a-4cba-b249-0a95d2887eea","1000","
                  <p style=""text-align: center;"">₪58
                                                <br>40%</p>
                  <p id=""wtp"" style=""text-align:center; margin-top: 0px; margin-bottom: 0px; font-size: 40px"";>&ensp;</p>","-","viewing","0","20","10C,13A,19C,21B","","","","","","","","","","","","","","","","","",""
"","","","","","html-slider-response","41","1130468","0.0-17.0-1.8","828dcae6-9f2a-4cba-b249-0a95d2887eea","1532","
                  <p style=""text-align: center;"">₪58
                                                <br>40%</p>
                  <p id=""wtp"" style=""text-align:center; margin-top: 0px; margin-bottom: 0px; font-size: 40px"";>מוכנים לשלם: <span id=""c_p_y""></span></p>","19","evaluation","60","20","10C,13A,19C,21B","40","58","19","","","","","","","","","","","","","","",""
"","","","","","html-keyboard-response","42","1131388","0.0-17.0-2.8","828dcae6-9f2a-4cba-b249-0a95d2887eea","null","<p style=""text-align: center;"">+</p>","null","fixation","","","","","","","","","","","","","","","","","","","","",""
"","","","","","html-slider-response","43","1132398","0.0-17.0-0.9","828dcae6-9f2a-4cba-b249-0a95d2887eea","1000","
                  <p style=""text-align: center;"">₪79
                                                <br>40%</p>
                  <p id=""wtp"" style=""text-align:center; margin-top: 0px; margin-bottom: 0px; font-size: 40px"";>&ensp;</p>","-","viewing","0","30","9B","","","","","","","","","","","","","","","","","",""
"","","","","","html-slider-response","44","1136389","0.0-17.0-1.9","828dcae6-9f2a-4cba-b249-0a95d2887eea","3990","
                  <p style=""text-align: center;"">₪79
                                                <br>40%</p>
                  <p id=""wtp"" style=""text-align:center; margin-top: 0px; margin-bottom: 0px; font-size: 40px"";>מוכנים לשלם: <span id=""c_p_y""></span></p>","18","evaluation","18","30","9B","40","79","18","","","","","","","","","","","","","","",""
"","","","","","html-keyboard-response","45","1137038","0.0-17.0-2.9","828dcae6-9f2a-4cba-b249-0a95d2887eea","null","<p style=""text-align: center;"">+</p>","null","fixation","","","","","","","","","","","","","","","","","","","","",""
"","","","","","html-slider-response","46","1138040","0.0-17.0-0.10","828dcae6-9f2a-4cba-b249-0a95d2887eea","1000","
                  <p style=""text-align: center;"">₪18
                                                <br>50%</p>
                  <p id=""wtp"" style=""text-align:center; margin-top: 0px; margin-bottom: 0px; font-size: 40px"";>&ensp;</p>","-","viewing","0","10","2C,16C,22B,28A","","","","","","","","","","","","","","","","","",""
"","","","","","html-slider-response","47","1139692","0.0-17.0-1.10","828dcae6-9f2a-4cba-b249-0a95d2887eea","1651","
                  <p style=""text-align: center;"">₪18
                                                <br>50%</p>
                  <p id=""wtp"" style=""text-align:center; margin-top: 0px; margin-bottom: 0px; font-size: 40px"";>מוכנים לשלם: <span id=""c_p_y""></span></p>","6","evaluation","29","10","2C,16C,22B,28A","50","18","6","","","","","","","","","","","","","","",""
"","","","","","html-keyboard-response","48","1140677","0.0-17.0-2.10","828dcae6-9f2a-4cba-b249-0a95d2887eea","null","<p style=""text-align: center;"">+</p>","null","fixation","","","","","","","","","","","","","","","","","","","","",""
"","","","","","html-slider-response","49","1141691","0.0-17.0-0.11","828dcae6-9f2a-4cba-b249-0a95d2887eea","1000","
                  <p style=""text-align: center;"">₪4
                                                <br>50%</p>
                  <p id=""wtp"" style=""text-align:center; margin-top: 0px; margin-bottom: 0px; font-size: 40px"";>&ensp;</p>","-","viewing","0","2","4C,17B","","","","","","","","","","","","","","","","","",""
"","","","","","html-slider-response","50","1145044","0.0-17.0-1.11","828dcae6-9f2a-4cba-b249-0a95d2887eea","3352","
                  <p style=""text-align: center;"">₪4
                                                <br>50%</p>
                  <p id=""wtp"" style=""text-align:center; margin-top: 0px; margin-bottom: 0px; font-size: 40px"";>מוכנים לשלם: <span id=""c_p_y""></span></p>","2","evaluation","25","2","4C,17B","50","4","2","","","","","","","","","","","","","","",""
"","","","","","html-keyboard-response","51","1146201","0.0-17.0-2.11","828dcae6-9f2a-4cba-b249-0a95d2887eea","null","<p style=""text-align: center;"">+</p>","null","fixation","","","","","","","","","","","","","","","","","","","","",""
"","","","","","html-slider-response","52","1147212","0.0-17.0-0.12","828dcae6-9f2a-4cba-b249-0a95d2887eea","1000","
                  <p style=""text-align: center;"">₪39
                                                <br>65%</p>
                  <p id=""wtp"" style=""text-align:center; margin-top: 0px; margin-bottom: 0px; font-size: 40px"";>&ensp;</p>","-","viewing","0","16","1A,15A,26C","","","","","","","","","","","","","","","","","",""
"","","","","","html-slider-response","53","1149796","0.0-17.0-1.12","828dcae6-9f2a-4cba-b249-0a95d2887eea","2584","
                  <p style=""text-align: center;"">₪39
                                                <br>65%</p>
                  <p id=""wtp"" style=""text-align:center; margin-top: 0px; margin-bottom: 0px; font-size: 40px"";>מוכנים לשלם: <span id=""c_p_y""></span></p>","20","evaluation","31","16","1A,15A,26C","65","39","20","","","","","","","","","","","","","","",""
"","","","","","html-keyboard-response","54","1150513","0.0-17.0-2.12","828dcae6-9f2a-4cba-b249-0a95d2887eea","null","<p style=""text-align: center;"">+</p>","null","fixation","","","","","","","","","","","","","","","","","","","","",""
"","","","","","html-slider-response","55","1151521","0.0-17.0-0.13","828dcae6-9f2a-4cba-b249-0a95d2887eea","1000","
                  <p style=""text-align: center;"">₪36
                                                <br>60%</p>
                  <p id=""wtp"" style=""text-align:center; margin-top: 0px; margin-bottom: 0px; font-size: 40px"";>&ensp;</p>","-","viewing","0","12","1C,7C,15C","","","","","","","","","","","","","","","","","",""
"","","","","","html-slider-response","56","1153276","0.0-17.0-1.13","828dcae6-9f2a-4cba-b249-0a95d2887eea","1754","
                  <p style=""text-align: center;"">₪36
                                                <br>60%</p>
                  <p id=""wtp"" style=""text-align:center; margin-top: 0px; margin-bottom: 0px; font-size: 40px"";>מוכנים לשלם: <span id=""c_p_y""></span></p>","20","evaluation","71","12","1C,7C,15C","60","36","20","","","","","","","","","","","","","","",""
"","","","","","html-keyboard-response","57","1154659","0.0-17.0-2.13","828dcae6-9f2a-4cba-b249-0a95d2887eea","null","<p style=""text-align: center;"">+</p>","null","fixation","","","","","","","","","","","","","","","","","","","","",""
"","","","","","html-slider-response","58","1155663","0.0-17.0-0.14","828dcae6-9f2a-4cba-b249-0a95d2887eea","1000","
                  <p style=""text-align: center;"">₪18
                                                <br>25%</p>
                  <p id=""wtp"" style=""text-align:center; margin-top: 0px; margin-bottom: 0px; font-size: 40px"";>&ensp;</p>","-","viewing","0","9","14A,23A","","","","","","","","","","","","","","","","","",""
"","","","","","html-slider-response","59","1158836","0.0-17.0-1.14","828dcae6-9f2a-4cba-b249-0a95d2887eea","3172","
                  <p style=""text-align: center;"">₪18
                                                <br>25%</p>
                  <p id=""wtp"" style=""text-align:center; margin-top: 0px; margin-bottom: 0px; font-size: 40px"";>מוכנים לשלם: <span id=""c_p_y""></span></p>","5","evaluation","78","9","14A,23A","25","18","5","","","","","","","","","","","","","","",""
"","","","","","html-keyboard-response","60","1159579","0.0-17.0-2.14","828dcae6-9f2a-4cba-b249-0a95d2887eea","null","<p style=""text-align: center;"">+</p>","null","fixation","","","","","","","","","","","","","","","","","","","","",""
"","","","","","html-slider-response","61","1160581","0.0-17.0-0.15","828dcae6-9f2a-4cba-b249-0a95d2887eea","1000","
                  <p style=""text-align: center;"">₪58
                                                <br>45%</p>
                  <p id=""wtp"" style=""text-align:center; margin-top: 0px; margin-bottom: 0px; font-size: 40px"";>&ensp;</p>","-","viewing","0","21","11C,18C,25A","","","","","","","","","","","","","","","","","",""
"","","","","","html-slider-response","62","1163996","0.0-17.0-1.15","828dcae6-9f2a-4cba-b249-0a95d2887eea","3414","
                  <p style=""text-align: center;"">₪58
                                                <br>45%</p>
                  <p id=""wtp"" style=""text-align:center; margin-top: 0px; margin-bottom: 0px; font-size: 40px"";>מוכנים לשלם: <span id=""c_p_y""></span></p>","9","evaluation","59","21","11C,18C,25A","45","58","9","","","","","","","","","","","","","","",""
"","","","","","html-keyboard-response","63","1164646","0.0-17.0-2.15","828dcae6-9f2a-4cba-b249-0a95d2887eea","null","<p style=""text-align: center;"">+</p>","null","fixation","","","","","","","","","","","","","","","","","","","","",""
"","","","","","html-slider-response","64","1165653","0.0-17.0-0.16","828dcae6-9f2a-4cba-b249-0a95d2887eea","1000","
                  <p style=""text-align: center;"">₪71
                                                <br>75%</p>
                  <p id=""wtp"" style=""text-align:center; margin-top: 0px; margin-bottom: 0px; font-size: 40px"";>&ensp;</p>","-","viewing","0","28","8B","","","","","","","","","","","","","","","","","",""
"","","","","","html-slider-response","65","1168492","0.0-17.0-1.16","828dcae6-9f2a-4cba-b249-0a95d2887eea","2839","
                  <p style=""text-align: center;"">₪71
                                                <br>75%</p>
                  <p id=""wtp"" style=""text-align:center; margin-top: 0px; margin-bottom: 0px; font-size: 40px"";>מוכנים לשלם: <span id=""c_p_y""></span></p>","35","evaluation","33","28","8B","75","71","35","","","","","","","","","","","","","","",""
"","","","","","html-keyboard-response","66","1169338","0.0-17.0-2.16","828dcae6-9f2a-4cba-b249-0a95d2887eea","null","<p style=""text-align: center;"">+</p>","null","fixation","","","","","","","","","","","","","","","","","","","","",""
"","","","","","html-slider-response","67","1170342","0.0-17.0-0.17","828dcae6-9f2a-4cba-b249-0a95d2887eea","1000","
                  <p style=""text-align: center;"">₪11
                                                <br>45%</p>
                  <p id=""wtp"" style=""text-align:center; margin-top: 0px; margin-bottom: 0px; font-size: 40px"";>&ensp;</p>","-","viewing","0","6","14B,21C,25C","","","","","","","","","","","","","","","","","",""
"","","","","","html-slider-response","68","1173540","0.0-17.0-1.17","828dcae6-9f2a-4cba-b249-0a95d2887eea","3197","
                  <p style=""text-align: center;"">₪11
                                                <br>45%</p>
                  <p id=""wtp"" style=""text-align:center; margin-top: 0px; margin-bottom: 0px; font-size: 40px"";>מוכנים לשלם: <span id=""c_p_y""></span></p>","4","evaluation","10","6","14B,21C,25C","45","11","4","","","","","","","","","","","","","","",""
"","","","","","html-keyboard-response","69","1174301","0.0-17.0-2.17","828dcae6-9f2a-4cba-b249-0a95d2887eea","null","<p style=""text-align: center;"">+</p>","null","fixation","","","","","","","","","","","","","","","","","","","","",""
"","","","","","html-slider-response","70","1175314","0.0-17.0-0.18","828dcae6-9f2a-4cba-b249-0a95d2887eea","1000","
                  <p style=""text-align: center;"">₪36
                                                <br>30%</p>
                  <p id=""wtp"" style=""text-align:center; margin-top: 0px; margin-bottom: 0px; font-size: 40px"";>&ensp;</p>","-","viewing","0","11","3C,20A,22A","","","","","","","","","","","","","","","","","",""
"","","","","","html-slider-response","71","1176668","0.0-17.0-1.18","828dcae6-9f2a-4cba-b249-0a95d2887eea","1353","
                  <p style=""text-align: center;"">₪36
                                                <br>30%</p>
                  <p id=""wtp"" style=""text-align:center; margin-top: 0px; margin-bottom: 0px; font-size: 40px"";>מוכנים לשלם: <span id=""c_p_y""></span></p>","9","evaluation","70","11","3C,20A,22A","30","36","9","","","","","","","","","","","","","","",""
"","","","","","html-keyboard-response","72","1177748","0.0-17.0-2.18","828dcae6-9f2a-4cba-b249-0a95d2887eea","null","<p style=""text-align: center;"">+</p>","null","fixation","","","","","","","","","","","","","","","","","","","","",""
"","","","","","html-slider-response","73","1178750","0.0-17.0-0.19","828dcae6-9f2a-4cba-b249-0a95d2887eea","1000","
                  <p style=""text-align: center;"">₪71
                                                <br>55%</p>
                  <p id=""wtp"" style=""text-align:center; margin-top: 0px; margin-bottom: 0px; font-size: 40px"";>&ensp;</p>","-","viewing","0","27","5B,18A","","","","","","","","","","","","","","","","","",""
"","","","","","html-slider-response","74","1180548","0.0-17.0-1.19","828dcae6-9f2a-4cba-b249-0a95d2887eea","1797","
                  <p style=""text-align: center;"">₪71
                                                <br>55%</p>
                  <p id=""wtp"" style=""text-align:center; margin-top: 0px; margin-bottom: 0px; font-size: 40px"";>מוכנים לשלם: <span id=""c_p_y""></span></p>","33","evaluation","17","27","5B,18A","55","71","33","","","","","","","","","","","","","","",""
"","","","","","html-keyboard-response","75","1181717","0.0-17.0-2.19","828dcae6-9f2a-4cba-b249-0a95d2887eea","null","<p style=""text-align: center;"">+</p>","null","fixation","","","","","","","","","","","","","","","","","","","","",""
"","","","","","html-slider-response","76","1182731","0.0-17.0-0.20","828dcae6-9f2a-4cba-b249-0a95d2887eea","1000","
                  <p style=""text-align: center;"">₪64
                                                <br>50%</p>
                  <p id=""wtp"" style=""text-align:center; margin-top: 0px; margin-bottom: 0px; font-size: 40px"";>&ensp;</p>","-","viewing","0","25","1B,3B,4A","","","","","","","","","","","","","","","","","",""
"","","","","","html-slider-response","77","1184540","0.0-17.0-1.20","828dcae6-9f2a-4cba-b249-0a95d2887eea","1808","
                  <p style=""text-align: center;"">₪64
                                                <br>50%</p>
                  <p id=""wtp"" style=""text-align:center; margin-top: 0px; margin-bottom: 0px; font-size: 40px"";>מוכנים לשלם: <span id=""c_p_y""></span></p>","26","evaluation","15","25","1B,3B,4A","50","64","26","","","","","","","","","","","","","","",""
"","","","","","html-keyboard-response","78","1185852","0.0-17.0-2.20","828dcae6-9f2a-4cba-b249-0a95d2887eea","null","<p style=""text-align: center;"">+</p>","null","fixation","","","","","","","","","","","","","","","","","","","","",""
"","","","","","html-slider-response","79","1186854","0.0-17.0-0.21","828dcae6-9f2a-4cba-b249-0a95d2887eea","1000","
                  <p style=""text-align: center;"">₪76
                                                <br>65%</p>
                  <p id=""wtp"" style=""text-align:center; margin-top: 0px; margin-bottom: 0px; font-size: 40px"";>&ensp;</p>","-","viewing","0","29","8C,19A,24B","","","","","","","","","","","","","","","","","",""
"","","","","","html-slider-response","80","1188564","0.0-17.0-1.21","828dcae6-9f2a-4cba-b249-0a95d2887eea","1709","
                  <p style=""text-align: center;"">₪76
                                                <br>65%</p>
                  <p id=""wtp"" style=""text-align:center; margin-top: 0px; margin-bottom: 0px; font-size: 40px"";>מוכנים לשלם: <span id=""c_p_y""></span></p>","34","evaluation","58","29","8C,19A,24B","65","76","34","","","","","","","","","","","","","","",""
"","","","","","html-keyboard-response","81","1189856","0.0-17.0-2.21","828dcae6-9f2a-4cba-b249-0a95d2887eea","null","<p style=""text-align: center;"">+</p>","null","fixation","","","","","","","","","","","","","","","","","","","","",""
"","","","","","html-slider-response","82","1190861","0.0-17.0-0.22","828dcae6-9f2a-4cba-b249-0a95d2887eea","1000","
                  <p style=""text-align: center;"">₪64
                                                <br>25%</p>
                  <p id=""wtp"" style=""text-align:center; margin-top: 0px; margin-bottom: 0px; font-size: 40px"";>&ensp;</p>","-","viewing","0","24","6A,21A","","","","","","","","","","","","","","","","","",""
"","","","","","html-slider-response","83","1192532","0.0-17.0-1.22","828dcae6-9f2a-4cba-b249-0a95d2887eea","1670","
                  <p style=""text-align: center;"">₪64
                                                <br>25%</p>
                  <p id=""wtp"" style=""text-align:center; margin-top: 0px; margin-bottom: 0px; font-size: 40px"";>מוכנים לשלם: <span id=""c_p_y""></span></p>","19","evaluation","70","24","6A,21A","25","64","19","","","","","","","","","","","","","","",""
"","","","","","html-keyboard-response","84","1193863","0.0-17.0-2.22","828dcae6-9f2a-4cba-b249-0a95d2887eea","null","<p style=""text-align: center;"">+</p>","null","fixation","","","","","","","","","","","","","","","","","","","","",""
"","","","","","html-slider-response","85","1194865","0.0-17.0-0.23","828dcae6-9f2a-4cba-b249-0a95d2887eea","1000","
                  <p style=""text-align: center;"">₪71
                                                <br>45%</p>
                  <p id=""wtp"" style=""text-align:center; margin-top: 0px; margin-bottom: 0px; font-size: 40px"";>&ensp;</p>","-","viewing","0","26","2B,16A","","","","","","","","","","","","","","","","","",""
"","","","","","html-slider-response","86","1196116","0.0-17.0-1.23","828dcae6-9f2a-4cba-b249-0a95d2887eea","1251","
                  <p style=""text-align: center;"">₪71
                                                <br>45%</p>
                  <p id=""wtp"" style=""text-align:center; margin-top: 0px; margin-bottom: 0px; font-size: 40px"";>מוכנים לשלם: <span id=""c_p_y""></span></p>","33","evaluation","16","26","2B,16A","45","71","33","","","","","","","","","","","","","","",""
"","","","","","html-keyboard-response","87","1197237","0.0-17.0-2.23","828dcae6-9f2a-4cba-b249-0a95d2887eea","null","<p style=""text-align: center;"">+</p>","null","fixation","","","","","","","","","","","","","","","","","","","","",""
"","","","","","html-slider-response","88","1198245","0.0-17.0-0.24","828dcae6-9f2a-4cba-b249-0a95d2887eea","1000","
                  <p style=""text-align: center;"">₪61
                                                <br>55%</p>
                  <p id=""wtp"" style=""text-align:center; margin-top: 0px; margin-bottom: 0px; font-size: 40px"";>&ensp;</p>","-","viewing","0","23","7B,26B","","","","","","","","","","","","","","","","","",""
"","","","","","html-slider-response","89","1199948","0.0-17.0-1.24","828dcae6-9f2a-4cba-b249-0a95d2887eea","1702","
                  <p style=""text-align: center;"">₪61
                                                <br>55%</p>
                  <p id=""wtp"" style=""text-align:center; margin-top: 0px; margin-bottom: 0px; font-size: 40px"";>מוכנים לשלם: <span id=""c_p_y""></span></p>","30","evaluation","6","23","7B,26B","55","61","30","","","","","","","","","","","","","","",""
"","","","","","html-keyboard-response","90","1201335","0.0-17.0-2.24","828dcae6-9f2a-4cba-b249-0a95d2887eea","null","<p style=""text-align: center;"">+</p>","null","fixation","","","","","","","","","","","","","","","","","","","","",""
"","","","","","html-slider-response","91","1202343","0.0-17.0-0.25","828dcae6-9f2a-4cba-b249-0a95d2887eea","1000","
                  <p style=""text-align: center;"">₪61
                                                <br>45%</p>
                  <p id=""wtp"" style=""text-align:center; margin-top: 0px; margin-bottom: 0px; font-size: 40px"";>&ensp;</p>","-","viewing","0","22","10A,11A","","","","","","","","","","","","","","","","","",""
"","","","","","html-slider-response","92","1206359","0.0-17.0-1.25","828dcae6-9f2a-4cba-b249-0a95d2887eea","null","
                  <p style=""text-align: center;"">₪61
                                                <br>45%</p>
                  <p id=""wtp"" style=""text-align:center; margin-top: 0px; margin-bottom: 0px; font-size: 40px"";>מוכנים לשלם: <span id=""c_p_y""></span></p>","null","evaluation","34","22","10A,11A","45","61","28","","","","","","","","","","","","","","",""
"","","","","","html-keyboard-response","93","1207834","0.0-17.0-2.25","828dcae6-9f2a-4cba-b249-0a95d2887eea","null","<p style=""text-align: center;"">+</p>","null","fixation","","","","","","","","","","","","","","","","","","","","",""
"","","","","","html-slider-response","94","1208848","0.0-17.0-0.26","828dcae6-9f2a-4cba-b249-0a95d2887eea","1000","
                  <p style=""text-align: center;"">₪39
                                                <br>60%</p>
                  <p id=""wtp"" style=""text-align:center; margin-top: 0px; margin-bottom: 0px; font-size: 40px"";>&ensp;</p>","-","viewing","0","15","9C,25B","","","","","","","","","","","","","","","","","",""
"","","","","","html-slider-response","95","1212220","0.0-17.0-1.26","828dcae6-9f2a-4cba-b249-0a95d2887eea","3372","
                  <p style=""text-align: center;"">₪39
                                                <br>60%</p>
                  <p id=""wtp"" style=""text-align:center; margin-top: 0px; margin-bottom: 0px; font-size: 40px"";>מוכנים לשלם: <span id=""c_p_y""></span></p>","21","evaluation","65","15","9C,25B","60","39","21","","","","","","","","","","","","","","",""
"","","","","","html-keyboard-response","96","1213502","0.0-17.0-2.26","828dcae6-9f2a-4cba-b249-0a95d2887eea","null","<p style=""text-align: center;"">+</p>","null","fixation","","","","","","","","","","","","","","","","","","","","",""
"","","","","","html-slider-response","97","1214505","0.0-17.0-0.27","828dcae6-9f2a-4cba-b249-0a95d2887eea","1000","
                  <p style=""text-align: center;"">₪43
                                                <br>75%</p>
                  <p id=""wtp"" style=""text-align:center; margin-top: 0px; margin-bottom: 0px; font-size: 40px"";>&ensp;</p>","-","viewing","0","18","11B,19B,24A,26A","","","","","","","","","","","","","","","","","",""
"","","","","","html-slider-response","98","1217428","0.0-17.0-1.27","828dcae6-9f2a-4cba-b249-0a95d2887eea","2923","
                  <p style=""text-align: center;"">₪43
                                                <br>75%</p>
                  <p id=""wtp"" style=""text-align:center; margin-top: 0px; margin-bottom: 0px; font-size: 40px"";>מוכנים לשלם: <span id=""c_p_y""></span></p>","33","evaluation","11","18","11B,19B,24A,26A","75","43","33","","","","","","","","","","","","","","",""
"","","","","","html-keyboard-response","99","1218848","0.0-17.0-2.27","828dcae6-9f2a-4cba-b249-0a95d2887eea","null","<p style=""text-align: center;"">+</p>","null","fixation","","","","","","","","","","","","","","","","","","","","",""
"","","","","","html-slider-response","100","1219859","0.0-17.0-0.28","828dcae6-9f2a-4cba-b249-0a95d2887eea","1000","
                  <p style=""text-align: center;"">₪36
                                                <br>75%</p>
                  <p id=""wtp"" style=""text-align:center; margin-top: 0px; margin-bottom: 0px; font-size: 40px"";>&ensp;</p>","-","viewing","0","14","4B,5A,13B,16B","","","","","","","","","","","","","","","","","",""
"","","","","","html-slider-response","101","1222388","0.0-17.0-1.28","828dcae6-9f2a-4cba-b249-0a95d2887eea","2529","
                  <p style=""text-align: center;"">₪36
                                                <br>75%</p>
                  <p id=""wtp"" style=""text-align:center; margin-top: 0px; margin-bottom: 0px; font-size: 40px"";>מוכנים לשלם: <span id=""c_p_y""></span></p>","22","evaluation","22","14","4B,5A,13B,16B","75","36","22","","","","","","","","","","","","","","",""
"","","","","","html-keyboard-response","102","1223037","0.0-17.0-2.28","828dcae6-9f2a-4cba-b249-0a95d2887eea","null","<p style=""text-align: center;"">+</p>","null","fixation","","","","","","","","","","","","","","","","","","","","",""
"","","","","","html-slider-response","103","1224044","0.0-17.0-0.29","828dcae6-9f2a-4cba-b249-0a95d2887eea","1000","
                  <p style=""text-align: center;"">₪11
                                                <br>25%</p>
                  <p id=""wtp"" style=""text-align:center; margin-top: 0px; margin-bottom: 0px; font-size: 40px"";>&ensp;</p>","-","viewing","0","5","12A,27B,28B,30B","","","","","","","","","","","","","","","","","",""
"","","","","","html-slider-response","104","1225460","0.0-17.0-1.29","828dcae6-9f2a-4cba-b249-0a95d2887eea","1415","
                  <p style=""text-align: center;"">₪11
                                                <br>25%</p>
                  <p id=""wtp"" style=""text-align:center; margin-top: 0px; margin-bottom: 0px; font-size: 40px"";>מוכנים לשלם: <span id=""c_p_y""></span></p>","3","evaluation","51","5","12A,27B,28B,30B","25","11","3","","","","","","","","","","","","","","",""
"","","","","","html-keyboard-response","105","1226796","0.0-17.0-2.29","828dcae6-9f2a-4cba-b249-0a95d2887eea","null","<p style=""text-align: center;"">+</p>","null","fixation","","","","","","","","","","","","","","","","","","","","",""
"","","","","","html-slider-response","106","1227801","0.0-17.0-0.30","828dcae6-9f2a-4cba-b249-0a95d2887eea","1000","
                  <p style=""text-align: center;"">₪43
                                                <br>60%</p>
                  <p id=""wtp"" style=""text-align:center; margin-top: 0px; margin-bottom: 0px; font-size: 40px"";>&ensp;</p>","-","viewing","0","17","2A,7A,9A,15B","","","","","","","","","","","","","","","","","",""
"","","","","","html-slider-response","107","1230572","0.0-17.0-1.30","828dcae6-9f2a-4cba-b249-0a95d2887eea","2770","
                  <p style=""text-align: center;"">₪43
                                                <br>60%</p>
                  <p id=""wtp"" style=""text-align:center; margin-top: 0px; margin-bottom: 0px; font-size: 40px"";>מוכנים לשלם: <span id=""c_p_y""></span></p>","26","evaluation","9","17","2A,7A,9A,15B","60","43","26","","","","","","","","","","","","","","",""
"","","","","","html-keyboard-response","108","1231994","0.0-17.0-2.30","828dcae6-9f2a-4cba-b249-0a95d2887eea","null","<p style=""text-align: center;"">+</p>","null","fixation","","","","","","","","","","","","","","","","","","","","",""
"","","","","","html-keyboard-response","109","1233005","0.0-18.0","828dcae6-9f2a-4cba-b249-0a95d2887eea","null","<p style=""text-align: center;"">+</p>","null","fixation","","","","","","","","","","","","","","","","","","","","",""
"","","","","","html-keyboard-response","110","1236060","0.0-19.0","828dcae6-9f2a-4cba-b249-0a95d2887eea","null","<p>הפסקה.
          <br>לחצו כדי להמשיך.</p>","1","scan_wait","","","","","","","","","","","","","","","","","","","","",""
"","","","","","html-keyboard-response","111","1237061","0.0-20.0","828dcae6-9f2a-4cba-b249-0a95d2887eea","null","<p style=""text-align: center;"">+</p>","null","fixation","","","","","","","","","","","","","","","","","","","","",""
"","","","","","html-slider-response","112","1238074","0.0-21.0-0.0","828dcae6-9f2a-4cba-b249-0a95d2887eea","1000","
                  <p style=""text-align: center;"">₪11
                                                <br>25%</p>
                  <p id=""wtp"" style=""text-align:center; margin-top: 0px; margin-bottom: 0px; font-size: 40px"";>&ensp;</p>","-","viewing","0","5","12A,27B,28B,30B","","","","","","","","","","","","","","","","","",""
"","","","","","html-slider-response","113","1239820","0.0-21.0-1.0","828dcae6-9f2a-4cba-b249-0a95d2887eea","1745","
                  <p style=""text-align: center;"">₪11
                                                <br>25%</p>
                  <p id=""wtp"" style=""text-align:center; margin-top: 0px; margin-bottom: 0px; font-size: 40px"";>מוכנים לשלם: <span id=""c_p_y""></span></p>","2","evaluation","10","5","12A,27B,28B,30B","25","11","2","","","","","","","","","","","","","","",""
"","","","","","html-keyboard-response","114","1240702","0.0-21.0-2.0","828dcae6-9f2a-4cba-b249-0a95d2887eea","null","<p style=""text-align: center;"">+</p>","null","fixation","","","","","","","","","","","","","","","","","","","","",""
"","","","","","html-slider-response","115","1241704","0.0-21.0-0.1","828dcae6-9f2a-4cba-b249-0a95d2887eea","1000","
                  <p style=""text-align: center;"">₪11
                                                <br>20%</p>
                  <p id=""wtp"" style=""text-align:center; margin-top: 0px; margin-bottom: 0px; font-size: 40px"";>&ensp;</p>","-","viewing","0","4","12C,17C,23C,28C","","","","","","","","","","","","","","","","","",""
"","","","","","html-slider-response","116","1242892","0.0-21.0-1.1","828dcae6-9f2a-4cba-b249-0a95d2887eea","1187","
                  <p style=""text-align: center;"">₪11
                                                <br>20%</p>
                  <p id=""wtp"" style=""text-align:center; margin-top: 0px; margin-bottom: 0px; font-size: 40px"";>מוכנים לשלם: <span id=""c_p_y""></span></p>","3","evaluation","4","4","12C,17C,23C,28C","20","11","3","","","","","","","","","","","","","","",""
"","","","","","html-keyboard-response","117","1244237","0.0-21.0-2.1","828dcae6-9f2a-4cba-b249-0a95d2887eea","null","<p style=""text-align: center;"">+</p>","null","fixation","","","","","","","","","","","","","","","","","","","","",""
"","","","","","html-slider-response","118","1245238","0.0-21.0-0.2","828dcae6-9f2a-4cba-b249-0a95d2887eea","1000","
                  <p style=""text-align: center;"">₪64
                                                <br>25%</p>
                  <p id=""wtp"" style=""text-align:center; margin-top: 0px; margin-bottom: 0px; font-size: 40px"";>&ensp;</p>","-","viewing","0","24","6A,21A","","","","","","","","","","","","","","","","","",""
"","","","","","html-slider-response","119","1248004","0.0-21.0-1.2","828dcae6-9f2a-4cba-b249-0a95d2887eea","2765","
                  <p style=""text-align: center;"">₪64
                                                <br>25%</p>
                  <p id=""wtp"" style=""text-align:center; margin-top: 0px; margin-bottom: 0px; font-size: 40px"";>מוכנים לשלם: <span id=""c_p_y""></span></p>","18","evaluation","41","24","6A,21A","25","64","18","","","","","","","","","","","","","","",""
"","","","","","html-keyboard-response","120","1249445","0.0-21.0-2.2","828dcae6-9f2a-4cba-b249-0a95d2887eea","null","<p style=""text-align: center;"">+</p>","null","fixation","","","","","","","","","","","","","","","","","","","","",""
"","","","","","html-slider-response","121","1250457","0.0-21.0-0.3","828dcae6-9f2a-4cba-b249-0a95d2887eea","1000","
                  <p style=""text-align: center;"">₪79
                                                <br>40%</p>
                  <p id=""wtp"" style=""text-align:center; margin-top: 0px; margin-bottom: 0px; font-size: 40px"";>&ensp;</p>","-","viewing","0","30","9B","","","","","","","","","","","","","","","","","",""
"","","","","","html-slider-response","122","1252732","0.0-21.0-1.3","828dcae6-9f2a-4cba-b249-0a95d2887eea","2274","
                  <p style=""text-align: center;"">₪79
                                                <br>40%</p>
                  <p id=""wtp"" style=""text-align:center; margin-top: 0px; margin-bottom: 0px; font-size: 40px"";>מוכנים לשלם: <span id=""c_p_y""></span></p>","31","evaluation","65","30","9B","40","79","31","","","","","","","","","","","","","","",""
"","","","","","html-keyboard-response","123","1253405","0.0-21.0-2.3","828dcae6-9f2a-4cba-b249-0a95d2887eea","null","<p style=""text-align: center;"">+</p>","null","fixation","","","","","","","","","","","","","","","","","","","","",""
"","","","","","html-slider-response","124","1254408","0.0-21.0-0.4","828dcae6-9f2a-4cba-b249-0a95d2887eea","1000","
                  <p style=""text-align: center;"">₪71
                                                <br>55%</p>
                  <p id=""wtp"" style=""text-align:center; margin-top: 0px; margin-bottom: 0px; font-size: 40px"";>&ensp;</p>","-","viewing","0","27","5B,18A","","","","","","","","","","","","","","","","","",""
"","","","","","html-slider-response","125","1257444","0.0-21.0-1.4","828dcae6-9f2a-4cba-b249-0a95d2887eea","3035","
                  <p style=""text-align: center;"">₪71
                                                <br>55%</p>
                  <p id=""wtp"" style=""text-align:center; margin-top: 0px; margin-bottom: 0px; font-size: 40px"";>מוכנים לשלם: <span id=""c_p_y""></span></p>","29","evaluation","23","27","5B,18A","55","71","29","","","","","","","","","","","","","","",""
"","","","","","html-keyboard-response","126","1258903","0.0-21.0-2.4","828dcae6-9f2a-4cba-b249-0a95d2887eea","null","<p style=""text-align: center;"">+</p>","null","fixation","","","","","","","","","","","","","","","","","","","","",""
"","","","","","html-slider-response","127","1259909","0.0-21.0-0.5","828dcae6-9f2a-4cba-b249-0a95d2887eea","1000","
                  <p style=""text-align: center;"">₪18
                                                <br>50%</p>
                  <p id=""wtp"" style=""text-align:center; margin-top: 0px; margin-bottom: 0px; font-size: 40px"";>&ensp;</p>","-","viewing","0","10","2C,16C,22B,28A","","","","","","","","","","","","","","","","","",""
"","","","","","html-slider-response","128","1261660","0.0-21.0-1.5","828dcae6-9f2a-4cba-b249-0a95d2887eea","1750","
                  <p style=""text-align: center;"">₪18
                                                <br>50%</p>
                  <p id=""wtp"" style=""text-align:center; margin-top: 0px; margin-bottom: 0px; font-size: 40px"";>מוכנים לשלם: <span id=""c_p_y""></span></p>","7","evaluation","46","10","2C,16C,22B,28A","50","18","7","","","","","","","","","","","","","","",""
"","","","","","html-keyboard-response","129","1262501","0.0-21.0-2.5","828dcae6-9f2a-4cba-b249-0a95d2887eea","null","<p style=""text-align: center;"">+</p>","null","fixation","","","","","","","","","","","","","","","","","","","","",""
"","","","","","html-slider-response","130","1263505","0.0-21.0-0.6","828dcae6-9f2a-4cba-b249-0a95d2887eea","1000","
                  <p style=""text-align: center;"">₪16
                                                <br>20%</p>
                  <p id=""wtp"" style=""text-align:center; margin-top: 0px; margin-bottom: 0px; font-size: 40px"";>&ensp;</p>","-","viewing","0","8","14C,17A,20C,27A","","","","","","","","","","","","","","","","","",""
"","","","","","html-slider-response","131","1267508","0.0-21.0-1.6","828dcae6-9f2a-4cba-b249-0a95d2887eea","4002","
                  <p style=""text-align: center;"">₪16
                                                <br>20%</p>
                  <p id=""wtp"" style=""text-align:center; margin-top: 0px; margin-bottom: 0px; font-size: 40px"";>מוכנים לשלם: <span id=""c_p_y""></span></p>","2","evaluation","28","8","14C,17A,20C,27A","20","16","2","","","","","","","","","","","","","","",""
"","","","","","html-keyboard-response","132","1268260","0.0-21.0-2.6","828dcae6-9f2a-4cba-b249-0a95d2887eea","null","<p style=""text-align: center;"">+</p>","null","fixation","","","","","","","","","","","","","","","","","","","","",""
"","","","","","html-slider-response","133","1269275","0.0-21.0-0.7","828dcae6-9f2a-4cba-b249-0a95d2887eea","1000","
                  <p style=""text-align: center;"">₪58
                                                <br>40%</p>
                  <p id=""wtp"" style=""text-align:center; margin-top: 0px; margin-bottom: 0px; font-size: 40px"";>&ensp;</p>","-","viewing","0","20","10C,13A,19C,21B","","","","","","","","","","","","","","","","","",""
"","","","","","html-slider-response","134","1271268","0.0-21.0-1.7","828dcae6-9f2a-4cba-b249-0a95d2887eea","1992","
                  <p style=""text-align: center;"">₪58
                                                <br>40%</p>
                  <p id=""wtp"" style=""text-align:center; margin-top: 0px; margin-bottom: 0px; font-size: 40px"";>מוכנים לשלם: <span id=""c_p_y""></span></p>","23","evaluation","43","20","10C,13A,19C,21B","40","58","23","","","","","","","","","","","","","","",""
"","","","","","html-keyboard-response","135","1271930","0.0-21.0-2.7","828dcae6-9f2a-4cba-b249-0a95d2887eea","null","<p style=""text-align: center;"">+</p>","null","fixation","","","","","","","","","","","","","","","","","","","","",""
"","","","","","html-slider-response","136","1272933","0.0-21.0-0.8","828dcae6-9f2a-4cba-b249-0a95d2887eea","1000","
                  <p style=""text-align: center;"">₪61
                                                <br>45%</p>
                  <p id=""wtp"" style=""text-align:center; margin-top: 0px; margin-bottom: 0px; font-size: 40px"";>&ensp;</p>","-","viewing","0","22","10A,11A","","","","","","","","","","","","","","","","","",""
"","","","","","html-slider-response","137","1275612","0.0-21.0-1.8","828dcae6-9f2a-4cba-b249-0a95d2887eea","2678","
                  <p style=""text-align: center;"">₪61
                                                <br>45%</p>
                  <p id=""wtp"" style=""text-align:center; margin-top: 0px; margin-bottom: 0px; font-size: 40px"";>מוכנים לשלם: <span id=""c_p_y""></span></p>","24","evaluation","3","22","10A,11A","45","61","24","","","","","","","","","","","","","","",""
"","","","","","html-keyboard-response","138","1276166","0.0-21.0-2.8","828dcae6-9f2a-4cba-b249-0a95d2887eea","null","<p style=""text-align: center;"">+</p>","null","fixation","","","","","","","","","","","","","","","","","","","","",""
"","","","","","html-slider-response","139","1277182","0.0-21.0-0.9","828dcae6-9f2a-4cba-b249-0a95d2887eea","1000","
                  <p style=""text-align: center;"">₪36
                                                <br>30%</p>
                  <p id=""wtp"" style=""text-align:center; margin-top: 0px; margin-bottom: 0px; font-size: 40px"";>&ensp;</p>","-","viewing","0","11","3C,20A,22A","","","","","","","","","","","","","","","","","",""
"","","","","","html-slider-response","140","1280068","0.0-21.0-1.9","828dcae6-9f2a-4cba-b249-0a95d2887eea","2885","
                  <p style=""text-align: center;"">₪36
                                                <br>30%</p>
                  <p id=""wtp"" style=""text-align:center; margin-top: 0px; margin-bottom: 0px; font-size: 40px"";>מוכנים לשלם: <span id=""c_p_y""></span></p>","10","evaluation","25","11","3C,20A,22A","30","36","10","","","","","","","","","","","","","","",""
"","","","","","html-keyboard-response","141","1281347","0.0-21.0-2.9","828dcae6-9f2a-4cba-b249-0a95d2887eea","null","<p style=""text-align: center;"">+</p>","null","fixation","","","","","","","","","","","","","","","","","","","","",""
"","","","","","html-slider-response","142","1282359","0.0-21.0-0.10","828dcae6-9f2a-4cba-b249-0a95d2887eea","1000","
                  <p style=""text-align: center;"">₪79
                                                <br>65%</p>
                  <p id=""wtp"" style=""text-align:center; margin-top: 0px; margin-bottom: 0px; font-size: 40px"";>&ensp;</p>","-","viewing","0","31","8A","","","","","","","","","","","","","","","","","",""
"","","","","","html-slider-response","143","1286360","0.0-21.0-1.10","828dcae6-9f2a-4cba-b249-0a95d2887eea","null","
                  <p style=""text-align: center;"">₪79
                                                <br>65%</p>
                  <p id=""wtp"" style=""text-align:center; margin-top: 0px; margin-bottom: 0px; font-size: 40px"";>מוכנים לשלם: <span id=""c_p_y""></span></p>","null","evaluation","15","31","8A","65","79","27","","","","","","","","","","","","","","",""
"","","","","","html-keyboard-response","144","1287174","0.0-21.0-2.10","828dcae6-9f2a-4cba-b249-0a95d2887eea","null","<p style=""text-align: center;"">+</p>","null","fixation","","","","","","","","","","","","","","","","","","","","",""
"","","","","","html-slider-response","145","1288178","0.0-21.0-0.11","828dcae6-9f2a-4cba-b249-0a95d2887eea","1000","
                  <p style=""text-align: center;"">₪4
                                                <br>25%</p>
                  <p id=""wtp"" style=""text-align:center; margin-top: 0px; margin-bottom: 0px; font-size: 40px"";>&ensp;</p>","-","viewing","0","1","6C,29B,30C","","","","","","","","","","","","","","","","","",""
"","","","","","html-slider-response","146","1290308","0.0-21.0-1.11","828dcae6-9f2a-4cba-b249-0a95d2887eea","2129","
                  <p style=""text-align: center;"">₪4
                                                <br>25%</p>
                  <p id=""wtp"" style=""text-align:center; margin-top: 0px; margin-bottom: 0px; font-size: 40px"";>מוכנים לשלם: <span id=""c_p_y""></span></p>","1","evaluation","54","1","6C,29B,30C","25","4","1","","","","","","","","","","","","","","",""
"","","","","","html-keyboard-response","147","1291329","0.0-21.0-2.11","828dcae6-9f2a-4cba-b249-0a95d2887eea","null","<p style=""text-align: center;"">+</p>","null","fixation","","","","","","","","","","","","","","","","","","","","",""
"","","","","","html-slider-response","148","1292344","0.0-21.0-0.12","828dcae6-9f2a-4cba-b249-0a95d2887eea","1000","
                  <p style=""text-align: center;"">₪43
                                                <br>75%</p>
                  <p id=""wtp"" style=""text-align:center; margin-top: 0px; margin-bottom: 0px; font-size: 40px"";>&ensp;</p>","-","viewing","0","18","11B,19B,24A,26A","","","","","","","","","","","","","","","","","",""
"","","","","","html-slider-response","149","1294540","0.0-21.0-1.12","828dcae6-9f2a-4cba-b249-0a95d2887eea","2195","
                  <p style=""text-align: center;"">₪43
                                                <br>75%</p>
                  <p id=""wtp"" style=""text-align:center; margin-top: 0px; margin-bottom: 0px; font-size: 40px"";>מוכנים לשלם: <span id=""c_p_y""></span></p>","23","evaluation","52","18","11B,19B,24A,26A","75","43","23","","","","","","","","","","","","","","",""
"","","","","","html-keyboard-response","150","1295175","0.0-21.0-2.12","828dcae6-9f2a-4cba-b249-0a95d2887eea","null","<p style=""text-align: center;"">+</p>","null","fixation","","","","","","","","","","","","","","","","","","","","",""
"","","","","","html-slider-response","151","1296191","0.0-21.0-0.13","828dcae6-9f2a-4cba-b249-0a95d2887eea","1000","
                  <p style=""text-align: center;"">₪43
                                                <br>60%</p>
                  <p id=""wtp"" style=""text-align:center; margin-top: 0px; margin-bottom: 0px; font-size: 40px"";>&ensp;</p>","-","viewing","0","17","2A,7A,9A,15B","","","","","","","","","","","","","","","","","",""
"","","","","","html-slider-response","152","1298196","0.0-21.0-1.13","828dcae6-9f2a-4cba-b249-0a95d2887eea","2004","
                  <p style=""text-align: center;"">₪43
                                                <br>60%</p>
                  <p id=""wtp"" style=""text-align:center; margin-top: 0px; margin-bottom: 0px; font-size: 40px"";>מוכנים לשלם: <span id=""c_p_y""></span></p>","16","evaluation","39","17","2A,7A,9A,15B","60","43","16","","","","","","","","","","","","","","",""
"","","","","","html-keyboard-response","153","1299302","0.0-21.0-2.13","828dcae6-9f2a-4cba-b249-0a95d2887eea","null","<p style=""text-align: center;"">+</p>","null","fixation","","","","","","","","","","","","","","","","","","","","",""
"","","","","","html-slider-response","154","1300310","0.0-21.0-0.14","828dcae6-9f2a-4cba-b249-0a95d2887eea","1000","
                  <p style=""text-align: center;"">₪58
                                                <br>30%</p>
                  <p id=""wtp"" style=""text-align:center; margin-top: 0px; margin-bottom: 0px; font-size: 40px"";>&ensp;</p>","-","viewing","0","19","13C,30A","","","","","","","","","","","","","","","","","",""
"","","","","","html-slider-response","155","1302444","0.0-21.0-1.14","828dcae6-9f2a-4cba-b249-0a95d2887eea","2132","
                  <p style=""text-align: center;"">₪58
                                                <br>30%</p>
                  <p id=""wtp"" style=""text-align:center; margin-top: 0px; margin-bottom: 0px; font-size: 40px"";>מוכנים לשלם: <span id=""c_p_y""></span></p>","15","evaluation","23","19","13C,30A","30","58","15","","","","","","","","","","","","","","",""
"","","","","","html-keyboard-response","156","1303007","0.0-21.0-2.14","828dcae6-9f2a-4cba-b249-0a95d2887eea","null","<p style=""text-align: center;"">+</p>","null","fixation","","","","","","","","","","","","","","","","","","","","",""
"","","","","","html-slider-response","157","1304011","0.0-21.0-0.15","828dcae6-9f2a-4cba-b249-0a95d2887eea","1000","
                  <p style=""text-align: center;"">₪11
                                                <br>75%</p>
                  <p id=""wtp"" style=""text-align:center; margin-top: 0px; margin-bottom: 0px; font-size: 40px"";>&ensp;</p>","-","viewing","0","7","6B,18B,22C,24C,29A","","","","","","","","","","","","","","","","","",""
"","","","","","html-slider-response","158","1306068","0.0-21.0-1.15","828dcae6-9f2a-4cba-b249-0a95d2887eea","2056","
                  <p style=""text-align: center;"">₪11
                                                <br>75%</p>
                  <p id=""wtp"" style=""text-align:center; margin-top: 0px; margin-bottom: 0px; font-size: 40px"";>מוכנים לשלם: <span id=""c_p_y""></span></p>","6","evaluation","65","7","6B,18B,22C,24C,29A","75","11","6","","","","","","","","","","","","","","",""
"","","","","","html-keyboard-response","159","1306861","0.0-21.0-2.15","828dcae6-9f2a-4cba-b249-0a95d2887eea","null","<p style=""text-align: center;"">+</p>","null","fixation","","","","","","","","","","","","","","","","","","","","",""
"","","","","","html-slider-response","160","1307865","0.0-21.0-0.16","828dcae6-9f2a-4cba-b249-0a95d2887eea","1000","
                  <p style=""text-align: center;"">₪11
                                                <br>45%</p>
                  <p id=""wtp"" style=""text-align:center; margin-top: 0px; margin-bottom: 0px; font-size: 40px"";>&ensp;</p>","-","viewing","0","6","14B,21C,25C","","","","","","","","","","","","","","","","","",""
"","","","","","html-slider-response","161","1311212","0.0-21.0-1.16","828dcae6-9f2a-4cba-b249-0a95d2887eea","3346","
                  <p style=""text-align: center;"">₪11
                                                <br>45%</p>
                  <p id=""wtp"" style=""text-align:center; margin-top: 0px; margin-bottom: 0px; font-size: 40px"";>מוכנים לשלם: <span id=""c_p_y""></span></p>","0","evaluation","54","6","14B,21C,25C","45","11","0","","","","","","","","","","","","","","",""
"","","","","","html-keyboard-response","162","1312300","0.0-21.0-2.16","828dcae6-9f2a-4cba-b249-0a95d2887eea","null","<p style=""text-align: center;"">+</p>","null","fixation","","","","","","","","","","","","","","","","","","","","",""
"","","","","","html-slider-response","163","1313308","0.0-21.0-0.17","828dcae6-9f2a-4cba-b249-0a95d2887eea","1000","
                  <p style=""text-align: center;"">₪64
                                                <br>50%</p>
                  <p id=""wtp"" style=""text-align:center; margin-top: 0px; margin-bottom: 0px; font-size: 40px"";>&ensp;</p>","-","viewing","0","25","1B,3B,4A","","","","","","","","","","","","","","","","","",""
"","","","","","html-slider-response","164","1315436","0.0-21.0-1.17","828dcae6-9f2a-4cba-b249-0a95d2887eea","2128","
                  <p style=""text-align: center;"">₪64
                                                <br>50%</p>
                  <p id=""wtp"" style=""text-align:center; margin-top: 0px; margin-bottom: 0px; font-size: 40px"";>מוכנים לשלם: <span id=""c_p_y""></span></p>","28","evaluation","45","25","1B,3B,4A","50","64","28","","","","","","","","","","","","","","",""
"","","","","","html-keyboard-response","165","1316932","0.0-21.0-2.17","828dcae6-9f2a-4cba-b249-0a95d2887eea","null","<p style=""text-align: center;"">+</p>","null","fixation","","","","","","","","","","","","","","","","","","","","",""
"","","","","","html-slider-response","166","1317938","0.0-21.0-0.18","828dcae6-9f2a-4cba-b249-0a95d2887eea","1000","
                  <p style=""text-align: center;"">₪61
                                                <br>55%</p>
                  <p id=""wtp"" style=""text-align:center; margin-top: 0px; margin-bottom: 0px; font-size: 40px"";>&ensp;</p>","-","viewing","0","23","7B,26B","","","","","","","","","","","","","","","","","",""
"","","","","","html-slider-response","167","1321492","0.0-21.0-1.18","828dcae6-9f2a-4cba-b249-0a95d2887eea","3553","
                  <p style=""text-align: center;"">₪61
                                                <br>55%</p>
                  <p id=""wtp"" style=""text-align:center; margin-top: 0px; margin-bottom: 0px; font-size: 40px"";>מוכנים לשלם: <span id=""c_p_y""></span></p>","27","evaluation","32","23","7B,26B","55","61","27","","","","","","","","","","","","","","",""
"","","","","","html-keyboard-response","168","1322849","0.0-21.0-2.18","828dcae6-9f2a-4cba-b249-0a95d2887eea","null","<p style=""text-align: center;"">+</p>","null","fixation","","","","","","","","","","","","","","","","","","","","",""
"","","","","","html-slider-response","169","1323851","0.0-21.0-0.19","828dcae6-9f2a-4cba-b249-0a95d2887eea","1000","
                  <p style=""text-align: center;"">₪71
                                                <br>45%</p>
                  <p id=""wtp"" style=""text-align:center; margin-top: 0px; margin-bottom: 0px; font-size: 40px"";>&ensp;</p>","-","viewing","0","26","2B,16A","","","","","","","","","","","","","","","","","",""
"","","","","","html-slider-response","170","1326740","0.0-21.0-1.19","828dcae6-9f2a-4cba-b249-0a95d2887eea","2888","
                  <p style=""text-align: center;"">₪71
                                                <br>45%</p>
                  <p id=""wtp"" style=""text-align:center; margin-top: 0px; margin-bottom: 0px; font-size: 40px"";>מוכנים לשלם: <span id=""c_p_y""></span></p>","23","evaluation","62","26","2B,16A","45","71","23","","","","","","","","","","","","","","",""
"","","","","","html-keyboard-response","171","1328063","0.0-21.0-2.19","828dcae6-9f2a-4cba-b249-0a95d2887eea","null","<p style=""text-align: center;"">+</p>","null","fixation","","","","","","","","","","","","","","","","","","","","",""
"","","","","","html-slider-response","172","1329070","0.0-21.0-0.20","828dcae6-9f2a-4cba-b249-0a95d2887eea","1000","
                  <p style=""text-align: center;"">₪36
                                                <br>75%</p>
                  <p id=""wtp"" style=""text-align:center; margin-top: 0px; margin-bottom: 0px; font-size: 40px"";>&ensp;</p>","-","viewing","0","14","4B,5A,13B,16B","","","","","","","","","","","","","","","","","",""
"","","","","","html-slider-response","173","1332308","0.0-21.0-1.20","828dcae6-9f2a-4cba-b249-0a95d2887eea","3237","
                  <p style=""text-align: center;"">₪36
                                                <br>75%</p>
                  <p id=""wtp"" style=""text-align:center; margin-top: 0px; margin-bottom: 0px; font-size: 40px"";>מוכנים לשלם: <span id=""c_p_y""></span></p>","21","evaluation","42","14","4B,5A,13B,16B","75","36","21","","","","","","","","","","","","","","",""
"","","","","","html-keyboard-response","174","1333429","0.0-21.0-2.20","828dcae6-9f2a-4cba-b249-0a95d2887eea","null","<p style=""text-align: center;"">+</p>","null","fixation","","","","","","","","","","","","","","","","","","","","",""
"","","","","","html-slider-response","175","1334436","0.0-21.0-0.21","828dcae6-9f2a-4cba-b249-0a95d2887eea","1000","
                  <p style=""text-align: center;"">₪76
                                                <br>65%</p>
                  <p id=""wtp"" style=""text-align:center; margin-top: 0px; margin-bottom: 0px; font-size: 40px"";>&ensp;</p>","-","viewing","0","29","8C,19A,24B","","","","","","","","","","","","","","","","","",""
"","","","","","html-slider-response","176","1337196","0.0-21.0-1.21","828dcae6-9f2a-4cba-b249-0a95d2887eea","2758","
                  <p style=""text-align: center;"">₪76
                                                <br>65%</p>
                  <p id=""wtp"" style=""text-align:center; margin-top: 0px; margin-bottom: 0px; font-size: 40px"";>מוכנים לשלם: <span id=""c_p_y""></span></p>","35","evaluation","73","29","8C,19A,24B","65","76","35","","","","","","","","","","","","","","",""
"","","","","","html-keyboard-response","177","1338455","0.0-21.0-2.21","828dcae6-9f2a-4cba-b249-0a95d2887eea","null","<p style=""text-align: center;"">+</p>","null","fixation","","","","","","","","","","","","","","","","","","","","",""
"","","","","","html-slider-response","178","1339467","0.0-21.0-0.22","828dcae6-9f2a-4cba-b249-0a95d2887eea","1000","
                  <p style=""text-align: center;"">₪39
                                                <br>60%</p>
                  <p id=""wtp"" style=""text-align:center; margin-top: 0px; margin-bottom: 0px; font-size: 40px"";>&ensp;</p>","-","viewing","0","15","9C,25B","","","","","","","","","","","","","","","","","",""
"","","","","","html-slider-response","179","1343388","0.0-21.0-1.22","828dcae6-9f2a-4cba-b249-0a95d2887eea","3919","
                  <p style=""text-align: center;"">₪39
                                                <br>60%</p>
                  <p id=""wtp"" style=""text-align:center; margin-top: 0px; margin-bottom: 0px; font-size: 40px"";>מוכנים לשלם: <span id=""c_p_y""></span></p>","21","evaluation","8","15","9C,25B","60","39","21","","","","","","","","","","","","","","",""
"","","","","","html-keyboard-response","180","1344663","0.0-21.0-2.22","828dcae6-9f2a-4cba-b249-0a95d2887eea","null","<p style=""text-align: center;"">+</p>","null","fixation","","","","","","","","","","","","","","","","","","","","",""
"","","","","","html-slider-response","181","1345666","0.0-21.0-0.23","828dcae6-9f2a-4cba-b249-0a95d2887eea","1000","
                  <p style=""text-align: center;"">₪71
                                                <br>75%</p>
                  <p id=""wtp"" style=""text-align:center; margin-top: 0px; margin-bottom: 0px; font-size: 40px"";>&ensp;</p>","-","viewing","0","28","8B","","","","","","","","","","","","","","","","","",""
"","","","","","html-slider-response","182","1348468","0.0-21.0-1.23","828dcae6-9f2a-4cba-b249-0a95d2887eea","2801","
                  <p style=""text-align: center;"">₪71
                                                <br>75%</p>
                  <p id=""wtp"" style=""text-align:center; margin-top: 0px; margin-bottom: 0px; font-size: 40px"";>מוכנים לשלם: <span id=""c_p_y""></span></p>","48","evaluation","8","28","8B","75","71","48","","","","","","","","","","","","","","",""
"","","","","","html-keyboard-response","183","1349677","0.0-21.0-2.23","828dcae6-9f2a-4cba-b249-0a95d2887eea","null","<p style=""text-align: center;"">+</p>","null","fixation","","","","","","","","","","","","","","","","","","","","",""
"","","","","","html-slider-response","184","1350689","0.0-21.0-0.24","828dcae6-9f2a-4cba-b249-0a95d2887eea","1000","
                  <p style=""text-align: center;"">₪39
                                                <br>65%</p>
                  <p id=""wtp"" style=""text-align:center; margin-top: 0px; margin-bottom: 0px; font-size: 40px"";>&ensp;</p>","-","viewing","0","16","1A,15A,26C","","","","","","","","","","","","","","","","","",""
"","","","","","html-slider-response","185","1353620","0.0-21.0-1.24","828dcae6-9f2a-4cba-b249-0a95d2887eea","2929","
                  <p style=""text-align: center;"">₪39
                                                <br>65%</p>
                  <p id=""wtp"" style=""text-align:center; margin-top: 0px; margin-bottom: 0px; font-size: 40px"";>מוכנים לשלם: <span id=""c_p_y""></span></p>","24","evaluation","44","16","1A,15A,26C","65","39","24","","","","","","","","","","","","","","",""
"","","","","","html-keyboard-response","186","1354446","0.0-21.0-2.24","828dcae6-9f2a-4cba-b249-0a95d2887eea","null","<p style=""text-align: center;"">+</p>","null","fixation","","","","","","","","","","","","","","","","","","","","",""
"","","","","","html-slider-response","187","1355461","0.0-21.0-0.25","828dcae6-9f2a-4cba-b249-0a95d2887eea","1000","
                  <p style=""text-align: center;"">₪4
                                                <br>50%</p>
                  <p id=""wtp"" style=""text-align:center; margin-top: 0px; margin-bottom: 0px; font-size: 40px"";>&ensp;</p>","-","viewing","0","2","4C,17B","","","","","","","","","","","","","","","","","",""
"","","","","","html-slider-response","188","1358036","0.0-21.0-1.25","828dcae6-9f2a-4cba-b249-0a95d2887eea","2574","
                  <p style=""text-align: center;"">₪4
                                                <br>50%</p>
                  <p id=""wtp"" style=""text-align:center; margin-top: 0px; margin-bottom: 0px; font-size: 40px"";>מוכנים לשלם: <span id=""c_p_y""></span></p>","3","evaluation","24","2","4C,17B","50","4","3","","","","","","","","","","","","","","",""
"","","","","","html-keyboard-response","189","1359236","0.0-21.0-2.25","828dcae6-9f2a-4cba-b249-0a95d2887eea","null","<p style=""text-align: center;"">+</p>","null","fixation","","","","","","","","","","","","","","","","","","","","",""
"","","","","","html-slider-response","190","1360249","0.0-21.0-0.26","828dcae6-9f2a-4cba-b249-0a95d2887eea","1000","
                  <p style=""text-align: center;"">₪58
                                                <br>45%</p>
                  <p id=""wtp"" style=""text-align:center; margin-top: 0px; margin-bottom: 0px; font-size: 40px"";>&ensp;</p>","-","viewing","0","21","11C,18C,25A","","","","","","","","","","","","","","","","","",""
"","","","","","html-slider-response","191","1363484","0.0-21.0-1.26","828dcae6-9f2a-4cba-b249-0a95d2887eea","3234","
                  <p style=""text-align: center;"">₪58
                                                <br>45%</p>
                  <p id=""wtp"" style=""text-align:center; margin-top: 0px; margin-bottom: 0px; font-size: 40px"";>מוכנים לשלם: <span id=""c_p_y""></span></p>","34","evaluation","80","21","11C,18C,25A","45","58","34","","","","","","","","","","","","","","",""
"","","","","","html-keyboard-response","192","1364785","0.0-21.0-2.26","828dcae6-9f2a-4cba-b249-0a95d2887eea","null","<p style=""text-align: center;"">+</p>","null","fixation","","","","","","","","","","","","","","","","","","","","",""
"","","","","","html-slider-response","193","1365800","0.0-21.0-0.27","828dcae6-9f2a-4cba-b249-0a95d2887eea","1000","
                  <p style=""text-align: center;"">₪36
                                                <br>60%</p>
                  <p id=""wtp"" style=""text-align:center; margin-top: 0px; margin-bottom: 0px; font-size: 40px"";>&ensp;</p>","-","viewing","0","12","1C,7C,15C","","","","","","","","","","","","","","","","","",""
"","","","","","html-slider-response","194","1366884","0.0-21.0-1.27","828dcae6-9f2a-4cba-b249-0a95d2887eea","1082","
                  <p style=""text-align: center;"">₪36
                                                <br>60%</p>
                  <p id=""wtp"" style=""text-align:center; margin-top: 0px; margin-bottom: 0px; font-size: 40px"";>מוכנים לשלם: <span id=""c_p_y""></span></p>","33","evaluation","64","12","1C,7C,15C","60","36","33","","","","","","","","","","","","","","",""
"","","","","","html-keyboard-response","195","1367983","0.0-21.0-2.27","828dcae6-9f2a-4cba-b249-0a95d2887eea","null","<p style=""text-align: center;"">+</p>","null","fixation","","","","","","","","","","","","","","","","","","","","",""
"","","","","","html-slider-response","196","1368988","0.0-21.0-0.28","828dcae6-9f2a-4cba-b249-0a95d2887eea","1000","
                  <p style=""text-align: center;"">₪4
                                                <br>75%</p>
                  <p id=""wtp"" style=""text-align:center; margin-top: 0px; margin-bottom: 0px; font-size: 40px"";>&ensp;</p>","-","viewing","0","3","12B,20B,23B,27C,29C","","","","","","","","","","","","","","","","","",""
"","","","","","html-slider-response","197","1371180","0.0-21.0-1.28","828dcae6-9f2a-4cba-b249-0a95d2887eea","2191","
                  <p style=""text-align: center;"">₪4
                                                <br>75%</p>
                  <p id=""wtp"" style=""text-align:center; margin-top: 0px; margin-bottom: 0px; font-size: 40px"";>מוכנים לשלם: <span id=""c_p_y""></span></p>","4","evaluation","31","3","12B,20B,23B,27C,29C","75","4","4","","","","","","","","","","","","","","",""
"","","","","","html-keyboard-response","198","1372304","0.0-21.0-2.28","828dcae6-9f2a-4cba-b249-0a95d2887eea","null","<p style=""text-align: center;"">+</p>","null","fixation","","","","","","","","","","","","","","","","","","","","",""
"","","","","","html-slider-response","199","1373313","0.0-21.0-0.29","828dcae6-9f2a-4cba-b249-0a95d2887eea","1000","
                  <p style=""text-align: center;"">₪36
                                                <br>70%</p>
                  <p id=""wtp"" style=""text-align:center; margin-top: 0px; margin-bottom: 0px; font-size: 40px"";>&ensp;</p>","-","viewing","0","13","3A,5C,10B","","","","","","","","","","","","","","","","","",""
"","","","","","html-slider-response","200","1376956","0.0-21.0-1.29","828dcae6-9f2a-4cba-b249-0a95d2887eea","3641","
                  <p style=""text-align: center;"">₪36
                                                <br>70%</p>
                  <p id=""wtp"" style=""text-align:center; margin-top: 0px; margin-bottom: 0px; font-size: 40px"";>מוכנים לשלם: <span id=""c_p_y""></span></p>","23","evaluation","29","13","3A,5C,10B","70","36","23","","","","","","","","","","","","","","",""
"","","","","","html-keyboard-response","201","1377951","0.0-21.0-2.29","828dcae6-9f2a-4cba-b249-0a95d2887eea","null","<p style=""text-align: center;"">+</p>","null","fixation","","","","","","","","","","","","","","","","","","","","",""
"","","","","","html-slider-response","202","1378968","0.0-21.0-0.30","828dcae6-9f2a-4cba-b249-0a95d2887eea","1000","
                  <p style=""text-align: center;"">₪18
                                                <br>25%</p>
                  <p id=""wtp"" style=""text-align:center; margin-top: 0px; margin-bottom: 0px; font-size: 40px"";>&ensp;</p>","-","viewing","0","9","14A,23A","","","","","","","","","","","","","","","","","",""
"","","","","","html-slider-response","203","1382724","0.0-21.0-1.30","828dcae6-9f2a-4cba-b249-0a95d2887eea","3754","
                  <p style=""text-align: center;"">₪18
                                                <br>25%</p>
                  <p id=""wtp"" style=""text-align:center; margin-top: 0px; margin-bottom: 0px; font-size: 40px"";>מוכנים לשלם: <span id=""c_p_y""></span></p>","26","evaluation","51","9","14A,23A","25","18","26","","","","","","","","","","","","","","",""
"","","","","","html-keyboard-response","204","1383521","0.0-21.0-2.30","828dcae6-9f2a-4cba-b249-0a95d2887eea","null","<p style=""text-align: center;"">+</p>","null","fixation","","","","","","","","","","","","","","","","","","","","",""
"","","","","","html-keyboard-response","205","1384523","0.0-22.0","828dcae6-9f2a-4cba-b249-0a95d2887eea","null","<p style=""text-align: center;"">+</p>","null","fixation","","","","","","","","","","","","","","","","","","","","",""
"","","","","","html-keyboard-response","206","1389124","0.0-23.0","828dcae6-9f2a-4cba-b249-0a95d2887eea","null","<p>הפסקה.
          <br>לחצו כדי להמשיך.</p>","1","scan_wait","","","","","","","","","","","","","","","","","","","","",""
"","","","","","html-keyboard-response","207","1390139","0.0-24.0","828dcae6-9f2a-4cba-b249-0a95d2887eea","null","<p style=""text-align: center;"">+</p>","null","fixation","","","","","","","","","","","","","","","","","","","","",""
"","","","","","html-slider-response","208","1391140","0.0-25.0-0.0","828dcae6-9f2a-4cba-b249-0a95d2887eea","1000","
                  <p style=""text-align: center;"">₪58
                                                <br>30%</p>
                  <p id=""wtp"" style=""text-align:center; margin-top: 0px; margin-bottom: 0px; font-size: 40px"";>&ensp;</p>","-","viewing","0","19","13C,30A","","","","","","","","","","","","","","","","","",""
"","","","","","html-slider-response","209","1393340","0.0-25.0-1.0","828dcae6-9f2a-4cba-b249-0a95d2887eea","2199","
                  <p style=""text-align: center;"">₪58
                                                <br>30%</p>
                  <p id=""wtp"" style=""text-align:center; margin-top: 0px; margin-bottom: 0px; font-size: 40px"";>מוכנים לשלם: <span id=""c_p_y""></span></p>","25","evaluation","43","19","13C,30A","30","58","25","","","","","","","","","","","","","","",""
"","","","","","html-keyboard-response","210","1394481","0.0-25.0-2.0","828dcae6-9f2a-4cba-b249-0a95d2887eea","null","<p style=""text-align: center;"">+</p>","null","fixation","","","","","","","","","","","","","","","","","","","","",""
"","","","","","html-slider-response","211","1395486","0.0-25.0-0.1","828dcae6-9f2a-4cba-b249-0a95d2887eea","1000","
                  <p style=""text-align: center;"">₪16
                                                <br>20%</p>
                  <p id=""wtp"" style=""text-align:center; margin-top: 0px; margin-bottom: 0px; font-size: 40px"";>&ensp;</p>","-","viewing","0","8","14C,17A,20C,27A","","","","","","","","","","","","","","","","","",""
"","","","","","html-slider-response","212","1397924","0.0-25.0-1.1","828dcae6-9f2a-4cba-b249-0a95d2887eea","2437","
                  <p style=""text-align: center;"">₪16
                                                <br>20%</p>
                  <p id=""wtp"" style=""text-align:center; margin-top: 0px; margin-bottom: 0px; font-size: 40px"";>מוכנים לשלם: <span id=""c_p_y""></span></p>","6","evaluation","23","8","14C,17A,20C,27A","20","16","6","","","","","","","","","","","","","","",""
"","","","","","html-keyboard-response","213","1398687","0.0-25.0-2.1","828dcae6-9f2a-4cba-b249-0a95d2887eea","null","<p style=""text-align: center;"">+</p>","null","fixation","","","","","","","","","","","","","","","","","","","","",""
"","","","","","html-slider-response","214","1399689","0.0-25.0-0.2","828dcae6-9f2a-4cba-b249-0a95d2887eea","1000","
                  <p style=""text-align: center;"">₪36
                                                <br>60%</p>
                  <p id=""wtp"" style=""text-align:center; margin-top: 0px; margin-bottom: 0px; font-size: 40px"";>&ensp;</p>","-","viewing","0","12","1C,7C,15C","","","","","","","","","","","","","","","","","",""
"","","","","","html-slider-response","215","1400596","0.0-25.0-1.2","828dcae6-9f2a-4cba-b249-0a95d2887eea","905","
                  <p style=""text-align: center;"">₪36
                                                <br>60%</p>
                  <p id=""wtp"" style=""text-align:center; margin-top: 0px; margin-bottom: 0px; font-size: 40px"";>מוכנים לשלם: <span id=""c_p_y""></span></p>","22","evaluation","17","12","1C,7C,15C","60","36","22","","","","","","","","","","","","","","",""
"","","","","","html-keyboard-response","216","1401399","0.0-25.0-2.2","828dcae6-9f2a-4cba-b249-0a95d2887eea","null","<p style=""text-align: center;"">+</p>","null","fixation","","","","","","","","","","","","","","","","","","","","",""
"","","","","","html-slider-response","217","1402406","0.0-25.0-0.3","828dcae6-9f2a-4cba-b249-0a95d2887eea","1000","
                  <p style=""text-align: center;"">₪43
                                                <br>75%</p>
                  <p id=""wtp"" style=""text-align:center; margin-top: 0px; margin-bottom: 0px; font-size: 40px"";>&ensp;</p>","-","viewing","0","18","11B,19B,24A,26A","","","","","","","","","","","","","","","","","",""
"","","","","","html-slider-response","218","1403644","0.0-25.0-1.3","828dcae6-9f2a-4cba-b249-0a95d2887eea","1237","
                  <p style=""text-align: center;"">₪43
                                                <br>75%</p>
                  <p id=""wtp"" style=""text-align:center; margin-top: 0px; margin-bottom: 0px; font-size: 40px"";>מוכנים לשלם: <span id=""c_p_y""></span></p>","20","evaluation","66","18","11B,19B,24A,26A","75","43","20","","","","","","","","","","","","","","",""
"","","","","","html-keyboard-response","219","1405009","0.0-25.0-2.3","828dcae6-9f2a-4cba-b249-0a95d2887eea","null","<p style=""text-align: center;"">+</p>","null","fixation","","","","","","","","","","","","","","","","","","","","",""
"","","","","","html-slider-response","220","1406010","0.0-25.0-0.4","828dcae6-9f2a-4cba-b249-0a95d2887eea","1000","
                  <p style=""text-align: center;"">₪18
                                                <br>25%</p>
                  <p id=""wtp"" style=""text-align:center; margin-top: 0px; margin-bottom: 0px; font-size: 40px"";>&ensp;</p>","-","viewing","0","9","14A,23A","","","","","","","","","","","","","","","","","",""
"","","","","","html-slider-response","221","1406796","0.0-25.0-1.4","828dcae6-9f2a-4cba-b249-0a95d2887eea","785","
                  <p style=""text-align: center;"">₪18
                                                <br>25%</p>
                  <p id=""wtp"" style=""text-align:center; margin-top: 0px; margin-bottom: 0px; font-size: 40px"";>מוכנים לשלם: <span id=""c_p_y""></span></p>","1","evaluation","78","9","14A,23A","25","18","2","","","","","","","","","","","","","","",""
"","","","","","html-keyboard-response","222","1407820","0.0-25.0-2.4","828dcae6-9f2a-4cba-b249-0a95d2887eea","null","<p style=""text-align: center;"">+</p>","null","fixation","","","","","","","","","","","","","","","","","","","","",""
"","","","","","html-slider-response","223","1408821","0.0-25.0-0.5","828dcae6-9f2a-4cba-b249-0a95d2887eea","1000","
                  <p style=""text-align: center;"">₪71
                                                <br>75%</p>
                  <p id=""wtp"" style=""text-align:center; margin-top: 0px; margin-bottom: 0px; font-size: 40px"";>&ensp;</p>","-","viewing","0","28","8B","","","","","","","","","","","","","","","","","",""
"","","","","","html-slider-response","224","1410908","0.0-25.0-1.5","828dcae6-9f2a-4cba-b249-0a95d2887eea","2086","
                  <p style=""text-align: center;"">₪71
                                                <br>75%</p>
                  <p id=""wtp"" style=""text-align:center; margin-top: 0px; margin-bottom: 0px; font-size: 40px"";>מוכנים לשלם: <span id=""c_p_y""></span></p>","18","evaluation","22","28","8B","75","71","19","","","","","","","","","","","","","","",""
"","","","","","html-keyboard-response","225","1411865","0.0-25.0-2.5","828dcae6-9f2a-4cba-b249-0a95d2887eea","null","<p style=""text-align: center;"">+</p>","null","fixation","","","","","","","","","","","","","","","","","","","","",""
"","","","","","html-slider-response","226","1412870","0.0-25.0-0.6","828dcae6-9f2a-4cba-b249-0a95d2887eea","1000","
                  <p style=""text-align: center;"">₪76
                                                <br>65%</p>
                  <p id=""wtp"" style=""text-align:center; margin-top: 0px; margin-bottom: 0px; font-size: 40px"";>&ensp;</p>","-","viewing","0","29","8C,19A,24B","","","","","","","","","","","","","","","","","",""
"","","","","","html-slider-response","227","1414732","0.0-25.0-1.6","828dcae6-9f2a-4cba-b249-0a95d2887eea","1862","
                  <p style=""text-align: center;"">₪76
                                                <br>65%</p>
                  <p id=""wtp"" style=""text-align:center; margin-top: 0px; margin-bottom: 0px; font-size: 40px"";>מוכנים לשלם: <span id=""c_p_y""></span></p>","27","evaluation","12","29","8C,19A,24B","65","76","27","","","","","","","","","","","","","","",""
"","","","","","html-keyboard-response","228","1415982","0.0-25.0-2.6","828dcae6-9f2a-4cba-b249-0a95d2887eea","null","<p style=""text-align: center;"">+</p>","null","fixation","","","","","","","","","","","","","","","","","","","","",""
"","","","","","html-slider-response","229","1416989","0.0-25.0-0.7","828dcae6-9f2a-4cba-b249-0a95d2887eea","1000","
                  <p style=""text-align: center;"">₪11
                                                <br>20%</p>
                  <p id=""wtp"" style=""text-align:center; margin-top: 0px; margin-bottom: 0px; font-size: 40px"";>&ensp;</p>","-","viewing","0","4","12C,17C,23C,28C","","","","","","","","","","","","","","","","","",""
"","","","","","html-slider-response","230","1418204","0.0-25.0-1.7","828dcae6-9f2a-4cba-b249-0a95d2887eea","1213","
                  <p style=""text-align: center;"">₪11
                                                <br>20%</p>
                  <p id=""wtp"" style=""text-align:center; margin-top: 0px; margin-bottom: 0px; font-size: 40px"";>מוכנים לשלם: <span id=""c_p_y""></span></p>","5","evaluation","53","4","12C,17C,23C,28C","20","11","5","","","","","","","","","","","","","","",""
"","","","","","html-keyboard-response","231","1419606","0.0-25.0-2.7","828dcae6-9f2a-4cba-b249-0a95d2887eea","null","<p style=""text-align: center;"">+</p>","null","fixation","","","","","","","","","","","","","","","","","","","","",""
"","","","","","html-slider-response","232","1420610","0.0-25.0-0.8","828dcae6-9f2a-4cba-b249-0a95d2887eea","1000","
                  <p style=""text-align: center;"">₪71
                                                <br>55%</p>
                  <p id=""wtp"" style=""text-align:center; margin-top: 0px; margin-bottom: 0px; font-size: 40px"";>&ensp;</p>","-","viewing","0","27","5B,18A","","","","","","","","","","","","","","","","","",""
"","","","","","html-slider-response","233","1421587","0.0-25.0-1.8","828dcae6-9f2a-4cba-b249-0a95d2887eea","977","
                  <p style=""text-align: center;"">₪71
                                                <br>55%</p>
                  <p id=""wtp"" style=""text-align:center; margin-top: 0px; margin-bottom: 0px; font-size: 40px"";>מוכנים לשלם: <span id=""c_p_y""></span></p>","29","evaluation","74","27","5B,18A","55","71","29","","","","","","","","","","","","","","",""
"","","","","","html-keyboard-response","234","1422784","0.0-25.0-2.8","828dcae6-9f2a-4cba-b249-0a95d2887eea","null","<p style=""text-align: center;"">+</p>","null","fixation","","","","","","","","","","","","","","","","","","","","",""
"","","","","","html-slider-response","235","1423795","0.0-25.0-0.9","828dcae6-9f2a-4cba-b249-0a95d2887eea","1000","
                  <p style=""text-align: center;"">₪79
                                                <br>40%</p>
                  <p id=""wtp"" style=""text-align:center; margin-top: 0px; margin-bottom: 0px; font-size: 40px"";>&ensp;</p>","-","viewing","0","30","9B","","","","","","","","","","","","","","","","","",""
"","","","","","html-slider-response","236","1426788","0.0-25.0-1.9","828dcae6-9f2a-4cba-b249-0a95d2887eea","2991","
                  <p style=""text-align: center;"">₪79
                                                <br>40%</p>
                  <p id=""wtp"" style=""text-align:center; margin-top: 0px; margin-bottom: 0px; font-size: 40px"";>מוכנים לשלם: <span id=""c_p_y""></span></p>","26","evaluation","12","30","9B","40","79","26","","","","","","","","","","","","","","",""
"","","","","","html-keyboard-response","237","1427941","0.0-25.0-2.9","828dcae6-9f2a-4cba-b249-0a95d2887eea","null","<p style=""text-align: center;"">+</p>","null","fixation","","","","","","","","","","","","","","","","","","","","",""
"","","","","","html-slider-response","238","1428950","0.0-25.0-0.10","828dcae6-9f2a-4cba-b249-0a95d2887eea","1000","
                  <p style=""text-align: center;"">₪64
                                                <br>50%</p>
                  <p id=""wtp"" style=""text-align:center; margin-top: 0px; margin-bottom: 0px; font-size: 40px"";>&ensp;</p>","-","viewing","0","25","1B,3B,4A","","","","","","","","","","","","","","","","","",""
"","","","","","html-slider-response","239","1429988","0.0-25.0-1.10","828dcae6-9f2a-4cba-b249-0a95d2887eea","1038","
                  <p style=""text-align: center;"">₪64
                                                <br>50%</p>
                  <p id=""wtp"" style=""text-align:center; margin-top: 0px; margin-bottom: 0px; font-size: 40px"";>מוכנים לשלם: <span id=""c_p_y""></span></p>","20","evaluation","37","25","1B,3B,4A","50","64","21","","","","","","","","","","","","","","",""
"","","","","","html-keyboard-response","240","1430501","0.0-25.0-2.10","828dcae6-9f2a-4cba-b249-0a95d2887eea","null","<p style=""text-align: center;"">+</p>","null","fixation","","","","","","","","","","","","","","","","","","","","",""
"","","","","","html-slider-response","241","1431518","0.0-25.0-0.11","828dcae6-9f2a-4cba-b249-0a95d2887eea","1000","
                  <p style=""text-align: center;"">₪43
                                                <br>60%</p>
                  <p id=""wtp"" style=""text-align:center; margin-top: 0px; margin-bottom: 0px; font-size: 40px"";>&ensp;</p>","-","viewing","0","17","2A,7A,9A,15B","","","","","","","","","","","","","","","","","",""
"","","","","","html-slider-response","242","1434948","0.0-25.0-1.11","828dcae6-9f2a-4cba-b249-0a95d2887eea","3429","
                  <p style=""text-align: center;"">₪43
                                                <br>60%</p>
                  <p id=""wtp"" style=""text-align:center; margin-top: 0px; margin-bottom: 0px; font-size: 40px"";>מוכנים לשלם: <span id=""c_p_y""></span></p>","16","evaluation","22","17","2A,7A,9A,15B","60","43","17","","","","","","","","","","","","","","",""
"","","","","","html-keyboard-response","243","1436007","0.0-25.0-2.11","828dcae6-9f2a-4cba-b249-0a95d2887eea","null","<p style=""text-align: center;"">+</p>","null","fixation","","","","","","","","","","","","","","","","","","","","",""
"","","","","","html-slider-response","244","1437009","0.0-25.0-0.12","828dcae6-9f2a-4cba-b249-0a95d2887eea","1000","
                  <p style=""text-align: center;"">₪18
                                                <br>50%</p>
                  <p id=""wtp"" style=""text-align:center; margin-top: 0px; margin-bottom: 0px; font-size: 40px"";>&ensp;</p>","-","viewing","0","10","2C,16C,22B,28A","","","","","","","","","","","","","","","","","",""
"","","","","","html-slider-response","245","1438668","0.0-25.0-1.12","828dcae6-9f2a-4cba-b249-0a95d2887eea","1658","
                  <p style=""text-align: center;"">₪18
                                                <br>50%</p>
                  <p id=""wtp"" style=""text-align:center; margin-top: 0px; margin-bottom: 0px; font-size: 40px"";>מוכנים לשלם: <span id=""c_p_y""></span></p>","8","evaluation","14","10","2C,16C,22B,28A","50","18","8","","","","","","","","","","","","","","",""
"","","","","","html-keyboard-response","246","1439663","0.0-25.0-2.12","828dcae6-9f2a-4cba-b249-0a95d2887eea","null","<p style=""text-align: center;"">+</p>","null","fixation","","","","","","","","","","","","","","","","","","","","",""
"","","","","","html-slider-response","247","1440679","0.0-25.0-0.13","828dcae6-9f2a-4cba-b249-0a95d2887eea","1000","
                  <p style=""text-align: center;"">₪36
                                                <br>75%</p>
                  <p id=""wtp"" style=""text-align:center; margin-top: 0px; margin-bottom: 0px; font-size: 40px"";>&ensp;</p>","-","viewing","0","14","4B,5A,13B,16B","","","","","","","","","","","","","","","","","",""
"","","","","","html-slider-response","248","1444372","0.0-25.0-1.13","828dcae6-9f2a-4cba-b249-0a95d2887eea","3692","
                  <p style=""text-align: center;"">₪36
                                                <br>75%</p>
                  <p id=""wtp"" style=""text-align:center; margin-top: 0px; margin-bottom: 0px; font-size: 40px"";>מוכנים לשלם: <span id=""c_p_y""></span></p>","17","evaluation","35","14","4B,5A,13B,16B","75","36","17","","","","","","","","","","","","","","",""
"","","","","","html-keyboard-response","249","1445404","0.0-25.0-2.13","828dcae6-9f2a-4cba-b249-0a95d2887eea","null","<p style=""text-align: center;"">+</p>","null","fixation","","","","","","","","","","","","","","","","","","","","",""
"","","","","","html-slider-response","250","1446412","0.0-25.0-0.14","828dcae6-9f2a-4cba-b249-0a95d2887eea","1000","
                  <p style=""text-align: center;"">₪36
                                                <br>70%</p>
                  <p id=""wtp"" style=""text-align:center; margin-top: 0px; margin-bottom: 0px; font-size: 40px"";>&ensp;</p>","-","viewing","0","13","3A,5C,10B","","","","","","","","","","","","","","","","","",""
"","","","","","html-slider-response","251","1449387","0.0-25.0-1.14","828dcae6-9f2a-4cba-b249-0a95d2887eea","2974","
                  <p style=""text-align: center;"">₪36
                                                <br>70%</p>
                  <p id=""wtp"" style=""text-align:center; margin-top: 0px; margin-bottom: 0px; font-size: 40px"";>מוכנים לשלם: <span id=""c_p_y""></span></p>","24","evaluation","27","13","3A,5C,10B","70","36","24","","","","","","","","","","","","","","",""
"","","","","","html-keyboard-response","252","1450361","0.0-25.0-2.14","828dcae6-9f2a-4cba-b249-0a95d2887eea","null","<p style=""text-align: center;"">+</p>","null","fixation","","","","","","","","","","","","","","","","","","","","",""
