"success","timeout","failed_images","failed_audio","failed_video","trial_type","trial_index","time_elapsed","internal_node_id","subject_id","rt","stimulus","response","part","slider_start","ID","set_ID","prob","amount","last_location","actual_choice","actual_EV","binary_id","trinary_id","catch","direction","A_key","S_key","D_key","choice_prob","choice_amount","won_prize","potential_prize_amount","potential_prize_prob","total_prize","accuracy"
"true","false","[]","[]","[]","preload","0","5","0.0-0.0","202f75d1-3dfb-459e-80aa-10fb7ecbab3a","","","","","","","","","","","","","","","","","","","","","","","","","",""
"","","","","","html-keyboard-response","1","374331","0.0-1.0","202f75d1-3dfb-459e-80aa-10fb7ecbab3a","null","
          <h1>שלום וברוכים הבאים!</h1>
          <p>לפניכם ניסוי בקבלת החלטות עם שני חלקים.
          <br><br>לחצו על העכבר כדי להמשיך.</p>","0","example","","","","","","","","","","","","","","","","","","","","","",""
"","","","","","html-keyboard-response","2","385035","0.0-2.0","202f75d1-3dfb-459e-80aa-10fb7ecbab3a","null","
        <h1>חלק 1</h1>
        <p>בקרוב יוצגו בפניכם הגרלות.
        <br>עליכם לבחור את המחיר המירבי שתהיו מוכנים לשלם כדי להשתתף בהגרלה שתוצג.
        <br>יש לכם תקציב של ₪80 לכל הגרלה. 
        <br>נסו להעריך כל הגרלה בנפרד ולחשוב כמה היא שווה עבורכם, ₪80 זמינים לכל הגרלה בנפרד.
        <br><br>לחצו על העכבר כדי להמשיך.</p>","1","instructions","","","","","","","","","","","","","","","","","","","","","",""
"","","","","","html-keyboard-response","3","387315","0.0-3.0","202f75d1-3dfb-459e-80aa-10fb7ecbab3a","null","
        <p>בסוף הניסוי, המחשב יבחר את אחת ההגרלות ויקבע מחיר לכרטיס עבורה. 
        <br>במידה והמחיר שבחרתם נמוך מהמחיר שנבחר על ידי המחשב, לא תשתתפו בהגרלה ותשארו עם מלוא התקציב.
        <br>במידה והמחיר שבחרתם גבוה מהמחיר שנבחר על ידי המחשב, תשלמו את המחיר שנקבע ותשתתפו בהגרלה.
        <br><br>לחצו על העכבר כדי להמשיך.</p>","1","instructions","","","","","","","","","","","","","","","","","","","","","",""
"","","","","","html-slider-response","4","415507","0.0-4.0","202f75d1-3dfb-459e-80aa-10fb7ecbab3a","28075","
        <p style=""font-size: 42px;"">נתחיל עם דוגמא: 
        <br>ההגרלה מטה מציעה 65% סיכוי לזכות ב-₪40 
        <br>&emsp;&emsp;&emsp;&emsp;&emsp;&emsp;&emsp;&emsp;&ensp;35% סיכוי לזכות ב-₪0.
        <br><br>מה המחיר המירבי שתהיו מוכנים לשלם על כרטיס להגרלה זו בין 0 ל-₪80?
        <br>הזיזו את העכבר על פני המלבן ולחצו כדי לבצע בחירה.</p>
        
        <p style=""text-align: center;"">₪40<br>65%</p>

        <p id=""wtp"" style=""text-align:center; margin-top: 0px; margin-bottom: 0px; font-size: 40px"";>מוכנים לשלם: <span id=""c_p_y""></span></p>","5","example","12","","","","","","","","","","","","","","","","","","","","",""
"","","","","","html-keyboard-response","5","423395","0.0-5.0","202f75d1-3dfb-459e-80aa-10fb7ecbab3a","null","<p>יפה מאוד!
                <br> בחרתם שתהיו מוכנים לשלם ₪5 כדי להשתתף בהגרלה:
                <br><p style=""text-align: center;"">₪40<br>65%</p>
                <p>נשמע נכון?
                <br>נניח שהגרלה זו נבחרה בסוף הניסוי.
                <br>כעת המחשב יקבע מחיר עבורה באקראי.
                <br>לחצו על העכבר להמשך.</p>","1","example","","","","","","","","","","","","","","","","","","","","","",""
"","","","","","html-keyboard-response","6","429427","0.0-6.0","202f75d1-3dfb-459e-80aa-10fb7ecbab3a","null","<p>המחשב קבע מחיר: ₪58
                <br>ואתם בחרתם לשלם לכל היותר: ₪5
                <br><br>מכיוון שהמחיר שבחרתם נמוך מהמחיר שנקבע, לא תתשתתפו בהגרלה.
                <br>במקרה כזה, בסוף הניסוי תקבלו את כל התקציב ההתחלתי של ₪80.
                <br><br>לחצו על העכבר להמשך.</p>","1","example","","","","","","","","","","","","","","","","","","","","","",""
"","","","","","html-slider-response","7","433682","0.0-7.0","202f75d1-3dfb-459e-80aa-10fb7ecbab3a","4003","<p style=""font-size: 42px;"">הנה עוד דוגמא:
                <br>ההגרלה מטה מציעה 35% סיכוי לזכות ב-₪18 
                <br>&emsp;&emsp;&emsp;&emsp;&emsp;&emsp;&emsp;&emsp;&ensp;65% סיכוי לזכות ב-₪0.</p>
        
                <p style=""text-align: center;"">₪18<br>35%</p>
                <p id=""wtp"" style=""text-align:center; margin-top: 0px; margin-bottom: 0px; font-size: 40px"";>מוכנים לשלם: <span id=""c_p_y""></span></p>","0","example","21","","","","","","","","","","","","","","","","","","","","",""
"","","","","","html-keyboard-response","8","438114","0.0-8.0","202f75d1-3dfb-459e-80aa-10fb7ecbab3a","null","<p>הייתם מוכנים לשלם  ₪0 כדי להשתתף בהגרלה:
                <p style=""text-align: center;"">₪18<br>35%</p>
                <p>כעת נניח שהמחשב בחר את ההגרלה הזו בסוף הניסוי, וקבע עבורה מחיר.
                <br><br>לחצו על העכבר כדי להמשיך.</p>","1","instructions","","","","","","","","","","","","","","","","","","","","","",""
"","","","","","html-keyboard-response","9","443130","0.0-9.0","202f75d1-3dfb-459e-80aa-10fb7ecbab3a","null","<p>המחשב קבע מחיר להגרלה: ₪0
                <br>ואתם בחרתם לשלם לכל היותר: ₪0
                <br><br>כעת המחיר שנקבע זהה לזה שבחרתם, אז תשלמו את המחיר שקבע המחשב (₪0) ותשתתפו בהגרלה.
                <br>במקרה כזה, תסיימו את הניסוי עם תקציב של ₪80 ועם סיכוי לזכות ב-₪18 נוספים מההגרלה.
                <br>כלומר, תוכלו לקבל ₪80 אם לא תזכו בהגרלה, או ₪98 אם תזכו בהגרלה.
                <br><br>לחצו על העכבר להמשך.</p>","1","example","","","","","","","","","","","","","","","","","","","","","",""
"","","","","","html-keyboard-response","10","449858","0.0-10.0","202f75d1-3dfb-459e-80aa-10fb7ecbab3a","null","<p>במהלך הניסוי, קודם תראו את ההגרלה ורק לאחר מכן תוכלו לבחור.
                <p>כמו כן, יהיו לכם מספר שניות מוגבל להגיב.
                <p>בואו ננסה זאת עם ההגרלה הקודמת.
                <br>לחצו על העכבר כדי להמשיך.</p>","1","instructions","","","","","","","","","","","","","","","","","","","","","",""
"","","","","","html-slider-response","11","451117","0.0-11.0","202f75d1-3dfb-459e-80aa-10fb7ecbab3a","1000","
                    <p style=""text-align: center;"">₪18<br>35%</p>
                    <p id=""wtp"" style=""text-align:center; margin-top: 0px; margin-bottom: 0px; font-size: 40px"";>&ensp;</p>","13","instructions","0","","","","","","","","","","","","","","","","","","","","",""
"","","","","","html-slider-response","12","454050","0.0-12.0","202f75d1-3dfb-459e-80aa-10fb7ecbab3a","2676","
                    <p style=""text-align: center;"">₪18<br>35%</p>
                    <p id=""wtp"" style=""text-align:center; margin-top: 0px; margin-bottom: 0px; font-size: 40px"";>מוכנים לשלם: <span id=""c_p_y""></span></p>","0","instructions","48","","","","","","","","","","","","","","","","","","","","",""
"","","","","","html-keyboard-response","13","455890","0.0-13.0","202f75d1-3dfb-459e-80aa-10fb7ecbab3a","null","<p>יפה. הפעם בחרתם לשלם לכל היותר ₪0.
                <br><br>לחצו על העכבר כדי להמשיך.</p>","1","instructions","","","","","","","","","","","","","","","","","","","","","",""
"","","","","","html-keyboard-response","14","461746","0.0-15.0","202f75d1-3dfb-459e-80aa-10fb7ecbab3a","null","<p>כעת נתחיל את הניסוי.
                <br><br>אתם תראו הגרלות ותתבקשו לבחור כמה תהיו מוכנים לשלם כדי להשתתף בהן.
                <br>יש לכם תקציב של ₪80 עבור כל הגרלה.
                <br>בסוף הניסוי הגרלה אחת תבחר באקראי ותשוחק.
                <br><br>לחצו על העכבר כדי להתחיל את הניסוי.</p>","1","instructions","","","","","","","","","","","","","","","","","","","","","",""
"","","","","","html-keyboard-response","15","463005","0.0-16.0","202f75d1-3dfb-459e-80aa-10fb7ecbab3a","null","<p style=""text-align: center;"">+</p>","null","fixation","","","","","","","","","","","","","","","","","","","","","",""
"","","","","","html-slider-response","16","464008","0.0-17.0-0.0","202f75d1-3dfb-459e-80aa-10fb7ecbab3a","1000","
                  <p style=""text-align: center;"">₪58
                                                <br>40%</p>
                  <p id=""wtp"" style=""text-align:center; margin-top: 0px; margin-bottom: 0px; font-size: 40px"";>&ensp;</p>","-","viewing","0","20","10C,13A,19C,21B","","","","","","","","","","","","","","","","","","",""
"","","","","","html-slider-response","17","468019","0.0-17.0-1.0","202f75d1-3dfb-459e-80aa-10fb7ecbab3a","null","
                  <p style=""text-align: center;"">₪58
                                                <br>40%</p>
                  <p id=""wtp"" style=""text-align:center; margin-top: 0px; margin-bottom: 0px; font-size: 40px"";>מוכנים לשלם: <span id=""c_p_y""></span></p>","null","evaluation","16","20","10C,13A,19C,21B","40","58","32","","","","","","","","","","","","","","","",""
"","","","","","html-keyboard-response","18","469244","0.0-17.0-2.0","202f75d1-3dfb-459e-80aa-10fb7ecbab3a","null","<p style=""text-align: center;"">+</p>","null","fixation","","","","","","","","","","","","","","","","","","","","","",""
"","","","","","html-slider-response","19","470247","0.0-17.0-0.1","202f75d1-3dfb-459e-80aa-10fb7ecbab3a","1000","
                  <p style=""text-align: center;"">₪36
                                                <br>70%</p>
                  <p id=""wtp"" style=""text-align:center; margin-top: 0px; margin-bottom: 0px; font-size: 40px"";>&ensp;</p>","-","viewing","0","13","3A,5C,10B","","","","","","","","","","","","","","","","","","",""
"","","","","","html-slider-response","20","472658","0.0-17.0-1.1","202f75d1-3dfb-459e-80aa-10fb7ecbab3a","2410","
                  <p style=""text-align: center;"">₪36
                                                <br>70%</p>
                  <p id=""wtp"" style=""text-align:center; margin-top: 0px; margin-bottom: 0px; font-size: 40px"";>מוכנים לשלם: <span id=""c_p_y""></span></p>","20","evaluation","45","13","3A,5C,10B","70","36","20","","","","","","","","","","","","","","","",""
"","","","","","html-keyboard-response","21","473547","0.0-17.0-2.1","202f75d1-3dfb-459e-80aa-10fb7ecbab3a","null","<p style=""text-align: center;"">+</p>","null","fixation","","","","","","","","","","","","","","","","","","","","","",""
"","","","","","html-slider-response","22","474549","0.0-17.0-0.2","202f75d1-3dfb-459e-80aa-10fb7ecbab3a","1000","
                  <p style=""text-align: center;"">₪64
                                                <br>50%</p>
                  <p id=""wtp"" style=""text-align:center; margin-top: 0px; margin-bottom: 0px; font-size: 40px"";>&ensp;</p>","-","viewing","0","25","1B,3B,4A","","","","","","","","","","","","","","","","","","",""
"","","","","","html-slider-response","23","478559","0.0-17.0-1.2","202f75d1-3dfb-459e-80aa-10fb7ecbab3a","null","
                  <p style=""text-align: center;"">₪64
                                                <br>50%</p>
                  <p id=""wtp"" style=""text-align:center; margin-top: 0px; margin-bottom: 0px; font-size: 40px"";>מוכנים לשלם: <span id=""c_p_y""></span></p>","null","evaluation","42","25","1B,3B,4A","50","64","19","","","","","","","","","","","","","","","",""
"","","","","","html-keyboard-response","24","479660","0.0-17.0-2.2","202f75d1-3dfb-459e-80aa-10fb7ecbab3a","null","<p style=""text-align: center;"">+</p>","null","fixation","","","","","","","","","","","","","","","","","","","","","",""
"","","","","","html-slider-response","25","480665","0.0-17.0-0.3","202f75d1-3dfb-459e-80aa-10fb7ecbab3a","1000","
                  <p style=""text-align: center;"">₪58
                                                <br>30%</p>
                  <p id=""wtp"" style=""text-align:center; margin-top: 0px; margin-bottom: 0px; font-size: 40px"";>&ensp;</p>","-","viewing","0","19","13C,30A","","","","","","","","","","","","","","","","","","",""
"","","","","","html-slider-response","26","483426","0.0-17.0-1.3","202f75d1-3dfb-459e-80aa-10fb7ecbab3a","2760","
                  <p style=""text-align: center;"">₪58
                                                <br>30%</p>
                  <p id=""wtp"" style=""text-align:center; margin-top: 0px; margin-bottom: 0px; font-size: 40px"";>מוכנים לשלם: <span id=""c_p_y""></span></p>","40","evaluation","48","19","13C,30A","30","58","40","","","","","","","","","","","","","","","",""
"","","","","","html-keyboard-response","27","484872","0.0-17.0-2.3","202f75d1-3dfb-459e-80aa-10fb7ecbab3a","null","<p style=""text-align: center;"">+</p>","null","fixation","","","","","","","","","","","","","","","","","","","","","",""
"","","","","","html-slider-response","28","485876","0.0-17.0-0.4","202f75d1-3dfb-459e-80aa-10fb7ecbab3a","1000","
                  <p style=""text-align: center;"">₪61
                                                <br>55%</p>
                  <p id=""wtp"" style=""text-align:center; margin-top: 0px; margin-bottom: 0px; font-size: 40px"";>&ensp;</p>","-","viewing","0","23","7B,26B","","","","","","","","","","","","","","","","","","",""
"","","","","","html-slider-response","29","488946","0.0-17.0-1.4","202f75d1-3dfb-459e-80aa-10fb7ecbab3a","3069","
                  <p style=""text-align: center;"">₪61
                                                <br>55%</p>
                  <p id=""wtp"" style=""text-align:center; margin-top: 0px; margin-bottom: 0px; font-size: 40px"";>מוכנים לשלם: <span id=""c_p_y""></span></p>","52","evaluation","62","23","7B,26B","55","61","52","","","","","","","","","","","","","","","",""
"","","","","","html-keyboard-response","30","489967","0.0-17.0-2.4","202f75d1-3dfb-459e-80aa-10fb7ecbab3a","null","<p style=""text-align: center;"">+</p>","null","fixation","","","","","","","","","","","","","","","","","","","","","",""
"","","","","","html-slider-response","31","490973","0.0-17.0-0.5","202f75d1-3dfb-459e-80aa-10fb7ecbab3a","1000","
                  <p style=""text-align: center;"">₪58
                                                <br>45%</p>
                  <p id=""wtp"" style=""text-align:center; margin-top: 0px; margin-bottom: 0px; font-size: 40px"";>&ensp;</p>","-","viewing","0","21","11C,18C,25A","","","","","","","","","","","","","","","","","","",""
"","","","","","html-slider-response","32","494258","0.0-17.0-1.5","202f75d1-3dfb-459e-80aa-10fb7ecbab3a","3284","
                  <p style=""text-align: center;"">₪58
                                                <br>45%</p>
                  <p id=""wtp"" style=""text-align:center; margin-top: 0px; margin-bottom: 0px; font-size: 40px"";>מוכנים לשלם: <span id=""c_p_y""></span></p>","30","evaluation","46","21","11C,18C,25A","45","58","30","","","","","","","","","","","","","","","",""
"","","","","","html-keyboard-response","33","495187","0.0-17.0-2.5","202f75d1-3dfb-459e-80aa-10fb7ecbab3a","null","<p style=""text-align: center;"">+</p>","null","fixation","","","","","","","","","","","","","","","","","","","","","",""
"","","","","","html-slider-response","34","496192","0.0-17.0-0.6","202f75d1-3dfb-459e-80aa-10fb7ecbab3a","1000","
                  <p style=""text-align: center;"">₪36
                                                <br>75%</p>
                  <p id=""wtp"" style=""text-align:center; margin-top: 0px; margin-bottom: 0px; font-size: 40px"";>&ensp;</p>","-","viewing","0","14","4B,5A,13B,16B","","","","","","","","","","","","","","","","","","",""
"","","","","","html-slider-response","35","499986","0.0-17.0-1.6","202f75d1-3dfb-459e-80aa-10fb7ecbab3a","3793","
                  <p style=""text-align: center;"">₪36
                                                <br>75%</p>
                  <p id=""wtp"" style=""text-align:center; margin-top: 0px; margin-bottom: 0px; font-size: 40px"";>מוכנים לשלם: <span id=""c_p_y""></span></p>","58","evaluation","32","14","4B,5A,13B,16B","75","36","58","","","","","","","","","","","","","","","",""
"","","","","","html-keyboard-response","36","501357","0.0-17.0-2.6","202f75d1-3dfb-459e-80aa-10fb7ecbab3a","null","<p style=""text-align: center;"">+</p>","null","fixation","","","","","","","","","","","","","","","","","","","","","",""
"","","","","","html-slider-response","37","502365","0.0-17.0-0.7","202f75d1-3dfb-459e-80aa-10fb7ecbab3a","1000","
                  <p style=""text-align: center;"">₪61
                                                <br>45%</p>
                  <p id=""wtp"" style=""text-align:center; margin-top: 0px; margin-bottom: 0px; font-size: 40px"";>&ensp;</p>","-","viewing","0","22","10A,11A","","","","","","","","","","","","","","","","","","",""
"","","","","","html-slider-response","38","506373","0.0-17.0-1.7","202f75d1-3dfb-459e-80aa-10fb7ecbab3a","null","
                  <p style=""text-align: center;"">₪61
                                                <br>45%</p>
                  <p id=""wtp"" style=""text-align:center; margin-top: 0px; margin-bottom: 0px; font-size: 40px"";>מוכנים לשלם: <span id=""c_p_y""></span></p>","null","evaluation","8","22","10A,11A","45","61","19","","","","","","","","","","","","","","","",""
"","","","","","html-keyboard-response","39","507442","0.0-17.0-2.7","202f75d1-3dfb-459e-80aa-10fb7ecbab3a","null","<p style=""text-align: center;"">+</p>","null","fixation","","","","","","","","","","","","","","","","","","","","","",""
"","","","","","html-slider-response","40","508445","0.0-17.0-0.8","202f75d1-3dfb-459e-80aa-10fb7ecbab3a","1000","
                  <p style=""text-align: center;"">₪36
                                                <br>60%</p>
                  <p id=""wtp"" style=""text-align:center; margin-top: 0px; margin-bottom: 0px; font-size: 40px"";>&ensp;</p>","-","viewing","0","12","1C,7C,15C","","","","","","","","","","","","","","","","","","",""
"","","","","","html-slider-response","41","510170","0.0-17.0-1.8","202f75d1-3dfb-459e-80aa-10fb7ecbab3a","1724","
                  <p style=""text-align: center;"">₪36
                                                <br>60%</p>
                  <p id=""wtp"" style=""text-align:center; margin-top: 0px; margin-bottom: 0px; font-size: 40px"";>מוכנים לשלם: <span id=""c_p_y""></span></p>","40","evaluation","16","12","1C,7C,15C","60","36","40","","","","","","","","","","","","","","","",""
"","","","","","html-keyboard-response","42","511357","0.0-17.0-2.8","202f75d1-3dfb-459e-80aa-10fb7ecbab3a","null","<p style=""text-align: center;"">+</p>","null","fixation","","","","","","","","","","","","","","","","","","","","","",""
"","","","","","html-slider-response","43","512371","0.0-17.0-0.9","202f75d1-3dfb-459e-80aa-10fb7ecbab3a","1000","
                  <p style=""text-align: center;"">₪71
                                                <br>45%</p>
                  <p id=""wtp"" style=""text-align:center; margin-top: 0px; margin-bottom: 0px; font-size: 40px"";>&ensp;</p>","-","viewing","0","26","2B,16A","","","","","","","","","","","","","","","","","","",""
"","","","","","html-slider-response","44","516385","0.0-17.0-1.9","202f75d1-3dfb-459e-80aa-10fb7ecbab3a","null","
                  <p style=""text-align: center;"">₪71
                                                <br>45%</p>
                  <p id=""wtp"" style=""text-align:center; margin-top: 0px; margin-bottom: 0px; font-size: 40px"";>מוכנים לשלם: <span id=""c_p_y""></span></p>","null","evaluation","68","26","2B,16A","45","71","31","","","","","","","","","","","","","","","",""
"","","","","","html-keyboard-response","45","517777","0.0-17.0-2.9","202f75d1-3dfb-459e-80aa-10fb7ecbab3a","null","<p style=""text-align: center;"">+</p>","null","fixation","","","","","","","","","","","","","","","","","","","","","",""
"","","","","","html-slider-response","46","518789","0.0-17.0-0.10","202f75d1-3dfb-459e-80aa-10fb7ecbab3a","1000","
                  <p style=""text-align: center;"">₪43
                                                <br>75%</p>
                  <p id=""wtp"" style=""text-align:center; margin-top: 0px; margin-bottom: 0px; font-size: 40px"";>&ensp;</p>","-","viewing","0","18","11B,19B,24A,26A","","","","","","","","","","","","","","","","","","",""
"","","","","","html-slider-response","47","521386","0.0-17.0-1.10","202f75d1-3dfb-459e-80aa-10fb7ecbab3a","2596","
                  <p style=""text-align: center;"">₪43
                                                <br>75%</p>
                  <p id=""wtp"" style=""text-align:center; margin-top: 0px; margin-bottom: 0px; font-size: 40px"";>מוכנים לשלם: <span id=""c_p_y""></span></p>","60","evaluation","77","18","11B,19B,24A,26A","75","43","60","","","","","","","","","","","","","","","",""
"","","","","","html-keyboard-response","48","522280","0.0-17.0-2.10","202f75d1-3dfb-459e-80aa-10fb7ecbab3a","null","<p style=""text-align: center;"">+</p>","null","fixation","","","","","","","","","","","","","","","","","","","","","",""
"","","","","","html-slider-response","49","523287","0.0-17.0-0.11","202f75d1-3dfb-459e-80aa-10fb7ecbab3a","1000","
                  <p style=""text-align: center;"">₪43
                                                <br>60%</p>
                  <p id=""wtp"" style=""text-align:center; margin-top: 0px; margin-bottom: 0px; font-size: 40px"";>&ensp;</p>","-","viewing","0","17","2A,7A,9A,15B","","","","","","","","","","","","","","","","","","",""
"","","","","","html-slider-response","50","526378","0.0-17.0-1.11","202f75d1-3dfb-459e-80aa-10fb7ecbab3a","3089","
                  <p style=""text-align: center;"">₪43
                                                <br>60%</p>
                  <p id=""wtp"" style=""text-align:center; margin-top: 0px; margin-bottom: 0px; font-size: 40px"";>מוכנים לשלם: <span id=""c_p_y""></span></p>","40","evaluation","22","17","2A,7A,9A,15B","60","43","40","","","","","","","","","","","","","","","",""
"","","","","","html-keyboard-response","51","526921","0.0-17.0-2.11","202f75d1-3dfb-459e-80aa-10fb7ecbab3a","null","<p style=""text-align: center;"">+</p>","null","fixation","","","","","","","","","","","","","","","","","","","","","",""
"","","","","","html-slider-response","52","527924","0.0-17.0-0.12","202f75d1-3dfb-459e-80aa-10fb7ecbab3a","1000","
                  <p style=""text-align: center;"">₪11
                                                <br>45%</p>
                  <p id=""wtp"" style=""text-align:center; margin-top: 0px; margin-bottom: 0px; font-size: 40px"";>&ensp;</p>","-","viewing","0","6","14B,21C,25C","","","","","","","","","","","","","","","","","","",""
"","","","","","html-slider-response","53","530234","0.0-17.0-1.12","202f75d1-3dfb-459e-80aa-10fb7ecbab3a","2309","
                  <p style=""text-align: center;"">₪11
                                                <br>45%</p>
                  <p id=""wtp"" style=""text-align:center; margin-top: 0px; margin-bottom: 0px; font-size: 40px"";>מוכנים לשלם: <span id=""c_p_y""></span></p>","11","evaluation","63","6","14B,21C,25C","45","11","12","","","","","","","","","","","","","","","",""
"","","","","","html-keyboard-response","54","531397","0.0-17.0-2.12","202f75d1-3dfb-459e-80aa-10fb7ecbab3a","null","<p style=""text-align: center;"">+</p>","null","fixation","","","","","","","","","","","","","","","","","","","","","",""
"","","","","","html-slider-response","55","532409","0.0-17.0-0.13","202f75d1-3dfb-459e-80aa-10fb7ecbab3a","1000","
                  <p style=""text-align: center;"">₪4
                                                <br>75%</p>
                  <p id=""wtp"" style=""text-align:center; margin-top: 0px; margin-bottom: 0px; font-size: 40px"";>&ensp;</p>","-","viewing","0","3","12B,20B,23B,27C,29C","","","","","","","","","","","","","","","","","","",""
"","","","","","html-slider-response","56","533818","0.0-17.0-1.13","202f75d1-3dfb-459e-80aa-10fb7ecbab3a","1408","
                  <p style=""text-align: center;"">₪4
                                                <br>75%</p>
                  <p id=""wtp"" style=""text-align:center; margin-top: 0px; margin-bottom: 0px; font-size: 40px"";>מוכנים לשלם: <span id=""c_p_y""></span></p>","0","evaluation","78","3","12B,20B,23B,27C,29C","75","4","0","","","","","","","","","","","","","","","",""
"","","","","","html-keyboard-response","57","534422","0.0-17.0-2.13","202f75d1-3dfb-459e-80aa-10fb7ecbab3a","null","<p style=""text-align: center;"">+</p>","null","fixation","","","","","","","","","","","","","","","","","","","","","",""
"","","","","","html-slider-response","58","535436","0.0-17.0-0.14","202f75d1-3dfb-459e-80aa-10fb7ecbab3a","1000","
                  <p style=""text-align: center;"">₪79
                                                <br>40%</p>
                  <p id=""wtp"" style=""text-align:center; margin-top: 0px; margin-bottom: 0px; font-size: 40px"";>&ensp;</p>","-","viewing","0","30","9B","","","","","","","","","","","","","","","","","","",""
"","","","","","html-slider-response","59","539162","0.0-17.0-1.14","202f75d1-3dfb-459e-80aa-10fb7ecbab3a","3725","
                  <p style=""text-align: center;"">₪79
                                                <br>40%</p>
                  <p id=""wtp"" style=""text-align:center; margin-top: 0px; margin-bottom: 0px; font-size: 40px"";>מוכנים לשלם: <span id=""c_p_y""></span></p>","20","evaluation","48","30","9B","40","79","21","","","","","","","","","","","","","","","",""
"","","","","","html-keyboard-response","60","540526","0.0-17.0-2.14","202f75d1-3dfb-459e-80aa-10fb7ecbab3a","null","<p style=""text-align: center;"">+</p>","null","fixation","","","","","","","","","","","","","","","","","","","","","",""
"","","","","","html-slider-response","61","541528","0.0-17.0-0.15","202f75d1-3dfb-459e-80aa-10fb7ecbab3a","1000","
                  <p style=""text-align: center;"">₪39
                                                <br>65%</p>
                  <p id=""wtp"" style=""text-align:center; margin-top: 0px; margin-bottom: 0px; font-size: 40px"";>&ensp;</p>","-","viewing","0","16","1A,15A,26C","","","","","","","","","","","","","","","","","","",""
"","","","","","html-slider-response","62","544379","0.0-17.0-1.15","202f75d1-3dfb-459e-80aa-10fb7ecbab3a","2850","
                  <p style=""text-align: center;"">₪39
                                                <br>65%</p>
                  <p id=""wtp"" style=""text-align:center; margin-top: 0px; margin-bottom: 0px; font-size: 40px"";>מוכנים לשלם: <span id=""c_p_y""></span></p>","40","evaluation","69","16","1A,15A,26C","65","39","40","","","","","","","","","","","","","","","",""
"","","","","","html-keyboard-response","63","545536","0.0-17.0-2.15","202f75d1-3dfb-459e-80aa-10fb7ecbab3a","null","<p style=""text-align: center;"">+</p>","null","fixation","","","","","","","","","","","","","","","","","","","","","",""
"","","","","","html-slider-response","64","546539","0.0-17.0-0.16","202f75d1-3dfb-459e-80aa-10fb7ecbab3a","1000","
                  <p style=""text-align: center;"">₪4
                                                <br>25%</p>
                  <p id=""wtp"" style=""text-align:center; margin-top: 0px; margin-bottom: 0px; font-size: 40px"";>&ensp;</p>","-","viewing","0","1","6C,29B,30C","","","","","","","","","","","","","","","","","","",""
"","","","","","html-slider-response","65","547098","0.0-17.0-1.16","202f75d1-3dfb-459e-80aa-10fb7ecbab3a","558","
                  <p style=""text-align: center;"">₪4
                                                <br>25%</p>
                  <p id=""wtp"" style=""text-align:center; margin-top: 0px; margin-bottom: 0px; font-size: 40px"";>מוכנים לשלם: <span id=""c_p_y""></span></p>","0","evaluation","31","1","6C,29B,30C","25","4","0","","","","","","","","","","","","","","","",""
"","","","","","html-keyboard-response","66","547812","0.0-17.0-2.16","202f75d1-3dfb-459e-80aa-10fb7ecbab3a","null","<p style=""text-align: center;"">+</p>","null","fixation","","","","","","","","","","","","","","","","","","","","","",""
"","","","","","html-slider-response","67","548817","0.0-17.0-0.17","202f75d1-3dfb-459e-80aa-10fb7ecbab3a","1000","
                  <p style=""text-align: center;"">₪71
                                                <br>75%</p>
                  <p id=""wtp"" style=""text-align:center; margin-top: 0px; margin-bottom: 0px; font-size: 40px"";>&ensp;</p>","-","viewing","0","28","8B","","","","","","","","","","","","","","","","","","",""
"","","","","","html-slider-response","68","550915","0.0-17.0-1.17","202f75d1-3dfb-459e-80aa-10fb7ecbab3a","2097","
                  <p style=""text-align: center;"">₪71
                                                <br>75%</p>
                  <p id=""wtp"" style=""text-align:center; margin-top: 0px; margin-bottom: 0px; font-size: 40px"";>מוכנים לשלם: <span id=""c_p_y""></span></p>","71","evaluation","37","28","8B","75","71","71","","","","","","","","","","","","","","","",""
"","","","","","html-keyboard-response","69","552138","0.0-17.0-2.17","202f75d1-3dfb-459e-80aa-10fb7ecbab3a","null","<p style=""text-align: center;"">+</p>","null","fixation","","","","","","","","","","","","","","","","","","","","","",""
"","","","","","html-slider-response","70","553153","0.0-17.0-0.18","202f75d1-3dfb-459e-80aa-10fb7ecbab3a","1000","
                  <p style=""text-align: center;"">₪71
                                                <br>55%</p>
                  <p id=""wtp"" style=""text-align:center; margin-top: 0px; margin-bottom: 0px; font-size: 40px"";>&ensp;</p>","-","viewing","0","27","5B,18A","","","","","","","","","","","","","","","","","","",""
"","","","","","html-slider-response","71","555875","0.0-17.0-1.18","202f75d1-3dfb-459e-80aa-10fb7ecbab3a","2721","
                  <p style=""text-align: center;"">₪71
                                                <br>55%</p>
                  <p id=""wtp"" style=""text-align:center; margin-top: 0px; margin-bottom: 0px; font-size: 40px"";>מוכנים לשלם: <span id=""c_p_y""></span></p>","40","evaluation","79","27","5B,18A","55","71","40","","","","","","","","","","","","","","","",""
"","","","","","html-keyboard-response","72","557336","0.0-17.0-2.18","202f75d1-3dfb-459e-80aa-10fb7ecbab3a","null","<p style=""text-align: center;"">+</p>","null","fixation","","","","","","","","","","","","","","","","","","","","","",""
"","","","","","html-slider-response","73","558352","0.0-17.0-0.19","202f75d1-3dfb-459e-80aa-10fb7ecbab3a","1000","
                  <p style=""text-align: center;"">₪76
                                                <br>65%</p>
                  <p id=""wtp"" style=""text-align:center; margin-top: 0px; margin-bottom: 0px; font-size: 40px"";>&ensp;</p>","-","viewing","0","29","8C,19A,24B","","","","","","","","","","","","","","","","","","",""
"","","","","","html-slider-response","74","561811","0.0-17.0-1.19","202f75d1-3dfb-459e-80aa-10fb7ecbab3a","3458","
                  <p style=""text-align: center;"">₪76
                                                <br>65%</p>
                  <p id=""wtp"" style=""text-align:center; margin-top: 0px; margin-bottom: 0px; font-size: 40px"";>מוכנים לשלם: <span id=""c_p_y""></span></p>","61","evaluation","55","29","8C,19A,24B","65","76","60","","","","","","","","","","","","","","","",""
"","","","","","html-keyboard-response","75","562819","0.0-17.0-2.19","202f75d1-3dfb-459e-80aa-10fb7ecbab3a","null","<p style=""text-align: center;"">+</p>","null","fixation","","","","","","","","","","","","","","","","","","","","","",""
"","","","","","html-slider-response","76","563829","0.0-17.0-0.20","202f75d1-3dfb-459e-80aa-10fb7ecbab3a","1000","
                  <p style=""text-align: center;"">₪11
                                                <br>20%</p>
                  <p id=""wtp"" style=""text-align:center; margin-top: 0px; margin-bottom: 0px; font-size: 40px"";>&ensp;</p>","-","viewing","0","4","12C,17C,23C,28C","","","","","","","","","","","","","","","","","","",""
"","","","","","html-slider-response","77","565451","0.0-17.0-1.20","202f75d1-3dfb-459e-80aa-10fb7ecbab3a","1622","
                  <p style=""text-align: center;"">₪11
                                                <br>20%</p>
                  <p id=""wtp"" style=""text-align:center; margin-top: 0px; margin-bottom: 0px; font-size: 40px"";>מוכנים לשלם: <span id=""c_p_y""></span></p>","0","evaluation","63","4","12C,17C,23C,28C","20","11","1","","","","","","","","","","","","","","","",""
"","","","","","html-keyboard-response","78","566353","0.0-17.0-2.20","202f75d1-3dfb-459e-80aa-10fb7ecbab3a","null","<p style=""text-align: center;"">+</p>","null","fixation","","","","","","","","","","","","","","","","","","","","","",""
"","","","","","html-slider-response","79","567355","0.0-17.0-0.21","202f75d1-3dfb-459e-80aa-10fb7ecbab3a","1000","
                  <p style=""text-align: center;"">₪16
                                                <br>20%</p>
                  <p id=""wtp"" style=""text-align:center; margin-top: 0px; margin-bottom: 0px; font-size: 40px"";>&ensp;</p>","-","viewing","0","8","14C,17A,20C,27A","","","","","","","","","","","","","","","","","","",""
"","","","","","html-slider-response","80","570403","0.0-17.0-1.21","202f75d1-3dfb-459e-80aa-10fb7ecbab3a","3047","
                  <p style=""text-align: center;"">₪16
                                                <br>20%</p>
                  <p id=""wtp"" style=""text-align:center; margin-top: 0px; margin-bottom: 0px; font-size: 40px"";>מוכנים לשלם: <span id=""c_p_y""></span></p>","2","evaluation","0","8","14C,17A,20C,27A","20","16","3","","","","","","","","","","","","","","","",""
"","","","","","html-keyboard-response","81","571047","0.0-17.0-2.21","202f75d1-3dfb-459e-80aa-10fb7ecbab3a","null","<p style=""text-align: center;"">+</p>","null","fixation","","","","","","","","","","","","","","","","","","","","","",""
"","","","","","html-slider-response","82","572049","0.0-17.0-0.22","202f75d1-3dfb-459e-80aa-10fb7ecbab3a","1000","
                  <p style=""text-align: center;"">₪36
                                                <br>30%</p>
                  <p id=""wtp"" style=""text-align:center; margin-top: 0px; margin-bottom: 0px; font-size: 40px"";>&ensp;</p>","-","viewing","0","11","3C,20A,22A","","","","","","","","","","","","","","","","","","",""
"","","","","","html-slider-response","83","573691","0.0-17.0-1.22","202f75d1-3dfb-459e-80aa-10fb7ecbab3a","1641","
                  <p style=""text-align: center;"">₪36
                                                <br>30%</p>
                  <p id=""wtp"" style=""text-align:center; margin-top: 0px; margin-bottom: 0px; font-size: 40px"";>מוכנים לשלם: <span id=""c_p_y""></span></p>","20","evaluation","43","11","3C,20A,22A","30","36","20","","","","","","","","","","","","","","","",""
"","","","","","html-keyboard-response","84","574446","0.0-17.0-2.22","202f75d1-3dfb-459e-80aa-10fb7ecbab3a","null","<p style=""text-align: center;"">+</p>","null","fixation","","","","","","","","","","","","","","","","","","","","","",""
"","","","","","html-slider-response","85","575462","0.0-17.0-0.23","202f75d1-3dfb-459e-80aa-10fb7ecbab3a","1000","
                  <p style=""text-align: center;"">₪39
                                                <br>60%</p>
                  <p id=""wtp"" style=""text-align:center; margin-top: 0px; margin-bottom: 0px; font-size: 40px"";>&ensp;</p>","-","viewing","0","15","9C,25B","","","","","","","","","","","","","","","","","","",""
"","","","","","html-slider-response","86","577475","0.0-17.0-1.23","202f75d1-3dfb-459e-80aa-10fb7ecbab3a","2012","
                  <p style=""text-align: center;"">₪39
                                                <br>60%</p>
                  <p id=""wtp"" style=""text-align:center; margin-top: 0px; margin-bottom: 0px; font-size: 40px"";>מוכנים לשלם: <span id=""c_p_y""></span></p>","19","evaluation","30","15","9C,25B","60","39","20","","","","","","","","","","","","","","","",""
"","","","","","html-keyboard-response","87","578514","0.0-17.0-2.23","202f75d1-3dfb-459e-80aa-10fb7ecbab3a","null","<p style=""text-align: center;"">+</p>","null","fixation","","","","","","","","","","","","","","","","","","","","","",""
"","","","","","html-slider-response","88","579522","0.0-17.0-0.24","202f75d1-3dfb-459e-80aa-10fb7ecbab3a","1000","
                  <p style=""text-align: center;"">₪18
                                                <br>25%</p>
                  <p id=""wtp"" style=""text-align:center; margin-top: 0px; margin-bottom: 0px; font-size: 40px"";>&ensp;</p>","-","viewing","0","9","14A,23A","","","","","","","","","","","","","","","","","","",""
"","","","","","html-slider-response","89","581339","0.0-17.0-1.24","202f75d1-3dfb-459e-80aa-10fb7ecbab3a","1816","
                  <p style=""text-align: center;"">₪18
                                                <br>25%</p>
                  <p id=""wtp"" style=""text-align:center; margin-top: 0px; margin-bottom: 0px; font-size: 40px"";>מוכנים לשלם: <span id=""c_p_y""></span></p>","0","evaluation","71","9","14A,23A","25","18","0","","","","","","","","","","","","","","","",""
"","","","","","html-keyboard-response","90","582602","0.0-17.0-2.24","202f75d1-3dfb-459e-80aa-10fb7ecbab3a","null","<p style=""text-align: center;"">+</p>","null","fixation","","","","","","","","","","","","","","","","","","","","","",""
"","","","","","html-slider-response","91","583604","0.0-17.0-0.25","202f75d1-3dfb-459e-80aa-10fb7ecbab3a","1000","
                  <p style=""text-align: center;"">₪64
                                                <br>25%</p>
                  <p id=""wtp"" style=""text-align:center; margin-top: 0px; margin-bottom: 0px; font-size: 40px"";>&ensp;</p>","-","viewing","0","24","6A,21A","","","","","","","","","","","","","","","","","","",""
"","","","","","html-slider-response","92","584875","0.0-17.0-1.25","202f75d1-3dfb-459e-80aa-10fb7ecbab3a","1270","
                  <p style=""text-align: center;"">₪64
                                                <br>25%</p>
                  <p id=""wtp"" style=""text-align:center; margin-top: 0px; margin-bottom: 0px; font-size: 40px"";>מוכנים לשלם: <span id=""c_p_y""></span></p>","0","evaluation","34","24","6A,21A","25","64","0","","","","","","","","","","","","","","","",""
"","","","","","html-keyboard-response","93","585811","0.0-17.0-2.25","202f75d1-3dfb-459e-80aa-10fb7ecbab3a","null","<p style=""text-align: center;"">+</p>","null","fixation","","","","","","","","","","","","","","","","","","","","","",""
"","","","","","html-slider-response","94","586826","0.0-17.0-0.26","202f75d1-3dfb-459e-80aa-10fb7ecbab3a","1000","
                  <p style=""text-align: center;"">₪11
                                                <br>75%</p>
                  <p id=""wtp"" style=""text-align:center; margin-top: 0px; margin-bottom: 0px; font-size: 40px"";>&ensp;</p>","-","viewing","0","7","6B,18B,22C,24C,29A","","","","","","","","","","","","","","","","","","",""
"","","","","","html-slider-response","95","589011","0.0-17.0-1.26","202f75d1-3dfb-459e-80aa-10fb7ecbab3a","2184","
                  <p style=""text-align: center;"">₪11
                                                <br>75%</p>
                  <p id=""wtp"" style=""text-align:center; margin-top: 0px; margin-bottom: 0px; font-size: 40px"";>מוכנים לשלם: <span id=""c_p_y""></span></p>","20","evaluation","47","7","6B,18B,22C,24C,29A","75","11","20","","","","","","","","","","","","","","","",""
"","","","","","html-keyboard-response","96","589587","0.0-17.0-2.26","202f75d1-3dfb-459e-80aa-10fb7ecbab3a","null","<p style=""text-align: center;"">+</p>","null","fixation","","","","","","","","","","","","","","","","","","","","","",""
"","","","","","html-slider-response","97","590603","0.0-17.0-0.27","202f75d1-3dfb-459e-80aa-10fb7ecbab3a","1000","
                  <p style=""text-align: center;"">₪11
                                                <br>25%</p>
                  <p id=""wtp"" style=""text-align:center; margin-top: 0px; margin-bottom: 0px; font-size: 40px"";>&ensp;</p>","-","viewing","0","5","12A,27B,28B,30B","","","","","","","","","","","","","","","","","","",""
"","","","","","html-slider-response","98","591611","0.0-17.0-1.27","202f75d1-3dfb-459e-80aa-10fb7ecbab3a","1007","
                  <p style=""text-align: center;"">₪11
                                                <br>25%</p>
                  <p id=""wtp"" style=""text-align:center; margin-top: 0px; margin-bottom: 0px; font-size: 40px"";>מוכנים לשלם: <span id=""c_p_y""></span></p>","0","evaluation","1","5","12A,27B,28B,30B","25","11","0","","","","","","","","","","","","","","","",""
"","","","","","html-keyboard-response","99","592437","0.0-17.0-2.27","202f75d1-3dfb-459e-80aa-10fb7ecbab3a","null","<p style=""text-align: center;"">+</p>","null","fixation","","","","","","","","","","","","","","","","","","","","","",""
"","","","","","html-slider-response","100","593444","0.0-17.0-0.28","202f75d1-3dfb-459e-80aa-10fb7ecbab3a","1000","
                  <p style=""text-align: center;"">₪4
                                                <br>50%</p>
                  <p id=""wtp"" style=""text-align:center; margin-top: 0px; margin-bottom: 0px; font-size: 40px"";>&ensp;</p>","-","viewing","0","2","4C,17B","","","","","","","","","","","","","","","","","","",""
"","","","","","html-slider-response","101","596427","0.0-17.0-1.28","202f75d1-3dfb-459e-80aa-10fb7ecbab3a","2982","
                  <p style=""text-align: center;"">₪4
                                                <br>50%</p>
                  <p id=""wtp"" style=""text-align:center; margin-top: 0px; margin-bottom: 0px; font-size: 40px"";>מוכנים לשלם: <span id=""c_p_y""></span></p>","3","evaluation","13","2","4C,17B","50","4","4","","","","","","","","","","","","","","","",""
"","","","","","html-keyboard-response","102","597551","0.0-17.0-2.28","202f75d1-3dfb-459e-80aa-10fb7ecbab3a","null","<p style=""text-align: center;"">+</p>","null","fixation","","","","","","","","","","","","","","","","","","","","","",""
"","","","","","html-slider-response","103","598567","0.0-17.0-0.29","202f75d1-3dfb-459e-80aa-10fb7ecbab3a","1000","
                  <p style=""text-align: center;"">₪79
                                                <br>65%</p>
                  <p id=""wtp"" style=""text-align:center; margin-top: 0px; margin-bottom: 0px; font-size: 40px"";>&ensp;</p>","-","viewing","0","31","8A","","","","","","","","","","","","","","","","","","",""
"","","","","","html-slider-response","104","601707","0.0-17.0-1.29","202f75d1-3dfb-459e-80aa-10fb7ecbab3a","3139","
                  <p style=""text-align: center;"">₪79
                                                <br>65%</p>
                  <p id=""wtp"" style=""text-align:center; margin-top: 0px; margin-bottom: 0px; font-size: 40px"";>מוכנים לשלם: <span id=""c_p_y""></span></p>","60","evaluation","61","31","8A","65","79","60","","","","","","","","","","","","","","","",""
"","","","","","html-keyboard-response","105","602563","0.0-17.0-2.29","202f75d1-3dfb-459e-80aa-10fb7ecbab3a","null","<p style=""text-align: center;"">+</p>","null","fixation","","","","","","","","","","","","","","","","","","","","","",""
"","","","","","html-slider-response","106","603577","0.0-17.0-0.30","202f75d1-3dfb-459e-80aa-10fb7ecbab3a","1000","
                  <p style=""text-align: center;"">₪18
                                                <br>50%</p>
                  <p id=""wtp"" style=""text-align:center; margin-top: 0px; margin-bottom: 0px; font-size: 40px"";>&ensp;</p>","-","viewing","0","10","2C,16C,22B,28A","","","","","","","","","","","","","","","","","","",""
"","","","","","html-slider-response","107","606755","0.0-17.0-1.30","202f75d1-3dfb-459e-80aa-10fb7ecbab3a","3177","
                  <p style=""text-align: center;"">₪18
                                                <br>50%</p>
                  <p id=""wtp"" style=""text-align:center; margin-top: 0px; margin-bottom: 0px; font-size: 40px"";>מוכנים לשלם: <span id=""c_p_y""></span></p>","16","evaluation","46","10","2C,16C,22B,28A","50","18","16","","","","","","","","","","","","","","","",""
"","","","","","html-keyboard-response","108","608194","0.0-17.0-2.30","202f75d1-3dfb-459e-80aa-10fb7ecbab3a","null","<p style=""text-align: center;"">+</p>","null","fixation","","","","","","","","","","","","","","","","","","","","","",""
"","","","","","html-keyboard-response","109","609203","0.0-18.0","202f75d1-3dfb-459e-80aa-10fb7ecbab3a","null","<p style=""text-align: center;"">+</p>","null","fixation","","","","","","","","","","","","","","","","","","","","","",""
"","","","","","html-keyboard-response","110","612659","0.0-19.0","202f75d1-3dfb-459e-80aa-10fb7ecbab3a","null","<p>הפסקה.
          <br>לחצו כדי להמשיך.</p>","1","scan_wait","","","","","","","","","","","","","","","","","","","","","",""
"","","","","","html-keyboard-response","111","613670","0.0-20.0","202f75d1-3dfb-459e-80aa-10fb7ecbab3a","null","<p style=""text-align: center;"">+</p>","null","fixation","","","","","","","","","","","","","","","","","","","","","",""
"","","","","","html-slider-response","112","614680","0.0-21.0-0.0","202f75d1-3dfb-459e-80aa-10fb7ecbab3a","1000","
                  <p style=""text-align: center;"">₪16
                                                <br>20%</p>
                  <p id=""wtp"" style=""text-align:center; margin-top: 0px; margin-bottom: 0px; font-size: 40px"";>&ensp;</p>","-","viewing","0","8","14C,17A,20C,27A","","","","","","","","","","","","","","","","","","",""
"","","","","","html-slider-response","113","616187","0.0-21.0-1.0","202f75d1-3dfb-459e-80aa-10fb7ecbab3a","1506","
                  <p style=""text-align: center;"">₪16
                                                <br>20%</p>
                  <p id=""wtp"" style=""text-align:center; margin-top: 0px; margin-bottom: 0px; font-size: 40px"";>מוכנים לשלם: <span id=""c_p_y""></span></p>","1","evaluation","72","8","14C,17A,20C,27A","20","16","1","","","","","","","","","","","","","","","",""
"","","","","","html-keyboard-response","114","617217","0.0-21.0-2.0","202f75d1-3dfb-459e-80aa-10fb7ecbab3a","null","<p style=""text-align: center;"">+</p>","null","fixation","","","","","","","","","","","","","","","","","","","","","",""
"","","","","","html-slider-response","115","618220","0.0-21.0-0.1","202f75d1-3dfb-459e-80aa-10fb7ecbab3a","1000","
                  <p style=""text-align: center;"">₪4
                                                <br>75%</p>
                  <p id=""wtp"" style=""text-align:center; margin-top: 0px; margin-bottom: 0px; font-size: 40px"";>&ensp;</p>","-","viewing","0","3","12B,20B,23B,27C,29C","","","","","","","","","","","","","","","","","","",""
"","","","","","html-slider-response","116","619331","0.0-21.0-1.1","202f75d1-3dfb-459e-80aa-10fb7ecbab3a","1110","
                  <p style=""text-align: center;"">₪4
                                                <br>75%</p>
                  <p id=""wtp"" style=""text-align:center; margin-top: 0px; margin-bottom: 0px; font-size: 40px"";>מוכנים לשלם: <span id=""c_p_y""></span></p>","0","evaluation","51","3","12B,20B,23B,27C,29C","75","4","0","","","","","","","","","","","","","","","",""
"","","","","","html-keyboard-response","117","620185","0.0-21.0-2.1","202f75d1-3dfb-459e-80aa-10fb7ecbab3a","null","<p style=""text-align: center;"">+</p>","null","fixation","","","","","","","","","","","","","","","","","","","","","",""
"","","","","","html-slider-response","118","621201","0.0-21.0-0.2","202f75d1-3dfb-459e-80aa-10fb7ecbab3a","1000","
                  <p style=""text-align: center;"">₪11
                                                <br>75%</p>
                  <p id=""wtp"" style=""text-align:center; margin-top: 0px; margin-bottom: 0px; font-size: 40px"";>&ensp;</p>","-","viewing","0","7","6B,18B,22C,24C,29A","","","","","","","","","","","","","","","","","","",""
"","","","","","html-slider-response","119","622835","0.0-21.0-1.2","202f75d1-3dfb-459e-80aa-10fb7ecbab3a","1634","
                  <p style=""text-align: center;"">₪11
                                                <br>75%</p>
                  <p id=""wtp"" style=""text-align:center; margin-top: 0px; margin-bottom: 0px; font-size: 40px"";>מוכנים לשלם: <span id=""c_p_y""></span></p>","0","evaluation","19","7","6B,18B,22C,24C,29A","75","11","0","","","","","","","","","","","","","","","",""
"","","","","","html-keyboard-response","120","623667","0.0-21.0-2.2","202f75d1-3dfb-459e-80aa-10fb7ecbab3a","null","<p style=""text-align: center;"">+</p>","null","fixation","","","","","","","","","","","","","","","","","","","","","",""
"","","","","","html-slider-response","121","624682","0.0-21.0-0.3","202f75d1-3dfb-459e-80aa-10fb7ecbab3a","1000","
                  <p style=""text-align: center;"">₪39
                                                <br>60%</p>
                  <p id=""wtp"" style=""text-align:center; margin-top: 0px; margin-bottom: 0px; font-size: 40px"";>&ensp;</p>","-","viewing","0","15","9C,25B","","","","","","","","","","","","","","","","","","",""
"","","","","","html-slider-response","122","628695","0.0-21.0-1.3","202f75d1-3dfb-459e-80aa-10fb7ecbab3a","null","
                  <p style=""text-align: center;"">₪39
                                                <br>60%</p>
                  <p id=""wtp"" style=""text-align:center; margin-top: 0px; margin-bottom: 0px; font-size: 40px"";>מוכנים לשלם: <span id=""c_p_y""></span></p>","null","evaluation","3","15","9C,25B","60","39","50","","","","","","","","","","","","","","","",""
"","","","","","html-keyboard-response","123","629317","0.0-21.0-2.3","202f75d1-3dfb-459e-80aa-10fb7ecbab3a","null","<p style=""text-align: center;"">+</p>","null","fixation","","","","","","","","","","","","","","","","","","","","","",""
"","","","","","html-slider-response","124","630333","0.0-21.0-0.4","202f75d1-3dfb-459e-80aa-10fb7ecbab3a","1000","
                  <p style=""text-align: center;"">₪39
                                                <br>65%</p>
                  <p id=""wtp"" style=""text-align:center; margin-top: 0px; margin-bottom: 0px; font-size: 40px"";>&ensp;</p>","-","viewing","0","16","1A,15A,26C","","","","","","","","","","","","","","","","","","",""
"","","","","","html-slider-response","125","632339","0.0-21.0-1.4","202f75d1-3dfb-459e-80aa-10fb7ecbab3a","2004","
                  <p style=""text-align: center;"">₪39
                                                <br>65%</p>
                  <p id=""wtp"" style=""text-align:center; margin-top: 0px; margin-bottom: 0px; font-size: 40px"";>מוכנים לשלם: <span id=""c_p_y""></span></p>","40","evaluation","48","16","1A,15A,26C","65","39","40","","","","","","","","","","","","","","","",""
"","","","","","html-keyboard-response","126","633305","0.0-21.0-2.4","202f75d1-3dfb-459e-80aa-10fb7ecbab3a","null","<p style=""text-align: center;"">+</p>","null","fixation","","","","","","","","","","","","","","","","","","","","","",""
"","","","","","html-slider-response","127","634316","0.0-21.0-0.5","202f75d1-3dfb-459e-80aa-10fb7ecbab3a","1000","
                  <p style=""text-align: center;"">₪64
                                                <br>50%</p>
                  <p id=""wtp"" style=""text-align:center; margin-top: 0px; margin-bottom: 0px; font-size: 40px"";>&ensp;</p>","-","viewing","0","25","1B,3B,4A","","","","","","","","","","","","","","","","","","",""
"","","","","","html-slider-response","128","636139","0.0-21.0-1.5","202f75d1-3dfb-459e-80aa-10fb7ecbab3a","1821","
                  <p style=""text-align: center;"">₪64
                                                <br>50%</p>
                  <p id=""wtp"" style=""text-align:center; margin-top: 0px; margin-bottom: 0px; font-size: 40px"";>מוכנים לשלם: <span id=""c_p_y""></span></p>","40","evaluation","16","25","1B,3B,4A","50","64","40","","","","","","","","","","","","","","","",""
"","","","","","html-keyboard-response","129","637348","0.0-21.0-2.5","202f75d1-3dfb-459e-80aa-10fb7ecbab3a","null","<p style=""text-align: center;"">+</p>","null","fixation","","","","","","","","","","","","","","","","","","","","","",""
"","","","","","html-slider-response","130","638365","0.0-21.0-0.6","202f75d1-3dfb-459e-80aa-10fb7ecbab3a","1000","
                  <p style=""text-align: center;"">₪11
                                                <br>20%</p>
                  <p id=""wtp"" style=""text-align:center; margin-top: 0px; margin-bottom: 0px; font-size: 40px"";>&ensp;</p>","-","viewing","0","4","12C,17C,23C,28C","","","","","","","","","","","","","","","","","","",""
"","","","","","html-slider-response","131","640083","0.0-21.0-1.6","202f75d1-3dfb-459e-80aa-10fb7ecbab3a","1717","
                  <p style=""text-align: center;"">₪11
                                                <br>20%</p>
                  <p id=""wtp"" style=""text-align:center; margin-top: 0px; margin-bottom: 0px; font-size: 40px"";>מוכנים לשלם: <span id=""c_p_y""></span></p>","10","evaluation","41","4","12C,17C,23C,28C","20","11","11","","","","","","","","","","","","","","","",""
"","","","","","html-keyboard-response","132","641204","0.0-21.0-2.6","202f75d1-3dfb-459e-80aa-10fb7ecbab3a","null","<p style=""text-align: center;"">+</p>","null","fixation","","","","","","","","","","","","","","","","","","","","","",""
"","","","","","html-slider-response","133","642207","0.0-21.0-0.7","202f75d1-3dfb-459e-80aa-10fb7ecbab3a","1000","
                  <p style=""text-align: center;"">₪4
                                                <br>25%</p>
                  <p id=""wtp"" style=""text-align:center; margin-top: 0px; margin-bottom: 0px; font-size: 40px"";>&ensp;</p>","-","viewing","0","1","6C,29B,30C","","","","","","","","","","","","","","","","","","",""
"","","","","","html-slider-response","134","644035","0.0-21.0-1.7","202f75d1-3dfb-459e-80aa-10fb7ecbab3a","1826","
                  <p style=""text-align: center;"">₪4
                                                <br>25%</p>
                  <p id=""wtp"" style=""text-align:center; margin-top: 0px; margin-bottom: 0px; font-size: 40px"";>מוכנים לשלם: <span id=""c_p_y""></span></p>","0","evaluation","14","1","6C,29B,30C","25","4","1","","","","","","","","","","","","","","","",""
"","","","","","html-keyboard-response","135","644806","0.0-21.0-2.7","202f75d1-3dfb-459e-80aa-10fb7ecbab3a","null","<p style=""text-align: center;"">+</p>","null","fixation","","","","","","","","","","","","","","","","","","","","","",""
"","","","","","html-slider-response","136","645814","0.0-21.0-0.8","202f75d1-3dfb-459e-80aa-10fb7ecbab3a","1000","
                  <p style=""text-align: center;"">₪58
                                                <br>30%</p>
                  <p id=""wtp"" style=""text-align:center; margin-top: 0px; margin-bottom: 0px; font-size: 40px"";>&ensp;</p>","-","viewing","0","19","13C,30A","","","","","","","","","","","","","","","","","","",""
"","","","","","html-slider-response","137","648723","0.0-21.0-1.8","202f75d1-3dfb-459e-80aa-10fb7ecbab3a","2907","
                  <p style=""text-align: center;"">₪58
                                                <br>30%</p>
                  <p id=""wtp"" style=""text-align:center; margin-top: 0px; margin-bottom: 0px; font-size: 40px"";>מוכנים לשלם: <span id=""c_p_y""></span></p>","14","evaluation","13","19","13C,30A","30","58","15","","","","","","","","","","","","","","","",""
"","","","","","html-keyboard-response","138","650175","0.0-21.0-2.8","202f75d1-3dfb-459e-80aa-10fb7ecbab3a","null","<p style=""text-align: center;"">+</p>","null","fixation","","","","","","","","","","","","","","","","","","","","","",""
"","","","","","html-slider-response","139","651178","0.0-21.0-0.9","202f75d1-3dfb-459e-80aa-10fb7ecbab3a","1000","
                  <p style=""text-align: center;"">₪64
                                                <br>25%</p>
                  <p id=""wtp"" style=""text-align:center; margin-top: 0px; margin-bottom: 0px; font-size: 40px"";>&ensp;</p>","-","viewing","0","24","6A,21A","","","","","","","","","","","","","","","","","","",""
"","","","","","html-slider-response","140","653787","0.0-21.0-1.9","202f75d1-3dfb-459e-80aa-10fb7ecbab3a","2609","
                  <p style=""text-align: center;"">₪64
                                                <br>25%</p>
                  <p id=""wtp"" style=""text-align:center; margin-top: 0px; margin-bottom: 0px; font-size: 40px"";>מוכנים לשלם: <span id=""c_p_y""></span></p>","0","evaluation","19","24","6A,21A","25","64","0","","","","","","","","","","","","","","","",""
"","","","","","html-keyboard-response","141","654893","0.0-21.0-2.9","202f75d1-3dfb-459e-80aa-10fb7ecbab3a","null","<p style=""text-align: center;"">+</p>","null","fixation","","","","","","","","","","","","","","","","","","","","","",""
"","","","","","html-slider-response","142","655909","0.0-21.0-0.10","202f75d1-3dfb-459e-80aa-10fb7ecbab3a","1000","
                  <p style=""text-align: center;"">₪36
                                                <br>60%</p>
                  <p id=""wtp"" style=""text-align:center; margin-top: 0px; margin-bottom: 0px; font-size: 40px"";>&ensp;</p>","-","viewing","0","12","1C,7C,15C","","","","","","","","","","","","","","","","","","",""
"","","","","","html-slider-response","143","658723","0.0-21.0-1.10","202f75d1-3dfb-459e-80aa-10fb7ecbab3a","2812","
                  <p style=""text-align: center;"">₪36
                                                <br>60%</p>
                  <p id=""wtp"" style=""text-align:center; margin-top: 0px; margin-bottom: 0px; font-size: 40px"";>מוכנים לשלם: <span id=""c_p_y""></span></p>","42","evaluation","0","12","1C,7C,15C","60","36","42","","","","","","","","","","","","","","","",""
"","","","","","html-keyboard-response","144","659646","0.0-21.0-2.10","202f75d1-3dfb-459e-80aa-10fb7ecbab3a","null","<p style=""text-align: center;"">+</p>","null","fixation","","","","","","","","","","","","","","","","","","","","","",""
"","","","","","html-slider-response","145","660661","0.0-21.0-0.11","202f75d1-3dfb-459e-80aa-10fb7ecbab3a","1000","
                  <p style=""text-align: center;"">₪76
                                                <br>65%</p>
                  <p id=""wtp"" style=""text-align:center; margin-top: 0px; margin-bottom: 0px; font-size: 40px"";>&ensp;</p>","-","viewing","0","29","8C,19A,24B","","","","","","","","","","","","","","","","","","",""
"","","","","","html-slider-response","146","663299","0.0-21.0-1.11","202f75d1-3dfb-459e-80aa-10fb7ecbab3a","2637","
                  <p style=""text-align: center;"">₪76
                                                <br>65%</p>
                  <p id=""wtp"" style=""text-align:center; margin-top: 0px; margin-bottom: 0px; font-size: 40px"";>מוכנים לשלם: <span id=""c_p_y""></span></p>","61","evaluation","49","29","8C,19A,24B","65","76","60","","","","","","","","","","","","","","","",""
"","","","","","html-keyboard-response","147","664705","0.0-21.0-2.11","202f75d1-3dfb-459e-80aa-10fb7ecbab3a","null","<p style=""text-align: center;"">+</p>","null","fixation","","","","","","","","","","","","","","","","","","","","","",""
"","","","","","html-slider-response","148","665709","0.0-21.0-0.12","202f75d1-3dfb-459e-80aa-10fb7ecbab3a","1000","
                  <p style=""text-align: center;"">₪43
                                                <br>60%</p>
                  <p id=""wtp"" style=""text-align:center; margin-top: 0px; margin-bottom: 0px; font-size: 40px"";>&ensp;</p>","-","viewing","0","17","2A,7A,9A,15B","","","","","","","","","","","","","","","","","","",""
"","","","","","html-slider-response","149","667691","0.0-21.0-1.12","202f75d1-3dfb-459e-80aa-10fb7ecbab3a","1981","
                  <p style=""text-align: center;"">₪43
                                                <br>60%</p>
                  <p id=""wtp"" style=""text-align:center; margin-top: 0px; margin-bottom: 0px; font-size: 40px"";>מוכנים לשלם: <span id=""c_p_y""></span></p>","43","evaluation","22","17","2A,7A,9A,15B","60","43","43","","","","","","","","","","","","","","","",""
"","","","","","html-keyboard-response","150","668699","0.0-21.0-2.12","202f75d1-3dfb-459e-80aa-10fb7ecbab3a","null","<p style=""text-align: center;"">+</p>","null","fixation","","","","","","","","","","","","","","","","","","","","","",""
"","","","","","html-slider-response","151","669704","0.0-21.0-0.13","202f75d1-3dfb-459e-80aa-10fb7ecbab3a","1000","
                  <p style=""text-align: center;"">₪4
                                                <br>50%</p>
                  <p id=""wtp"" style=""text-align:center; margin-top: 0px; margin-bottom: 0px; font-size: 40px"";>&ensp;</p>","-","viewing","0","2","4C,17B","","","","","","","","","","","","","","","","","","",""
"","","","","","html-slider-response","152","671211","0.0-21.0-1.13","202f75d1-3dfb-459e-80aa-10fb7ecbab3a","1505","
                  <p style=""text-align: center;"">₪4
                                                <br>50%</p>
                  <p id=""wtp"" style=""text-align:center; margin-top: 0px; margin-bottom: 0px; font-size: 40px"";>מוכנים לשלם: <span id=""c_p_y""></span></p>","0","evaluation","70","2","4C,17B","50","4","0","","","","","","","","","","","","","","","",""
"","","","","","html-keyboard-response","153","671825","0.0-21.0-2.13","202f75d1-3dfb-459e-80aa-10fb7ecbab3a","null","<p style=""text-align: center;"">+</p>","null","fixation","","","","","","","","","","","","","","","","","","","","","",""
"","","","","","html-slider-response","154","672831","0.0-21.0-0.14","202f75d1-3dfb-459e-80aa-10fb7ecbab3a","1000","
                  <p style=""text-align: center;"">₪18
                                                <br>25%</p>
                  <p id=""wtp"" style=""text-align:center; margin-top: 0px; margin-bottom: 0px; font-size: 40px"";>&ensp;</p>","-","viewing","0","9","14A,23A","","","","","","","","","","","","","","","","","","",""
"","","","","","html-slider-response","155","675035","0.0-21.0-1.14","202f75d1-3dfb-459e-80aa-10fb7ecbab3a","2202","
                  <p style=""text-align: center;"">₪18
                                                <br>25%</p>
                  <p id=""wtp"" style=""text-align:center; margin-top: 0px; margin-bottom: 0px; font-size: 40px"";>מוכנים לשלם: <span id=""c_p_y""></span></p>","0","evaluation","35","9","14A,23A","25","18","0","","","","","","","","","","","","","","","",""
"","","","","","html-keyboard-response","156","676415","0.0-21.0-2.14","202f75d1-3dfb-459e-80aa-10fb7ecbab3a","null","<p style=""text-align: center;"">+</p>","null","fixation","","","","","","","","","","","","","","","","","","","","","",""
"","","","","","html-slider-response","157","677418","0.0-21.0-0.15","202f75d1-3dfb-459e-80aa-10fb7ecbab3a","1000","
                  <p style=""text-align: center;"">₪36
                                                <br>75%</p>
                  <p id=""wtp"" style=""text-align:center; margin-top: 0px; margin-bottom: 0px; font-size: 40px"";>&ensp;</p>","-","viewing","0","14","4B,5A,13B,16B","","","","","","","","","","","","","","","","","","",""
"","","","","","html-slider-response","158","679267","0.0-21.0-1.15","202f75d1-3dfb-459e-80aa-10fb7ecbab3a","1848","
                  <p style=""text-align: center;"">₪36
                                                <br>75%</p>
                  <p id=""wtp"" style=""text-align:center; margin-top: 0px; margin-bottom: 0px; font-size: 40px"";>מוכנים לשלם: <span id=""c_p_y""></span></p>","61","evaluation","71","14","4B,5A,13B,16B","75","36","60","","","","","","","","","","","","","","","",""
"","","","","","html-keyboard-response","159","680734","0.0-21.0-2.15","202f75d1-3dfb-459e-80aa-10fb7ecbab3a","null","<p style=""text-align: center;"">+</p>","null","fixation","","","","","","","","","","","","","","","","","","","","","",""
"","","","","","html-slider-response","160","681737","0.0-21.0-0.16","202f75d1-3dfb-459e-80aa-10fb7ecbab3a","1000","
                  <p style=""text-align: center;"">₪36
                                                <br>30%</p>
                  <p id=""wtp"" style=""text-align:center; margin-top: 0px; margin-bottom: 0px; font-size: 40px"";>&ensp;</p>","-","viewing","0","11","3C,20A,22A","","","","","","","","","","","","","","","","","","",""
"","","","","","html-slider-response","161","685059","0.0-21.0-1.16","202f75d1-3dfb-459e-80aa-10fb7ecbab3a","3321","
                  <p style=""text-align: center;"">₪36
                                                <br>30%</p>
                  <p id=""wtp"" style=""text-align:center; margin-top: 0px; margin-bottom: 0px; font-size: 40px"";>מוכנים לשלם: <span id=""c_p_y""></span></p>","19","evaluation","16","11","3C,20A,22A","30","36","19","","","","","","","","","","","","","","","",""
"","","","","","html-keyboard-response","162","686198","0.0-21.0-2.16","202f75d1-3dfb-459e-80aa-10fb7ecbab3a","null","<p style=""text-align: center;"">+</p>","null","fixation","","","","","","","","","","","","","","","","","","","","","",""
"","","","","","html-slider-response","163","687200","0.0-21.0-0.17","202f75d1-3dfb-459e-80aa-10fb7ecbab3a","1000","
                  <p style=""text-align: center;"">₪58
                                                <br>40%</p>
                  <p id=""wtp"" style=""text-align:center; margin-top: 0px; margin-bottom: 0px; font-size: 40px"";>&ensp;</p>","-","viewing","0","20","10C,13A,19C,21B","","","","","","","","","","","","","","","","","","",""
"","","","","","html-slider-response","164","690699","0.0-21.0-1.17","202f75d1-3dfb-459e-80aa-10fb7ecbab3a","3497","
                  <p style=""text-align: center;"">₪58
                                                <br>40%</p>
                  <p id=""wtp"" style=""text-align:center; margin-top: 0px; margin-bottom: 0px; font-size: 40px"";>מוכנים לשלם: <span id=""c_p_y""></span></p>","20","evaluation","25","20","10C,13A,19C,21B","40","58","21","","","","","","","","","","","","","","","",""
"","","","","","html-keyboard-response","165","691386","0.0-21.0-2.17","202f75d1-3dfb-459e-80aa-10fb7ecbab3a","null","<p style=""text-align: center;"">+</p>","null","fixation","","","","","","","","","","","","","","","","","","","","","",""
"","","","","","html-slider-response","166","692388","0.0-21.0-0.18","202f75d1-3dfb-459e-80aa-10fb7ecbab3a","1000","
                  <p style=""text-align: center;"">₪11
                                                <br>45%</p>
                  <p id=""wtp"" style=""text-align:center; margin-top: 0px; margin-bottom: 0px; font-size: 40px"";>&ensp;</p>","-","viewing","0","6","14B,21C,25C","","","","","","","","","","","","","","","","","","",""
"","","","","","html-slider-response","167","695299","0.0-21.0-1.18","202f75d1-3dfb-459e-80aa-10fb7ecbab3a","2910","
                  <p style=""text-align: center;"">₪11
                                                <br>45%</p>
                  <p id=""wtp"" style=""text-align:center; margin-top: 0px; margin-bottom: 0px; font-size: 40px"";>מוכנים לשלם: <span id=""c_p_y""></span></p>","12","evaluation","48","6","14B,21C,25C","45","11","12","","","","","","","","","","","","","","","",""
"","","","","","html-keyboard-response","168","695945","0.0-21.0-2.18","202f75d1-3dfb-459e-80aa-10fb7ecbab3a","null","<p style=""text-align: center;"">+</p>","null","fixation","","","","","","","","","","","","","","","","","","","","","",""
"","","","","","html-slider-response","169","696955","0.0-21.0-0.19","202f75d1-3dfb-459e-80aa-10fb7ecbab3a","1000","
                  <p style=""text-align: center;"">₪36
                                                <br>70%</p>
                  <p id=""wtp"" style=""text-align:center; margin-top: 0px; margin-bottom: 0px; font-size: 40px"";>&ensp;</p>","-","viewing","0","13","3A,5C,10B","","","","","","","","","","","","","","","","","","",""
"","","","","","html-slider-response","170","698739","0.0-21.0-1.19","202f75d1-3dfb-459e-80aa-10fb7ecbab3a","1783","
                  <p style=""text-align: center;"">₪36
                                                <br>70%</p>
                  <p id=""wtp"" style=""text-align:center; margin-top: 0px; margin-bottom: 0px; font-size: 40px"";>מוכנים לשלם: <span id=""c_p_y""></span></p>","41","evaluation","37","13","3A,5C,10B","70","36","41","","","","","","","","","","","","","","","",""
"","","","","","html-keyboard-response","171","700191","0.0-21.0-2.19","202f75d1-3dfb-459e-80aa-10fb7ecbab3a","null","<p style=""text-align: center;"">+</p>","null","fixation","","","","","","","","","","","","","","","","","","","","","",""
"","","","","","html-slider-response","172","701193","0.0-21.0-0.20","202f75d1-3dfb-459e-80aa-10fb7ecbab3a","1000","
                  <p style=""text-align: center;"">₪71
                                                <br>55%</p>
                  <p id=""wtp"" style=""text-align:center; margin-top: 0px; margin-bottom: 0px; font-size: 40px"";>&ensp;</p>","-","viewing","0","27","5B,18A","","","","","","","","","","","","","","","","","","",""
"","","","","","html-slider-response","173","703323","0.0-21.0-1.20","202f75d1-3dfb-459e-80aa-10fb7ecbab3a","2128","
                  <p style=""text-align: center;"">₪71
                                                <br>55%</p>
                  <p id=""wtp"" style=""text-align:center; margin-top: 0px; margin-bottom: 0px; font-size: 40px"";>מוכנים לשלם: <span id=""c_p_y""></span></p>","60","evaluation","76","27","5B,18A","55","71","60","","","","","","","","","","","","","","","",""
"","","","","","html-keyboard-response","174","704267","0.0-21.0-2.20","202f75d1-3dfb-459e-80aa-10fb7ecbab3a","null","<p style=""text-align: center;"">+</p>","null","fixation","","","","","","","","","","","","","","","","","","","","","",""
"","","","","","html-slider-response","175","705279","0.0-21.0-0.21","202f75d1-3dfb-459e-80aa-10fb7ecbab3a","1000","
                  <p style=""text-align: center;"">₪61
                                                <br>45%</p>
                  <p id=""wtp"" style=""text-align:center; margin-top: 0px; margin-bottom: 0px; font-size: 40px"";>&ensp;</p>","-","viewing","0","22","10A,11A","","","","","","","","","","","","","","","","","","",""
"","","","","","html-slider-response","176","708419","0.0-21.0-1.21","202f75d1-3dfb-459e-80aa-10fb7ecbab3a","3139","
                  <p style=""text-align: center;"">₪61
                                                <br>45%</p>
                  <p id=""wtp"" style=""text-align:center; margin-top: 0px; margin-bottom: 0px; font-size: 40px"";>מוכנים לשלם: <span id=""c_p_y""></span></p>","61","evaluation","36","22","10A,11A","45","61","61","","","","","","","","","","","","","","","",""
"","","","","","html-keyboard-response","177","709588","0.0-21.0-2.21","202f75d1-3dfb-459e-80aa-10fb7ecbab3a","null","<p style=""text-align: center;"">+</p>","null","fixation","","","","","","","","","","","","","","","","","","","","","",""
"","","","","","html-slider-response","178","710601","0.0-21.0-0.22","202f75d1-3dfb-459e-80aa-10fb7ecbab3a","1000","
                  <p style=""text-align: center;"">₪71
                                                <br>45%</p>
                  <p id=""wtp"" style=""text-align:center; margin-top: 0px; margin-bottom: 0px; font-size: 40px"";>&ensp;</p>","-","viewing","0","26","2B,16A","","","","","","","","","","","","","","","","","","",""
"","","","","","html-slider-response","179","714307","0.0-21.0-1.22","202f75d1-3dfb-459e-80aa-10fb7ecbab3a","3705","
                  <p style=""text-align: center;"">₪71
                                                <br>45%</p>
                  <p id=""wtp"" style=""text-align:center; margin-top: 0px; margin-bottom: 0px; font-size: 40px"";>מוכנים לשלם: <span id=""c_p_y""></span></p>","8","evaluation","54","26","2B,16A","45","71","9","","","","","","","","","","","","","","","",""
"","","","","","html-keyboard-response","180","715759","0.0-21.0-2.22","202f75d1-3dfb-459e-80aa-10fb7ecbab3a","null","<p style=""text-align: center;"">+</p>","null","fixation","","","","","","","","","","","","","","","","","","","","","",""
"","","","","","html-slider-response","181","716777","0.0-21.0-0.23","202f75d1-3dfb-459e-80aa-10fb7ecbab3a","1000","
                  <p style=""text-align: center;"">₪18
                                                <br>50%</p>
                  <p id=""wtp"" style=""text-align:center; margin-top: 0px; margin-bottom: 0px; font-size: 40px"";>&ensp;</p>","-","viewing","0","10","2C,16C,22B,28A","","","","","","","","","","","","","","","","","","",""
"","","","","","html-slider-response","182","720339","0.0-21.0-1.23","202f75d1-3dfb-459e-80aa-10fb7ecbab3a","3561","
                  <p style=""text-align: center;"">₪18
                                                <br>50%</p>
                  <p id=""wtp"" style=""text-align:center; margin-top: 0px; margin-bottom: 0px; font-size: 40px"";>מוכנים לשלם: <span id=""c_p_y""></span></p>","6","evaluation","59","10","2C,16C,22B,28A","50","18","7","","","","","","","","","","","","","","","",""
"","","","","","html-keyboard-response","183","721685","0.0-21.0-2.23","202f75d1-3dfb-459e-80aa-10fb7ecbab3a","null","<p style=""text-align: center;"">+</p>","null","fixation","","","","","","","","","","","","","","","","","","","","","",""
"","","","","","html-slider-response","184","722687","0.0-21.0-0.24","202f75d1-3dfb-459e-80aa-10fb7ecbab3a","1000","
                  <p style=""text-align: center;"">₪61
                                                <br>55%</p>
                  <p id=""wtp"" style=""text-align:center; margin-top: 0px; margin-bottom: 0px; font-size: 40px"";>&ensp;</p>","-","viewing","0","23","7B,26B","","","","","","","","","","","","","","","","","","",""
"","","","","","html-slider-response","185","724483","0.0-21.0-1.24","202f75d1-3dfb-459e-80aa-10fb7ecbab3a","1795","
                  <p style=""text-align: center;"">₪61
                                                <br>55%</p>
                  <p id=""wtp"" style=""text-align:center; margin-top: 0px; margin-bottom: 0px; font-size: 40px"";>מוכנים לשלם: <span id=""c_p_y""></span></p>","60","evaluation","48","23","7B,26B","55","61","60","","","","","","","","","","","","","","","",""
"","","","","","html-keyboard-response","186","725423","0.0-21.0-2.24","202f75d1-3dfb-459e-80aa-10fb7ecbab3a","null","<p style=""text-align: center;"">+</p>","null","fixation","","","","","","","","","","","","","","","","","","","","","",""
"","","","","","html-slider-response","187","726425","0.0-21.0-0.25","202f75d1-3dfb-459e-80aa-10fb7ecbab3a","1000","
                  <p style=""text-align: center;"">₪43
                                                <br>75%</p>
                  <p id=""wtp"" style=""text-align:center; margin-top: 0px; margin-bottom: 0px; font-size: 40px"";>&ensp;</p>","-","viewing","0","18","11B,19B,24A,26A","","","","","","","","","","","","","","","","","","",""
"","","","","","html-slider-response","188","728883","0.0-21.0-1.25","202f75d1-3dfb-459e-80aa-10fb7ecbab3a","2457","
                  <p style=""text-align: center;"">₪43
                                                <br>75%</p>
                  <p id=""wtp"" style=""text-align:center; margin-top: 0px; margin-bottom: 0px; font-size: 40px"";>מוכנים לשלם: <span id=""c_p_y""></span></p>","80","evaluation","58","18","11B,19B,24A,26A","75","43","80","","","","","","","","","","","","","","","",""
"","","","","","html-keyboard-response","189","729864","0.0-21.0-2.25","202f75d1-3dfb-459e-80aa-10fb7ecbab3a","null","<p style=""text-align: center;"">+</p>","null","fixation","","","","","","","","","","","","","","","","","","","","","",""
"","","","","","html-slider-response","190","730881","0.0-21.0-0.26","202f75d1-3dfb-459e-80aa-10fb7ecbab3a","1000","
                  <p style=""text-align: center;"">₪79
                                                <br>65%</p>
                  <p id=""wtp"" style=""text-align:center; margin-top: 0px; margin-bottom: 0px; font-size: 40px"";>&ensp;</p>","-","viewing","0","31","8A","","","","","","","","","","","","","","","","","","",""
"","","","","","html-slider-response","191","734291","0.0-21.0-1.26","202f75d1-3dfb-459e-80aa-10fb7ecbab3a","3409","
                  <p style=""text-align: center;"">₪79
                                                <br>65%</p>
                  <p id=""wtp"" style=""text-align:center; margin-top: 0px; margin-bottom: 0px; font-size: 40px"";>מוכנים לשלם: <span id=""c_p_y""></span></p>","60","evaluation","38","31","8A","65","79","60","","","","","","","","","","","","","","","",""
"","","","","","html-keyboard-response","192","734970","0.0-21.0-2.26","202f75d1-3dfb-459e-80aa-10fb7ecbab3a","null","<p style=""text-align: center;"">+</p>","null","fixation","","","","","","","","","","","","","","","","","","","","","",""
"","","","","","html-slider-response","193","735977","0.0-21.0-0.27","202f75d1-3dfb-459e-80aa-10fb7ecbab3a","1000","
                  <p style=""text-align: center;"">₪79
                                                <br>40%</p>
                  <p id=""wtp"" style=""text-align:center; margin-top: 0px; margin-bottom: 0px; font-size: 40px"";>&ensp;</p>","-","viewing","0","30","9B","","","","","","","","","","","","","","","","","","",""
"","","","","","html-slider-response","194","737475","0.0-21.0-1.27","202f75d1-3dfb-459e-80aa-10fb7ecbab3a","1496","
                  <p style=""text-align: center;"">₪79
                                                <br>40%</p>
                  <p id=""wtp"" style=""text-align:center; margin-top: 0px; margin-bottom: 0px; font-size: 40px"";>מוכנים לשלם: <span id=""c_p_y""></span></p>","21","evaluation","51","30","9B","40","79","21","","","","","","","","","","","","","","","",""
"","","","","","html-keyboard-response","195","738215","0.0-21.0-2.27","202f75d1-3dfb-459e-80aa-10fb7ecbab3a","null","<p style=""text-align: center;"">+</p>","null","fixation","","","","","","","","","","","","","","","","","","","","","",""
"","","","","","html-slider-response","196","739220","0.0-21.0-0.28","202f75d1-3dfb-459e-80aa-10fb7ecbab3a","1000","
                  <p style=""text-align: center;"">₪11
                                                <br>25%</p>
                  <p id=""wtp"" style=""text-align:center; margin-top: 0px; margin-bottom: 0px; font-size: 40px"";>&ensp;</p>","-","viewing","0","5","12A,27B,28B,30B","","","","","","","","","","","","","","","","","","",""
"","","","","","html-slider-response","197","740242","0.0-21.0-1.28","202f75d1-3dfb-459e-80aa-10fb7ecbab3a","1022","
                  <p style=""text-align: center;"">₪11
                                                <br>25%</p>
                  <p id=""wtp"" style=""text-align:center; margin-top: 0px; margin-bottom: 0px; font-size: 40px"";>מוכנים לשלם: <span id=""c_p_y""></span></p>","0","evaluation","40","5","12A,27B,28B,30B","25","11","1","","","","","","","","","","","","","","","",""
"","","","","","html-keyboard-response","198","741127","0.0-21.0-2.28","202f75d1-3dfb-459e-80aa-10fb7ecbab3a","null","<p style=""text-align: center;"">+</p>","null","fixation","","","","","","","","","","","","","","","","","","","","","",""
"","","","","","html-slider-response","199","742129","0.0-21.0-0.29","202f75d1-3dfb-459e-80aa-10fb7ecbab3a","1000","
                  <p style=""text-align: center;"">₪58
                                                <br>45%</p>
                  <p id=""wtp"" style=""text-align:center; margin-top: 0px; margin-bottom: 0px; font-size: 40px"";>&ensp;</p>","-","viewing","0","21","11C,18C,25A","","","","","","","","","","","","","","","","","","",""
"","","","","","html-slider-response","200","745931","0.0-21.0-1.29","202f75d1-3dfb-459e-80aa-10fb7ecbab3a","3800","
                  <p style=""text-align: center;"">₪58
                                                <br>45%</p>
                  <p id=""wtp"" style=""text-align:center; margin-top: 0px; margin-bottom: 0px; font-size: 40px"";>מוכנים לשלם: <span id=""c_p_y""></span></p>","40","evaluation","47","21","11C,18C,25A","45","58","40","","","","","","","","","","","","","","","",""
"","","","","","html-keyboard-response","201","746444","0.0-21.0-2.29","202f75d1-3dfb-459e-80aa-10fb7ecbab3a","null","<p style=""text-align: center;"">+</p>","null","fixation","","","","","","","","","","","","","","","","","","","","","",""
"","","","","","html-slider-response","202","747458","0.0-21.0-0.30","202f75d1-3dfb-459e-80aa-10fb7ecbab3a","1000","
                  <p style=""text-align: center;"">₪71
                                                <br>75%</p>
                  <p id=""wtp"" style=""text-align:center; margin-top: 0px; margin-bottom: 0px; font-size: 40px"";>&ensp;</p>","-","viewing","0","28","8B","","","","","","","","","","","","","","","","","","",""
"","","","","","html-slider-response","203","749498","0.0-21.0-1.30","202f75d1-3dfb-459e-80aa-10fb7ecbab3a","2039","
                  <p style=""text-align: center;"">₪71
                                                <br>75%</p>
                  <p id=""wtp"" style=""text-align:center; margin-top: 0px; margin-bottom: 0px; font-size: 40px"";>מוכנים לשלם: <span id=""c_p_y""></span></p>","80","evaluation","26","28","8B","75","71","80","","","","","","","","","","","","","","","",""
"","","","","","html-keyboard-response","204","750383","0.0-21.0-2.30","202f75d1-3dfb-459e-80aa-10fb7ecbab3a","null","<p style=""text-align: center;"">+</p>","null","fixation","","","","","","","","","","","","","","","","","","","","","",""
"","","","","","html-keyboard-response","205","751398","0.0-22.0","202f75d1-3dfb-459e-80aa-10fb7ecbab3a","null","<p style=""text-align: center;"">+</p>","null","fixation","","","","","","","","","","","","","","","","","","","","","",""
"","","","","","html-keyboard-response","206","752138","0.0-23.0","202f75d1-3dfb-459e-80aa-10fb7ecbab3a","null","<p>הפסקה.
          <br>לחצו כדי להמשיך.</p>","1","scan_wait","","","","","","","","","","","","","","","","","","","","","",""
"","","","","","html-keyboard-response","207","753140","0.0-24.0","202f75d1-3dfb-459e-80aa-10fb7ecbab3a","null","<p style=""text-align: center;"">+</p>","null","fixation","","","","","","","","","","","","","","","","","","","","","",""
"","","","","","html-slider-response","208","754142","0.0-25.0-0.0","202f75d1-3dfb-459e-80aa-10fb7ecbab3a","1000","
                  <p style=""text-align: center;"">₪4
                                                <br>25%</p>
                  <p id=""wtp"" style=""text-align:center; margin-top: 0px; margin-bottom: 0px; font-size: 40px"";>&ensp;</p>","-","viewing","0","1","6C,29B,30C","","","","","","","","","","","","","","","","","","",""
"","","","","","html-slider-response","209","754706","0.0-25.0-1.0","202f75d1-3dfb-459e-80aa-10fb7ecbab3a","563","
                  <p style=""text-align: center;"">₪4
                                                <br>25%</p>
                  <p id=""wtp"" style=""text-align:center; margin-top: 0px; margin-bottom: 0px; font-size: 40px"";>מוכנים לשלם: <span id=""c_p_y""></span></p>","0","evaluation","15","1","6C,29B,30C","25","4","0","","","","","","","","","","","","","","","",""
"","","","","","html-keyboard-response","210","755355","0.0-25.0-2.0","202f75d1-3dfb-459e-80aa-10fb7ecbab3a","null","<p style=""text-align: center;"">+</p>","null","fixation","","","","","","","","","","","","","","","","","","","","","",""
"","","","","","html-slider-response","211","756367","0.0-25.0-0.1","202f75d1-3dfb-459e-80aa-10fb7ecbab3a","1000","
                  <p style=""text-align: center;"">₪43
                                                <br>60%</p>
                  <p id=""wtp"" style=""text-align:center; margin-top: 0px; margin-bottom: 0px; font-size: 40px"";>&ensp;</p>","-","viewing","0","17","2A,7A,9A,15B","","","","","","","","","","","","","","","","","","",""
"","","","","","html-slider-response","212","758747","0.0-25.0-1.1","202f75d1-3dfb-459e-80aa-10fb7ecbab3a","2378","
                  <p style=""text-align: center;"">₪43
                                                <br>60%</p>
                  <p id=""wtp"" style=""text-align:center; margin-top: 0px; margin-bottom: 0px; font-size: 40px"";>מוכנים לשלם: <span id=""c_p_y""></span></p>","60","evaluation","38","17","2A,7A,9A,15B","60","43","60","","","","","","","","","","","","","","","",""
"","","","","","html-keyboard-response","213","759579","0.0-25.0-2.1","202f75d1-3dfb-459e-80aa-10fb7ecbab3a","null","<p style=""text-align: center;"">+</p>","null","fixation","","","","","","","","","","","","","","","","","","","","","",""
"","","","","","html-slider-response","214","760583","0.0-25.0-0.2","202f75d1-3dfb-459e-80aa-10fb7ecbab3a","1000","
                  <p style=""text-align: center;"">₪18
                                                <br>25%</p>
                  <p id=""wtp"" style=""text-align:center; margin-top: 0px; margin-bottom: 0px; font-size: 40px"";>&ensp;</p>","-","viewing","0","9","14A,23A","","","","","","","","","","","","","","","","","","",""
"","","","","","html-slider-response","215","761298","0.0-25.0-1.2","202f75d1-3dfb-459e-80aa-10fb7ecbab3a","714","
                  <p style=""text-align: center;"">₪18
                                                <br>25%</p>
                  <p id=""wtp"" style=""text-align:center; margin-top: 0px; margin-bottom: 0px; font-size: 40px"";>מוכנים לשלם: <span id=""c_p_y""></span></p>","0","evaluation","17","9","14A,23A","25","18","0","","","","","","","","","","","","","","","",""
"","","","","","html-keyboard-response","216","762147","0.0-25.0-2.2","202f75d1-3dfb-459e-80aa-10fb7ecbab3a","null","<p style=""text-align: center;"">+</p>","null","fixation","","","","","","","","","","","","","","","","","","","","","",""
"","","","","","html-slider-response","217","763155","0.0-25.0-0.3","202f75d1-3dfb-459e-80aa-10fb7ecbab3a","1000","
                  <p style=""text-align: center;"">₪58
                                                <br>30%</p>
                  <p id=""wtp"" style=""text-align:center; margin-top: 0px; margin-bottom: 0px; font-size: 40px"";>&ensp;</p>","-","viewing","0","19","13C,30A","","","","","","","","","","","","","","","","","","",""
"","","","","","html-slider-response","218","764618","0.0-25.0-1.3","202f75d1-3dfb-459e-80aa-10fb7ecbab3a","1462","
                  <p style=""text-align: center;"">₪58
                                                <br>30%</p>
                  <p id=""wtp"" style=""text-align:center; margin-top: 0px; margin-bottom: 0px; font-size: 40px"";>מוכנים לשלם: <span id=""c_p_y""></span></p>","0","evaluation","64","19","13C,30A","30","58","0","","","","","","","","","","","","","","","",""
"","","","","","html-keyboard-response","219","765911","0.0-25.0-2.3","202f75d1-3dfb-459e-80aa-10fb7ecbab3a","null","<p style=""text-align: center;"">+</p>","null","fixation","","","","","","","","","","","","","","","","","","","","","",""
"","","","","","html-slider-response","220","766913","0.0-25.0-0.4","202f75d1-3dfb-459e-80aa-10fb7ecbab3a","1000","
                  <p style=""text-align: center;"">₪11
                                                <br>25%</p>
                  <p id=""wtp"" style=""text-align:center; margin-top: 0px; margin-bottom: 0px; font-size: 40px"";>&ensp;</p>","-","viewing","0","5","12A,27B,28B,30B","","","","","","","","","","","","","","","","","","",""
"","","","","","html-slider-response","221","768322","0.0-25.0-1.4","202f75d1-3dfb-459e-80aa-10fb7ecbab3a","1408","
                  <p style=""text-align: center;"">₪11
                                                <br>25%</p>
                  <p id=""wtp"" style=""text-align:center; margin-top: 0px; margin-bottom: 0px; font-size: 40px"";>מוכנים לשלם: <span id=""c_p_y""></span></p>","0","evaluation","72","5","12A,27B,28B,30B","25","11","0","","","","","","","","","","","","","","","",""
"","","","","","html-keyboard-response","222","769096","0.0-25.0-2.4","202f75d1-3dfb-459e-80aa-10fb7ecbab3a","null","<p style=""text-align: center;"">+</p>","null","fixation","","","","","","","","","","","","","","","","","","","","","",""
"","","","","","html-slider-response","223","770105","0.0-25.0-0.5","202f75d1-3dfb-459e-80aa-10fb7ecbab3a","1000","
                  <p style=""text-align: center;"">₪79
                                                <br>65%</p>
                  <p id=""wtp"" style=""text-align:center; margin-top: 0px; margin-bottom: 0px; font-size: 40px"";>&ensp;</p>","-","viewing","0","31","8A","","","","","","","","","","","","","","","","","","",""
"","","","","","html-slider-response","224","773610","0.0-25.0-1.5","202f75d1-3dfb-459e-80aa-10fb7ecbab3a","3504","
                  <p style=""text-align: center;"">₪79
                                                <br>65%</p>
                  <p id=""wtp"" style=""text-align:center; margin-top: 0px; margin-bottom: 0px; font-size: 40px"";>מוכנים לשלם: <span id=""c_p_y""></span></p>","72","evaluation","42","31","8A","65","79","72","","","","","","","","","","","","","","","",""
"","","","","","html-keyboard-response","225","774628","0.0-25.0-2.5","202f75d1-3dfb-459e-80aa-10fb7ecbab3a","null","<p style=""text-align: center;"">+</p>","null","fixation","","","","","","","","","","","","","","","","","","","","","",""
"","","","","","html-slider-response","226","775629","0.0-25.0-0.6","202f75d1-3dfb-459e-80aa-10fb7ecbab3a","1000","
                  <p style=""text-align: center;"">₪61
                                                <br>55%</p>
                  <p id=""wtp"" style=""text-align:center; margin-top: 0px; margin-bottom: 0px; font-size: 40px"";>&ensp;</p>","-","viewing","0","23","7B,26B","","","","","","","","","","","","","","","","","","",""
"","","","","","html-slider-response","227","778763","0.0-25.0-1.6","202f75d1-3dfb-459e-80aa-10fb7ecbab3a","3133","
                  <p style=""text-align: center;"">₪61
                                                <br>55%</p>
                  <p id=""wtp"" style=""text-align:center; margin-top: 0px; margin-bottom: 0px; font-size: 40px"";>מוכנים לשלם: <span id=""c_p_y""></span></p>","62","evaluation","69","23","7B,26B","55","61","62","","","","","","","","","","","","","","","",""
"","","","","","html-keyboard-response","228","779510","0.0-25.0-2.6","202f75d1-3dfb-459e-80aa-10fb7ecbab3a","null","<p style=""text-align: center;"">+</p>","null","fixation","","","","","","","","","","","","","","","","","","","","","",""
"","","","","","html-slider-response","229","780521","0.0-25.0-0.7","202f75d1-3dfb-459e-80aa-10fb7ecbab3a","1000","
                  <p style=""text-align: center;"">₪11
                                                <br>75%</p>
                  <p id=""wtp"" style=""text-align:center; margin-top: 0px; margin-bottom: 0px; font-size: 40px"";>&ensp;</p>","-","viewing","0","7","6B,18B,22C,24C,29A","","","","","","","","","","","","","","","","","","",""
"","","","","","html-slider-response","230","782395","0.0-25.0-1.7","202f75d1-3dfb-459e-80aa-10fb7ecbab3a","1872","
                  <p style=""text-align: center;"">₪11
                                                <br>75%</p>
                  <p id=""wtp"" style=""text-align:center; margin-top: 0px; margin-bottom: 0px; font-size: 40px"";>מוכנים לשלם: <span id=""c_p_y""></span></p>","70","evaluation","29","7","6B,18B,22C,24C,29A","75","11","69","","","","","","","","","","","","","","","",""
"","","","","","html-keyboard-response","231","783768","0.0-25.0-2.7","202f75d1-3dfb-459e-80aa-10fb7ecbab3a","null","<p style=""text-align: center;"">+</p>","null","fixation","","","","","","","","","","","","","","","","","","","","","",""
"","","","","","html-slider-response","232","784772","0.0-25.0-0.8","202f75d1-3dfb-459e-80aa-10fb7ecbab3a","1000","
                  <p style=""text-align: center;"">₪43
                                                <br>75%</p>
                  <p id=""wtp"" style=""text-align:center; margin-top: 0px; margin-bottom: 0px; font-size: 40px"";>&ensp;</p>","-","viewing","0","18","11B,19B,24A,26A","","","","","","","","","","","","","","","","","","",""
"","","","","","html-slider-response","233","785963","0.0-25.0-1.8","202f75d1-3dfb-459e-80aa-10fb7ecbab3a","1189","
                  <p style=""text-align: center;"">₪43
                                                <br>75%</p>
                  <p id=""wtp"" style=""text-align:center; margin-top: 0px; margin-bottom: 0px; font-size: 40px"";>מוכנים לשלם: <span id=""c_p_y""></span></p>","73","evaluation","65","18","11B,19B,24A,26A","75","43","72","","","","","","","","","","","","","","","",""
"","","","","","html-keyboard-response","234","787022","0.0-25.0-2.8","202f75d1-3dfb-459e-80aa-10fb7ecbab3a","null","<p style=""text-align: center;"">+</p>","null","fixation","","","","","","","","","","","","","","","","","","","","","",""
"","","","","","html-slider-response","235","788029","0.0-25.0-0.9","202f75d1-3dfb-459e-80aa-10fb7ecbab3a","1000","
                  <p style=""text-align: center;"">₪71
                                                <br>55%</p>
                  <p id=""wtp"" style=""text-align:center; margin-top: 0px; margin-bottom: 0px; font-size: 40px"";>&ensp;</p>","-","viewing","0","27","5B,18A","","","","","","","","","","","","","","","","","","",""
"","","","","","html-slider-response","236","790546","0.0-25.0-1.9","202f75d1-3dfb-459e-80aa-10fb7ecbab3a","2516","
                  <p style=""text-align: center;"">₪71
                                                <br>55%</p>
                  <p id=""wtp"" style=""text-align:center; margin-top: 0px; margin-bottom: 0px; font-size: 40px"";>מוכנים לשלם: <span id=""c_p_y""></span></p>","71","evaluation","57","27","5B,18A","55","71","71","","","","","","","","","","","","","","","",""
"","","","","","html-keyboard-response","237","792014","0.0-25.0-2.9","202f75d1-3dfb-459e-80aa-10fb7ecbab3a","null","<p style=""text-align: center;"">+</p>","null","fixation","","","","","","","","","","","","","","","","","","","","","",""
"","","","","","html-slider-response","238","793026","0.0-25.0-0.10","202f75d1-3dfb-459e-80aa-10fb7ecbab3a","1000","
                  <p style=""text-align: center;"">₪11
                                                <br>20%</p>
                  <p id=""wtp"" style=""text-align:center; margin-top: 0px; margin-bottom: 0px; font-size: 40px"";>&ensp;</p>","-","viewing","0","4","12C,17C,23C,28C","","","","","","","","","","","","","","","","","","",""
"","","","","","html-slider-response","239","793923","0.0-25.0-1.10","202f75d1-3dfb-459e-80aa-10fb7ecbab3a","896","
                  <p style=""text-align: center;"">₪11
                                                <br>20%</p>
                  <p id=""wtp"" style=""text-align:center; margin-top: 0px; margin-bottom: 0px; font-size: 40px"";>מוכנים לשלם: <span id=""c_p_y""></span></p>","0","evaluation","67","4","12C,17C,23C,28C","20","11","1","","","","","","","","","","","","","","","",""
"","","","","","html-keyboard-response","240","795171","0.0-25.0-2.10","202f75d1-3dfb-459e-80aa-10fb7ecbab3a","null","<p style=""text-align: center;"">+</p>","null","fixation","","","","","","","","","","","","","","","","","","","","","",""
"","","","","","html-slider-response","241","796174","0.0-25.0-0.11","202f75d1-3dfb-459e-80aa-10fb7ecbab3a","1000","
                  <p style=""text-align: center;"">₪58
                                                <br>40%</p>
                  <p id=""wtp"" style=""text-align:center; margin-top: 0px; margin-bottom: 0px; font-size: 40px"";>&ensp;</p>","-","viewing","0","20","10C,13A,19C,21B","","","","","","","","","","","","","","","","","","",""
"","","","","","html-slider-response","242","796963","0.0-25.0-1.11","202f75d1-3dfb-459e-80aa-10fb7ecbab3a","787","
                  <p style=""text-align: center;"">₪58
                                                <br>40%</p>
                  <p id=""wtp"" style=""text-align:center; margin-top: 0px; margin-bottom: 0px; font-size: 40px"";>מוכנים לשלם: <span id=""c_p_y""></span></p>","26","evaluation","28","20","10C,13A,19C,21B","40","58","26","","","","","","","","","","","","","","","",""
"","","","","","html-keyboard-response","243","798176","0.0-25.0-2.11","202f75d1-3dfb-459e-80aa-10fb7ecbab3a","null","<p style=""text-align: center;"">+</p>","null","fixation","","","","","","","","","","","","","","","","","","","","","",""
"","","","","","html-slider-response","244","799179","0.0-25.0-0.12","202f75d1-3dfb-459e-80aa-10fb7ecbab3a","1000","
                  <p style=""text-align: center;"">₪36
                                                <br>75%</p>
                  <p id=""wtp"" style=""text-align:center; margin-top: 0px; margin-bottom: 0px; font-size: 40px"";>&ensp;</p>","-","viewing","0","14","4B,5A,13B,16B","","","","","","","","","","","","","","","","","","",""
"","","","","","html-slider-response","245","801498","0.0-25.0-1.12","202f75d1-3dfb-459e-80aa-10fb7ecbab3a","2319","
                  <p style=""text-align: center;"">₪36
                                                <br>75%</p>
                  <p id=""wtp"" style=""text-align:center; margin-top: 0px; margin-bottom: 0px; font-size: 40px"";>מוכנים לשלם: <span id=""c_p_y""></span></p>","76","evaluation","63","14","4B,5A,13B,16B","75","36","76","","","","","","","","","","","","","","","",""
"","","","","","html-keyboard-response","246","802783","0.0-25.0-2.12","202f75d1-3dfb-459e-80aa-10fb7ecbab3a","null","<p style=""text-align: center;"">+</p>","null","fixation","","","","","","","","","","","","","","","","","","","","","",""
"","","","","","html-slider-response","247","803799","0.0-25.0-0.13","202f75d1-3dfb-459e-80aa-10fb7ecbab3a","1000","
                  <p style=""text-align: center;"">₪39
                                                <br>60%</p>
                  <p id=""wtp"" style=""text-align:center; margin-top: 0px; margin-bottom: 0px; font-size: 40px"";>&ensp;</p>","-","viewing","0","15","9C,25B","","","","","","","","","","","","","","","","","","",""
"","","","","","html-slider-response","248","807801","0.0-25.0-1.13","202f75d1-3dfb-459e-80aa-10fb7ecbab3a","null","
                  <p style=""text-align: center;"">₪39
                                                <br>60%</p>
                  <p id=""wtp"" style=""text-align:center; margin-top: 0px; margin-bottom: 0px; font-size: 40px"";>מוכנים לשלם: <span id=""c_p_y""></span></p>","null","evaluation","13","15","9C,25B","60","39","52","","","","","","","","","","","","","","","",""
"","","","","","html-keyboard-response","249","808716","0.0-25.0-2.13","202f75d1-3dfb-459e-80aa-10fb7ecbab3a","null","<p style=""text-align: center;"">+</p>","null","fixation","","","","","","","","","","","","","","","","","","","","","",""
"","","","","","html-slider-response","250","809722","0.0-25.0-0.14","202f75d1-3dfb-459e-80aa-10fb7ecbab3a","1000","
                  <p style=""text-align: center;"">₪16
                                                <br>20%</p>
                  <p id=""wtp"" style=""text-align:center; margin-top: 0px; margin-bottom: 0px; font-size: 40px"";>&ensp;</p>","-","viewing","0","8","14C,17A,20C,27A","","","","","","","","","","","","","","","","","","",""
