"success","timeout","failed_images","failed_audio","failed_video","trial_type","trial_index","time_elapsed","internal_node_id","subject_id","rt","stimulus","response","part","slider_start","ID","set_ID","prob","amount","last_location","actual_choice","actual_EV","binary_id","trinary_id","catch","direction","A_key","S_key","D_key","choice_prob","choice_amount","won_prize","potential_prize_amount","potential_prize_prob","total_prize","accuracy"
"true","false","[]","[]","[]","preload","0","10","0.0-0.0","bb1a5a3c-9c02-4ee3-a5d9-9196d9e44d3e","","","","","","","","","","","","","","","","","","","","","","","","","",""
"","","","","","html-keyboard-response","1","36784","0.0-1.0","bb1a5a3c-9c02-4ee3-a5d9-9196d9e44d3e","null","
          <h1>שלום וברוכים הבאים!</h1>
          <p>לפניכם ניסוי בקבלת החלטות עם שני חלקים.
          <br><br>לחצו על העכבר כדי להמשיך.</p>","0","example","","","","","","","","","","","","","","","","","","","","","",""
"","","","","","html-keyboard-response","2","45896","0.0-2.0","bb1a5a3c-9c02-4ee3-a5d9-9196d9e44d3e","null","
        <h1>חלק 1</h1>
        <p>בקרוב יוצגו בפניכם הגרלות.
        <br>עליכם לבחור את המחיר המירבי שתהיו מוכנים לשלם כדי להשתתף בהגרלה שתוצג.
        <br>יש לכם תקציב של ₪80 לכל הגרלה. 
        <br>נסו להעריך כל הגרלה בנפרד ולחשוב כמה היא שווה עבורכם, ₪80 זמינים לכל הגרלה בנפרד.
        <br><br>לחצו על העכבר כדי להמשיך.</p>","1","instructions","","","","","","","","","","","","","","","","","","","","","",""
"","","","","","html-keyboard-response","3","56416","0.0-3.0","bb1a5a3c-9c02-4ee3-a5d9-9196d9e44d3e","null","
        <p>בסוף הניסוי, המחשב יבחר את אחת ההגרלות ויקבע מחיר לכרטיס עבורה. 
        <br>במידה והמחיר שבחרתם נמוך מהמחיר שנבחר על ידי המחשב, לא תשתתפו בהגרלה ותשארו עם מלוא התקציב.
        <br>במידה והמחיר שבחרתם גבוה מהמחיר שנבחר על ידי המחשב, תשלמו את המחיר שנקבע ותשתתפו בהגרלה.
        <br><br>לחצו על העכבר כדי להמשיך.</p>","1","instructions","","","","","","","","","","","","","","","","","","","","","",""
"","","","","","html-slider-response","4","97304","0.0-4.0","bb1a5a3c-9c02-4ee3-a5d9-9196d9e44d3e","40772","
        <p style=""font-size: 42px;"">נתחיל עם דוגמא: 
        <br>ההגרלה מטה מציעה 65% סיכוי לזכות ב-₪40 
        <br>&emsp;&emsp;&emsp;&emsp;&emsp;&emsp;&emsp;&emsp;&ensp;35% סיכוי לזכות ב-₪0.
        <br><br>מה המחיר המירבי שתהיו מוכנים לשלם על כרטיס להגרלה זו בין 0 ל-₪80?
        <br>הזיזו את העכבר על פני המלבן ולחצו כדי לבצע בחירה.</p>
        
        <p style=""text-align: center;"">₪40<br>65%</p>

        <p id=""wtp"" style=""text-align:center; margin-top: 0px; margin-bottom: 0px; font-size: 40px"";>מוכנים לשלם: <span id=""c_p_y""></span></p>","30","example","68","","","","","","","","","","","","","","","","","","","","",""
"","","","","","html-keyboard-response","5","103856","0.0-5.0","bb1a5a3c-9c02-4ee3-a5d9-9196d9e44d3e","null","<p>יפה מאוד!
                <br> בחרתם שתהיו מוכנים לשלם ₪30 כדי להשתתף בהגרלה:
                <br><p style=""text-align: center;"">₪40<br>65%</p>
                <p>נשמע נכון?
                <br>נניח שהגרלה זו נבחרה בסוף הניסוי.
                <br>כעת המחשב יקבע מחיר עבורה באקראי.
                <br>לחצו על העכבר להמשך.</p>","1","example","","","","","","","","","","","","","","","","","","","","","",""
"","","","","","html-keyboard-response","6","112032","0.0-6.0","bb1a5a3c-9c02-4ee3-a5d9-9196d9e44d3e","null","<p>המחשב קבע מחיר: ₪62
                <br>ואתם בחרתם לשלם לכל היותר: ₪30
                <br><br>מכיוון שהמחיר שבחרתם נמוך מהמחיר שנקבע, לא תתשתתפו בהגרלה.
                <br>במקרה כזה, בסוף הניסוי תקבלו את כל התקציב ההתחלתי של ₪80.
                <br><br>לחצו על העכבר להמשך.</p>","1","example","","","","","","","","","","","","","","","","","","","","","",""
"","","","","","html-slider-response","7","126536","0.0-7.0","bb1a5a3c-9c02-4ee3-a5d9-9196d9e44d3e","14245","<p style=""font-size: 42px;"">הנה עוד דוגמא:
                <br>ההגרלה מטה מציעה 35% סיכוי לזכות ב-₪18 
                <br>&emsp;&emsp;&emsp;&emsp;&emsp;&emsp;&emsp;&emsp;&ensp;65% סיכוי לזכות ב-₪0.</p>
        
                <p style=""text-align: center;"">₪18<br>35%</p>
                <p id=""wtp"" style=""text-align:center; margin-top: 0px; margin-bottom: 0px; font-size: 40px"";>מוכנים לשלם: <span id=""c_p_y""></span></p>","0","example","11","","","","","","","","","","","","","","","","","","","","",""
"","","","","","html-keyboard-response","8","129984","0.0-8.0","bb1a5a3c-9c02-4ee3-a5d9-9196d9e44d3e","null","<p>הייתם מוכנים לשלם  ₪0 כדי להשתתף בהגרלה:
                <p style=""text-align: center;"">₪18<br>35%</p>
                <p>כעת נניח שהמחשב בחר את ההגרלה הזו בסוף הניסוי, וקבע עבורה מחיר.
                <br><br>לחצו על העכבר כדי להמשיך.</p>","1","instructions","","","","","","","","","","","","","","","","","","","","","",""
"","","","","","html-keyboard-response","9","143920","0.0-9.0","bb1a5a3c-9c02-4ee3-a5d9-9196d9e44d3e","null","<p>המחשב קבע מחיר להגרלה: ₪0
                <br>ואתם בחרתם לשלם לכל היותר: ₪0
                <br><br>כעת המחיר שנקבע זהה לזה שבחרתם, אז תשלמו את המחיר שקבע המחשב (₪0) ותשתתפו בהגרלה.
                <br>במקרה כזה, תסיימו את הניסוי עם תקציב של ₪80 ועם סיכוי לזכות ב-₪18 נוספים מההגרלה.
                <br>כלומר, תוכלו לקבל ₪80 אם לא תזכו בהגרלה, או ₪98 אם תזכו בהגרלה.
                <br><br>לחצו על העכבר להמשך.</p>","1","example","","","","","","","","","","","","","","","","","","","","","",""
"","","","","","html-keyboard-response","10","152856","0.0-10.0","bb1a5a3c-9c02-4ee3-a5d9-9196d9e44d3e","null","<p>במהלך הניסוי, קודם תראו את ההגרלה ורק לאחר מכן תוכלו לבחור.
                <p>כמו כן, יהיו לכם מספר שניות מוגבל להגיב.
                <p>בואו ננסה זאת עם ההגרלה הקודמת.
                <br>לחצו על העכבר כדי להמשיך.</p>","1","instructions","","","","","","","","","","","","","","","","","","","","","",""
"","","","","","html-slider-response","11","154125","0.0-11.0","bb1a5a3c-9c02-4ee3-a5d9-9196d9e44d3e","1000","
                    <p style=""text-align: center;"">₪18<br>35%</p>
                    <p id=""wtp"" style=""text-align:center; margin-top: 0px; margin-bottom: 0px; font-size: 40px"";>&ensp;</p>","77","instructions","0","","","","","","","","","","","","","","","","","","","","",""
"","","","","","html-slider-response","12","156848","0.0-12.0","bb1a5a3c-9c02-4ee3-a5d9-9196d9e44d3e","2455","
                    <p style=""text-align: center;"">₪18<br>35%</p>
                    <p id=""wtp"" style=""text-align:center; margin-top: 0px; margin-bottom: 0px; font-size: 40px"";>מוכנים לשלם: <span id=""c_p_y""></span></p>","0","instructions","38","","","","","","","","","","","","","","","","","","","","",""
"","","","","","html-keyboard-response","13","159568","0.0-13.0","bb1a5a3c-9c02-4ee3-a5d9-9196d9e44d3e","null","<p>יפה. הפעם בחרתם לשלם לכל היותר ₪0.
                <br><br>לחצו על העכבר כדי להמשיך.</p>","1","instructions","","","","","","","","","","","","","","","","","","","","","",""
"","","","","","html-keyboard-response","14","171136","0.0-15.0","bb1a5a3c-9c02-4ee3-a5d9-9196d9e44d3e","null","<p>כעת נתחיל את הניסוי.
                <br><br>אתם תראו הגרלות ותתבקשו לבחור כמה תהיו מוכנים לשלם כדי להשתתף בהן.
                <br>יש לכם תקציב של ₪80 עבור כל הגרלה.
                <br>בסוף הניסוי הגרלה אחת תבחר באקראי ותשוחק.
                <br><br>לחצו על העכבר כדי להתחיל את הניסוי.</p>","1","instructions","","","","","","","","","","","","","","","","","","","","","",""
"","","","","","html-keyboard-response","15","172394","0.0-16.0","bb1a5a3c-9c02-4ee3-a5d9-9196d9e44d3e","null","<p style=""text-align: center;"">+</p>","null","fixation","","","","","","","","","","","","","","","","","","","","","",""
"","","","","","html-slider-response","16","173407","0.0-17.0-0.0","bb1a5a3c-9c02-4ee3-a5d9-9196d9e44d3e","1000","
                  <p style=""text-align: center;"">₪11
                                                <br>25%</p>
                  <p id=""wtp"" style=""text-align:center; margin-top: 0px; margin-bottom: 0px; font-size: 40px"";>&ensp;</p>","-","viewing","0","5","12A,27B,28B,30B","","","","","","","","","","","","","","","","","","",""
"","","","","","html-slider-response","17","175233","0.0-17.0-1.0","bb1a5a3c-9c02-4ee3-a5d9-9196d9e44d3e","1823","
                  <p style=""text-align: center;"">₪11
                                                <br>25%</p>
                  <p id=""wtp"" style=""text-align:center; margin-top: 0px; margin-bottom: 0px; font-size: 40px"";>מוכנים לשלם: <span id=""c_p_y""></span></p>","0","evaluation","7","5","12A,27B,28B,30B","25","11","0","","","","","","","","","","","","","","","",""
"","","","","","html-keyboard-response","18","176314","0.0-17.0-2.0","bb1a5a3c-9c02-4ee3-a5d9-9196d9e44d3e","null","<p style=""text-align: center;"">+</p>","null","fixation","","","","","","","","","","","","","","","","","","","","","",""
"","","","","","html-slider-response","19","177317","0.0-17.0-0.1","bb1a5a3c-9c02-4ee3-a5d9-9196d9e44d3e","1000","
                  <p style=""text-align: center;"">₪39
                                                <br>65%</p>
                  <p id=""wtp"" style=""text-align:center; margin-top: 0px; margin-bottom: 0px; font-size: 40px"";>&ensp;</p>","-","viewing","0","16","1A,15A,26C","","","","","","","","","","","","","","","","","","",""
"","","","","","html-slider-response","20","179832","0.0-17.0-1.1","bb1a5a3c-9c02-4ee3-a5d9-9196d9e44d3e","2515","
                  <p style=""text-align: center;"">₪39
                                                <br>65%</p>
                  <p id=""wtp"" style=""text-align:center; margin-top: 0px; margin-bottom: 0px; font-size: 40px"";>מוכנים לשלם: <span id=""c_p_y""></span></p>","33","evaluation","67","16","1A,15A,26C","65","39","33","","","","","","","","","","","","","","","",""
"","","","","","html-keyboard-response","21","180920","0.0-17.0-2.1","bb1a5a3c-9c02-4ee3-a5d9-9196d9e44d3e","null","<p style=""text-align: center;"">+</p>","null","fixation","","","","","","","","","","","","","","","","","","","","","",""
"","","","","","html-slider-response","22","181926","0.0-17.0-0.2","bb1a5a3c-9c02-4ee3-a5d9-9196d9e44d3e","1000","
                  <p style=""text-align: center;"">₪61
                                                <br>55%</p>
                  <p id=""wtp"" style=""text-align:center; margin-top: 0px; margin-bottom: 0px; font-size: 40px"";>&ensp;</p>","-","viewing","0","23","7B,26B","","","","","","","","","","","","","","","","","","",""
"","","","","","html-slider-response","23","185305","0.0-17.0-1.2","bb1a5a3c-9c02-4ee3-a5d9-9196d9e44d3e","3377","
                  <p style=""text-align: center;"">₪61
                                                <br>55%</p>
                  <p id=""wtp"" style=""text-align:center; margin-top: 0px; margin-bottom: 0px; font-size: 40px"";>מוכנים לשלם: <span id=""c_p_y""></span></p>","35","evaluation","48","23","7B,26B","55","61","35","","","","","","","","","","","","","","","",""
"","","","","","html-keyboard-response","24","185888","0.0-17.0-2.2","bb1a5a3c-9c02-4ee3-a5d9-9196d9e44d3e","null","<p style=""text-align: center;"">+</p>","null","fixation","","","","","","","","","","","","","","","","","","","","","",""
"","","","","","html-slider-response","25","186894","0.0-17.0-0.3","bb1a5a3c-9c02-4ee3-a5d9-9196d9e44d3e","1000","
                  <p style=""text-align: center;"">₪39
                                                <br>60%</p>
                  <p id=""wtp"" style=""text-align:center; margin-top: 0px; margin-bottom: 0px; font-size: 40px"";>&ensp;</p>","-","viewing","0","15","9C,25B","","","","","","","","","","","","","","","","","","",""
"","","","","","html-slider-response","26","189961","0.0-17.0-1.3","bb1a5a3c-9c02-4ee3-a5d9-9196d9e44d3e","3065","
                  <p style=""text-align: center;"">₪39
                                                <br>60%</p>
                  <p id=""wtp"" style=""text-align:center; margin-top: 0px; margin-bottom: 0px; font-size: 40px"";>מוכנים לשלם: <span id=""c_p_y""></span></p>","40","evaluation","65","15","9C,25B","60","39","40","","","","","","","","","","","","","","","",""
"","","","","","html-keyboard-response","27","190600","0.0-17.0-2.3","bb1a5a3c-9c02-4ee3-a5d9-9196d9e44d3e","null","<p style=""text-align: center;"">+</p>","null","fixation","","","","","","","","","","","","","","","","","","","","","",""
"","","","","","html-slider-response","28","191609","0.0-17.0-0.4","bb1a5a3c-9c02-4ee3-a5d9-9196d9e44d3e","1000","
                  <p style=""text-align: center;"">₪64
                                                <br>25%</p>
                  <p id=""wtp"" style=""text-align:center; margin-top: 0px; margin-bottom: 0px; font-size: 40px"";>&ensp;</p>","-","viewing","0","24","6A,21A","","","","","","","","","","","","","","","","","","",""
"","","","","","html-slider-response","29","195620","0.0-17.0-1.4","bb1a5a3c-9c02-4ee3-a5d9-9196d9e44d3e","null","
                  <p style=""text-align: center;"">₪64
                                                <br>25%</p>
                  <p id=""wtp"" style=""text-align:center; margin-top: 0px; margin-bottom: 0px; font-size: 40px"";>מוכנים לשלם: <span id=""c_p_y""></span></p>","null","evaluation","41","24","6A,21A","25","64","16","","","","","","","","","","","","","","","",""
"","","","","","html-keyboard-response","30","196259","0.0-17.0-2.4","bb1a5a3c-9c02-4ee3-a5d9-9196d9e44d3e","null","<p style=""text-align: center;"">+</p>","null","fixation","","","","","","","","","","","","","","","","","","","","","",""
"","","","","","html-slider-response","31","197276","0.0-17.0-0.5","bb1a5a3c-9c02-4ee3-a5d9-9196d9e44d3e","1000","
                  <p style=""text-align: center;"">₪58
                                                <br>45%</p>
                  <p id=""wtp"" style=""text-align:center; margin-top: 0px; margin-bottom: 0px; font-size: 40px"";>&ensp;</p>","-","viewing","0","21","11C,18C,25A","","","","","","","","","","","","","","","","","","",""
"","","","","","html-slider-response","32","200137","0.0-17.0-1.5","bb1a5a3c-9c02-4ee3-a5d9-9196d9e44d3e","2860","
                  <p style=""text-align: center;"">₪58
                                                <br>45%</p>
                  <p id=""wtp"" style=""text-align:center; margin-top: 0px; margin-bottom: 0px; font-size: 40px"";>מוכנים לשלם: <span id=""c_p_y""></span></p>","23","evaluation","43","21","11C,18C,25A","45","58","23","","","","","","","","","","","","","","","",""
"","","","","","html-keyboard-response","33","200750","0.0-17.0-2.5","bb1a5a3c-9c02-4ee3-a5d9-9196d9e44d3e","null","<p style=""text-align: center;"">+</p>","null","fixation","","","","","","","","","","","","","","","","","","","","","",""
"","","","","","html-slider-response","34","201759","0.0-17.0-0.6","bb1a5a3c-9c02-4ee3-a5d9-9196d9e44d3e","1000","
                  <p style=""text-align: center;"">₪71
                                                <br>75%</p>
                  <p id=""wtp"" style=""text-align:center; margin-top: 0px; margin-bottom: 0px; font-size: 40px"";>&ensp;</p>","-","viewing","0","28","8B","","","","","","","","","","","","","","","","","","",""
"","","","","","html-slider-response","35","204176","0.0-17.0-1.6","bb1a5a3c-9c02-4ee3-a5d9-9196d9e44d3e","2416","
                  <p style=""text-align: center;"">₪71
                                                <br>75%</p>
                  <p id=""wtp"" style=""text-align:center; margin-top: 0px; margin-bottom: 0px; font-size: 40px"";>מוכנים לשלם: <span id=""c_p_y""></span></p>","51","evaluation","6","28","8B","75","71","51","","","","","","","","","","","","","","","",""
"","","","","","html-keyboard-response","36","205284","0.0-17.0-2.6","bb1a5a3c-9c02-4ee3-a5d9-9196d9e44d3e","null","<p style=""text-align: center;"">+</p>","null","fixation","","","","","","","","","","","","","","","","","","","","","",""
"","","","","","html-slider-response","37","206301","0.0-17.0-0.7","bb1a5a3c-9c02-4ee3-a5d9-9196d9e44d3e","1000","
                  <p style=""text-align: center;"">₪61
                                                <br>45%</p>
                  <p id=""wtp"" style=""text-align:center; margin-top: 0px; margin-bottom: 0px; font-size: 40px"";>&ensp;</p>","-","viewing","0","22","10A,11A","","","","","","","","","","","","","","","","","","",""
"","","","","","html-slider-response","38","208401","0.0-17.0-1.7","bb1a5a3c-9c02-4ee3-a5d9-9196d9e44d3e","2098","
                  <p style=""text-align: center;"">₪61
                                                <br>45%</p>
                  <p id=""wtp"" style=""text-align:center; margin-top: 0px; margin-bottom: 0px; font-size: 40px"";>מוכנים לשלם: <span id=""c_p_y""></span></p>","23","evaluation","76","22","10A,11A","45","61","23","","","","","","","","","","","","","","","",""
"","","","","","html-keyboard-response","39","209018","0.0-17.0-2.7","bb1a5a3c-9c02-4ee3-a5d9-9196d9e44d3e","null","<p style=""text-align: center;"">+</p>","null","fixation","","","","","","","","","","","","","","","","","","","","","",""
"","","","","","html-slider-response","40","210025","0.0-17.0-0.8","bb1a5a3c-9c02-4ee3-a5d9-9196d9e44d3e","1000","
                  <p style=""text-align: center;"">₪71
                                                <br>45%</p>
                  <p id=""wtp"" style=""text-align:center; margin-top: 0px; margin-bottom: 0px; font-size: 40px"";>&ensp;</p>","-","viewing","0","26","2B,16A","","","","","","","","","","","","","","","","","","",""
"","","","","","html-slider-response","41","212209","0.0-17.0-1.8","bb1a5a3c-9c02-4ee3-a5d9-9196d9e44d3e","2183","
                  <p style=""text-align: center;"">₪71
                                                <br>45%</p>
                  <p id=""wtp"" style=""text-align:center; margin-top: 0px; margin-bottom: 0px; font-size: 40px"";>מוכנים לשלם: <span id=""c_p_y""></span></p>","28","evaluation","42","26","2B,16A","45","71","28","","","","","","","","","","","","","","","",""
"","","","","","html-keyboard-response","42","213679","0.0-17.0-2.8","bb1a5a3c-9c02-4ee3-a5d9-9196d9e44d3e","null","<p style=""text-align: center;"">+</p>","null","fixation","","","","","","","","","","","","","","","","","","","","","",""
"","","","","","html-slider-response","43","214692","0.0-17.0-0.9","bb1a5a3c-9c02-4ee3-a5d9-9196d9e44d3e","1000","
                  <p style=""text-align: center;"">₪36
                                                <br>75%</p>
                  <p id=""wtp"" style=""text-align:center; margin-top: 0px; margin-bottom: 0px; font-size: 40px"";>&ensp;</p>","-","viewing","0","14","4B,5A,13B,16B","","","","","","","","","","","","","","","","","","",""
"","","","","","html-slider-response","44","218706","0.0-17.0-1.9","bb1a5a3c-9c02-4ee3-a5d9-9196d9e44d3e","null","
                  <p style=""text-align: center;"">₪36
                                                <br>75%</p>
                  <p id=""wtp"" style=""text-align:center; margin-top: 0px; margin-bottom: 0px; font-size: 40px"";>מוכנים לשלם: <span id=""c_p_y""></span></p>","null","evaluation","19","14","4B,5A,13B,16B","75","36","33","","","","","","","","","","","","","","","",""
"","","","","","html-keyboard-response","45","219463","0.0-17.0-2.9","bb1a5a3c-9c02-4ee3-a5d9-9196d9e44d3e","null","<p style=""text-align: center;"">+</p>","null","fixation","","","","","","","","","","","","","","","","","","","","","",""
"","","","","","html-slider-response","46","220480","0.0-17.0-0.10","bb1a5a3c-9c02-4ee3-a5d9-9196d9e44d3e","1000","
                  <p style=""text-align: center;"">₪36
                                                <br>30%</p>
                  <p id=""wtp"" style=""text-align:center; margin-top: 0px; margin-bottom: 0px; font-size: 40px"";>&ensp;</p>","-","viewing","0","11","3C,20A,22A","","","","","","","","","","","","","","","","","","",""
"","","","","","html-slider-response","47","223192","0.0-17.0-1.10","bb1a5a3c-9c02-4ee3-a5d9-9196d9e44d3e","2711","
                  <p style=""text-align: center;"">₪36
                                                <br>30%</p>
                  <p id=""wtp"" style=""text-align:center; margin-top: 0px; margin-bottom: 0px; font-size: 40px"";>מוכנים לשלם: <span id=""c_p_y""></span></p>","10","evaluation","17","11","3C,20A,22A","30","36","10","","","","","","","","","","","","","","","",""
"","","","","","html-keyboard-response","48","224650","0.0-17.0-2.10","bb1a5a3c-9c02-4ee3-a5d9-9196d9e44d3e","null","<p style=""text-align: center;"">+</p>","null","fixation","","","","","","","","","","","","","","","","","","","","","",""
"","","","","","html-slider-response","49","225654","0.0-17.0-0.11","bb1a5a3c-9c02-4ee3-a5d9-9196d9e44d3e","1000","
                  <p style=""text-align: center;"">₪71
                                                <br>55%</p>
                  <p id=""wtp"" style=""text-align:center; margin-top: 0px; margin-bottom: 0px; font-size: 40px"";>&ensp;</p>","-","viewing","0","27","5B,18A","","","","","","","","","","","","","","","","","","",""
"","","","","","html-slider-response","50","227688","0.0-17.0-1.11","bb1a5a3c-9c02-4ee3-a5d9-9196d9e44d3e","2033","
                  <p style=""text-align: center;"">₪71
                                                <br>55%</p>
                  <p id=""wtp"" style=""text-align:center; margin-top: 0px; margin-bottom: 0px; font-size: 40px"";>מוכנים לשלם: <span id=""c_p_y""></span></p>","32","evaluation","8","27","5B,18A","55","71","32","","","","","","","","","","","","","","","",""
"","","","","","html-keyboard-response","51","229139","0.0-17.0-2.11","bb1a5a3c-9c02-4ee3-a5d9-9196d9e44d3e","null","<p style=""text-align: center;"">+</p>","null","fixation","","","","","","","","","","","","","","","","","","","","","",""
"","","","","","html-slider-response","52","230155","0.0-17.0-0.12","bb1a5a3c-9c02-4ee3-a5d9-9196d9e44d3e","1000","
                  <p style=""text-align: center;"">₪36
                                                <br>60%</p>
                  <p id=""wtp"" style=""text-align:center; margin-top: 0px; margin-bottom: 0px; font-size: 40px"";>&ensp;</p>","-","viewing","0","12","1C,7C,15C","","","","","","","","","","","","","","","","","","",""
"","","","","","html-slider-response","53","233513","0.0-17.0-1.12","bb1a5a3c-9c02-4ee3-a5d9-9196d9e44d3e","3356","
                  <p style=""text-align: center;"">₪36
                                                <br>60%</p>
                  <p id=""wtp"" style=""text-align:center; margin-top: 0px; margin-bottom: 0px; font-size: 40px"";>מוכנים לשלם: <span id=""c_p_y""></span></p>","32","evaluation","49","12","1C,7C,15C","60","36","32","","","","","","","","","","","","","","","",""
"","","","","","html-keyboard-response","54","234595","0.0-17.0-2.12","bb1a5a3c-9c02-4ee3-a5d9-9196d9e44d3e","null","<p style=""text-align: center;"">+</p>","null","fixation","","","","","","","","","","","","","","","","","","","","","",""
"","","","","","html-slider-response","55","235602","0.0-17.0-0.13","bb1a5a3c-9c02-4ee3-a5d9-9196d9e44d3e","1000","
                  <p style=""text-align: center;"">₪58
                                                <br>40%</p>
                  <p id=""wtp"" style=""text-align:center; margin-top: 0px; margin-bottom: 0px; font-size: 40px"";>&ensp;</p>","-","viewing","0","20","10C,13A,19C,21B","","","","","","","","","","","","","","","","","","",""
"","","","","","html-slider-response","56","238385","0.0-17.0-1.13","bb1a5a3c-9c02-4ee3-a5d9-9196d9e44d3e","2782","
                  <p style=""text-align: center;"">₪58
                                                <br>40%</p>
                  <p id=""wtp"" style=""text-align:center; margin-top: 0px; margin-bottom: 0px; font-size: 40px"";>מוכנים לשלם: <span id=""c_p_y""></span></p>","16","evaluation","25","20","10C,13A,19C,21B","40","58","16","","","","","","","","","","","","","","","",""
"","","","","","html-keyboard-response","57","239345","0.0-17.0-2.13","bb1a5a3c-9c02-4ee3-a5d9-9196d9e44d3e","null","<p style=""text-align: center;"">+</p>","null","fixation","","","","","","","","","","","","","","","","","","","","","",""
"","","","","","html-slider-response","58","240348","0.0-17.0-0.14","bb1a5a3c-9c02-4ee3-a5d9-9196d9e44d3e","1000","
                  <p style=""text-align: center;"">₪79
                                                <br>65%</p>
                  <p id=""wtp"" style=""text-align:center; margin-top: 0px; margin-bottom: 0px; font-size: 40px"";>&ensp;</p>","-","viewing","0","31","8A","","","","","","","","","","","","","","","","","","",""
"","","","","","html-slider-response","59","242673","0.0-17.0-1.14","bb1a5a3c-9c02-4ee3-a5d9-9196d9e44d3e","2324","
                  <p style=""text-align: center;"">₪79
                                                <br>65%</p>
                  <p id=""wtp"" style=""text-align:center; margin-top: 0px; margin-bottom: 0px; font-size: 40px"";>מוכנים לשלם: <span id=""c_p_y""></span></p>","37","evaluation","19","31","8A","65","79","37","","","","","","","","","","","","","","","",""
"","","","","","html-keyboard-response","60","243380","0.0-17.0-2.14","bb1a5a3c-9c02-4ee3-a5d9-9196d9e44d3e","null","<p style=""text-align: center;"">+</p>","null","fixation","","","","","","","","","","","","","","","","","","","","","",""
"","","","","","html-slider-response","61","244392","0.0-17.0-0.15","bb1a5a3c-9c02-4ee3-a5d9-9196d9e44d3e","1000","
                  <p style=""text-align: center;"">₪4
                                                <br>75%</p>
                  <p id=""wtp"" style=""text-align:center; margin-top: 0px; margin-bottom: 0px; font-size: 40px"";>&ensp;</p>","-","viewing","0","3","12B,20B,23B,27C,29C","","","","","","","","","","","","","","","","","","",""
"","","","","","html-slider-response","62","247664","0.0-17.0-1.15","bb1a5a3c-9c02-4ee3-a5d9-9196d9e44d3e","3270","
                  <p style=""text-align: center;"">₪4
                                                <br>75%</p>
                  <p id=""wtp"" style=""text-align:center; margin-top: 0px; margin-bottom: 0px; font-size: 40px"";>מוכנים לשלם: <span id=""c_p_y""></span></p>","0","evaluation","64","3","12B,20B,23B,27C,29C","75","4","0","","","","","","","","","","","","","","","",""
"","","","","","html-keyboard-response","63","248176","0.0-17.0-2.15","bb1a5a3c-9c02-4ee3-a5d9-9196d9e44d3e","null","<p style=""text-align: center;"">+</p>","null","fixation","","","","","","","","","","","","","","","","","","","","","",""
"","","","","","html-slider-response","64","249183","0.0-17.0-0.16","bb1a5a3c-9c02-4ee3-a5d9-9196d9e44d3e","1000","
                  <p style=""text-align: center;"">₪76
                                                <br>65%</p>
                  <p id=""wtp"" style=""text-align:center; margin-top: 0px; margin-bottom: 0px; font-size: 40px"";>&ensp;</p>","-","viewing","0","29","8C,19A,24B","","","","","","","","","","","","","","","","","","",""
"","","","","","html-slider-response","65","250960","0.0-17.0-1.16","bb1a5a3c-9c02-4ee3-a5d9-9196d9e44d3e","1776","
                  <p style=""text-align: center;"">₪76
                                                <br>65%</p>
                  <p id=""wtp"" style=""text-align:center; margin-top: 0px; margin-bottom: 0px; font-size: 40px"";>מוכנים לשלם: <span id=""c_p_y""></span></p>","28","evaluation","0","29","8C,19A,24B","65","76","28","","","","","","","","","","","","","","","",""
"","","","","","html-keyboard-response","66","251585","0.0-17.0-2.16","bb1a5a3c-9c02-4ee3-a5d9-9196d9e44d3e","null","<p style=""text-align: center;"">+</p>","null","fixation","","","","","","","","","","","","","","","","","","","","","",""
"","","","","","html-slider-response","67","252593","0.0-17.0-0.17","bb1a5a3c-9c02-4ee3-a5d9-9196d9e44d3e","1000","
                  <p style=""text-align: center;"">₪4
                                                <br>25%</p>
                  <p id=""wtp"" style=""text-align:center; margin-top: 0px; margin-bottom: 0px; font-size: 40px"";>&ensp;</p>","-","viewing","0","1","6C,29B,30C","","","","","","","","","","","","","","","","","","",""
"","","","","","html-slider-response","68","254152","0.0-17.0-1.17","bb1a5a3c-9c02-4ee3-a5d9-9196d9e44d3e","1558","
                  <p style=""text-align: center;"">₪4
                                                <br>25%</p>
                  <p id=""wtp"" style=""text-align:center; margin-top: 0px; margin-bottom: 0px; font-size: 40px"";>מוכנים לשלם: <span id=""c_p_y""></span></p>","0","evaluation","64","1","6C,29B,30C","25","4","0","","","","","","","","","","","","","","","",""
"","","","","","html-keyboard-response","69","255345","0.0-17.0-2.17","bb1a5a3c-9c02-4ee3-a5d9-9196d9e44d3e","null","<p style=""text-align: center;"">+</p>","null","fixation","","","","","","","","","","","","","","","","","","","","","",""
"","","","","","html-slider-response","70","256356","0.0-17.0-0.18","bb1a5a3c-9c02-4ee3-a5d9-9196d9e44d3e","1000","
                  <p style=""text-align: center;"">₪16
                                                <br>20%</p>
                  <p id=""wtp"" style=""text-align:center; margin-top: 0px; margin-bottom: 0px; font-size: 40px"";>&ensp;</p>","-","viewing","0","8","14C,17A,20C,27A","","","","","","","","","","","","","","","","","","",""
"","","","","","html-slider-response","71","257977","0.0-17.0-1.18","bb1a5a3c-9c02-4ee3-a5d9-9196d9e44d3e","1619","
                  <p style=""text-align: center;"">₪16
                                                <br>20%</p>
                  <p id=""wtp"" style=""text-align:center; margin-top: 0px; margin-bottom: 0px; font-size: 40px"";>מוכנים לשלם: <span id=""c_p_y""></span></p>","0","evaluation","76","8","14C,17A,20C,27A","20","16","0","","","","","","","","","","","","","","","",""
"","","","","","html-keyboard-response","72","258805","0.0-17.0-2.18","bb1a5a3c-9c02-4ee3-a5d9-9196d9e44d3e","null","<p style=""text-align: center;"">+</p>","null","fixation","","","","","","","","","","","","","","","","","","","","","",""
"","","","","","html-slider-response","73","259820","0.0-17.0-0.19","bb1a5a3c-9c02-4ee3-a5d9-9196d9e44d3e","1000","
                  <p style=""text-align: center;"">₪11
                                                <br>75%</p>
                  <p id=""wtp"" style=""text-align:center; margin-top: 0px; margin-bottom: 0px; font-size: 40px"";>&ensp;</p>","-","viewing","0","7","6B,18B,22C,24C,29A","","","","","","","","","","","","","","","","","","",""
"","","","","","html-slider-response","74","262209","0.0-17.0-1.19","bb1a5a3c-9c02-4ee3-a5d9-9196d9e44d3e","2388","
                  <p style=""text-align: center;"">₪11
                                                <br>75%</p>
                  <p id=""wtp"" style=""text-align:center; margin-top: 0px; margin-bottom: 0px; font-size: 40px"";>מוכנים לשלם: <span id=""c_p_y""></span></p>","7","evaluation","3","7","6B,18B,22C,24C,29A","75","11","7","","","","","","","","","","","","","","","",""
"","","","","","html-keyboard-response","75","263549","0.0-17.0-2.19","bb1a5a3c-9c02-4ee3-a5d9-9196d9e44d3e","null","<p style=""text-align: center;"">+</p>","null","fixation","","","","","","","","","","","","","","","","","","","","","",""
"","","","","","html-slider-response","76","264556","0.0-17.0-0.20","bb1a5a3c-9c02-4ee3-a5d9-9196d9e44d3e","1000","
                  <p style=""text-align: center;"">₪43
                                                <br>60%</p>
                  <p id=""wtp"" style=""text-align:center; margin-top: 0px; margin-bottom: 0px; font-size: 40px"";>&ensp;</p>","-","viewing","0","17","2A,7A,9A,15B","","","","","","","","","","","","","","","","","","",""
"","","","","","html-slider-response","77","267649","0.0-17.0-1.20","bb1a5a3c-9c02-4ee3-a5d9-9196d9e44d3e","3092","
                  <p style=""text-align: center;"">₪43
                                                <br>60%</p>
                  <p id=""wtp"" style=""text-align:center; margin-top: 0px; margin-bottom: 0px; font-size: 40px"";>מוכנים לשלם: <span id=""c_p_y""></span></p>","25","evaluation","50","17","2A,7A,9A,15B","60","43","25","","","","","","","","","","","","","","","",""
"","","","","","html-keyboard-response","78","268934","0.0-17.0-2.20","bb1a5a3c-9c02-4ee3-a5d9-9196d9e44d3e","null","<p style=""text-align: center;"">+</p>","null","fixation","","","","","","","","","","","","","","","","","","","","","",""
"","","","","","html-slider-response","79","269943","0.0-17.0-0.21","bb1a5a3c-9c02-4ee3-a5d9-9196d9e44d3e","1000","
                  <p style=""text-align: center;"">₪64
                                                <br>50%</p>
                  <p id=""wtp"" style=""text-align:center; margin-top: 0px; margin-bottom: 0px; font-size: 40px"";>&ensp;</p>","-","viewing","0","25","1B,3B,4A","","","","","","","","","","","","","","","","","","",""
"","","","","","html-slider-response","80","272392","0.0-17.0-1.21","bb1a5a3c-9c02-4ee3-a5d9-9196d9e44d3e","2448","
                  <p style=""text-align: center;"">₪64
                                                <br>50%</p>
                  <p id=""wtp"" style=""text-align:center; margin-top: 0px; margin-bottom: 0px; font-size: 40px"";>מוכנים לשלם: <span id=""c_p_y""></span></p>","30","evaluation","21","25","1B,3B,4A","50","64","30","","","","","","","","","","","","","","","",""
"","","","","","html-keyboard-response","81","273570","0.0-17.0-2.21","bb1a5a3c-9c02-4ee3-a5d9-9196d9e44d3e","null","<p style=""text-align: center;"">+</p>","null","fixation","","","","","","","","","","","","","","","","","","","","","",""
"","","","","","html-slider-response","82","274584","0.0-17.0-0.22","bb1a5a3c-9c02-4ee3-a5d9-9196d9e44d3e","1000","
                  <p style=""text-align: center;"">₪36
                                                <br>70%</p>
                  <p id=""wtp"" style=""text-align:center; margin-top: 0px; margin-bottom: 0px; font-size: 40px"";>&ensp;</p>","-","viewing","0","13","3A,5C,10B","","","","","","","","","","","","","","","","","","",""
"","","","","","html-slider-response","83","277305","0.0-17.0-1.22","bb1a5a3c-9c02-4ee3-a5d9-9196d9e44d3e","2720","
                  <p style=""text-align: center;"">₪36
                                                <br>70%</p>
                  <p id=""wtp"" style=""text-align:center; margin-top: 0px; margin-bottom: 0px; font-size: 40px"";>מוכנים לשלם: <span id=""c_p_y""></span></p>","25","evaluation","37","13","3A,5C,10B","70","36","25","","","","","","","","","","","","","","","",""
"","","","","","html-keyboard-response","84","278338","0.0-17.0-2.22","bb1a5a3c-9c02-4ee3-a5d9-9196d9e44d3e","null","<p style=""text-align: center;"">+</p>","null","fixation","","","","","","","","","","","","","","","","","","","","","",""
"","","","","","html-slider-response","85","279355","0.0-17.0-0.23","bb1a5a3c-9c02-4ee3-a5d9-9196d9e44d3e","1000","
                  <p style=""text-align: center;"">₪18
                                                <br>50%</p>
                  <p id=""wtp"" style=""text-align:center; margin-top: 0px; margin-bottom: 0px; font-size: 40px"";>&ensp;</p>","-","viewing","0","10","2C,16C,22B,28A","","","","","","","","","","","","","","","","","","",""
"","","","","","html-slider-response","86","282401","0.0-17.0-1.23","bb1a5a3c-9c02-4ee3-a5d9-9196d9e44d3e","3044","
                  <p style=""text-align: center;"">₪18
                                                <br>50%</p>
                  <p id=""wtp"" style=""text-align:center; margin-top: 0px; margin-bottom: 0px; font-size: 40px"";>מוכנים לשלם: <span id=""c_p_y""></span></p>","6","evaluation","45","10","2C,16C,22B,28A","50","18","6","","","","","","","","","","","","","","","",""
"","","","","","html-keyboard-response","87","283794","0.0-17.0-2.23","bb1a5a3c-9c02-4ee3-a5d9-9196d9e44d3e","null","<p style=""text-align: center;"">+</p>","null","fixation","","","","","","","","","","","","","","","","","","","","","",""
"","","","","","html-slider-response","88","284808","0.0-17.0-0.24","bb1a5a3c-9c02-4ee3-a5d9-9196d9e44d3e","1000","
                  <p style=""text-align: center;"">₪11
                                                <br>45%</p>
                  <p id=""wtp"" style=""text-align:center; margin-top: 0px; margin-bottom: 0px; font-size: 40px"";>&ensp;</p>","-","viewing","0","6","14B,21C,25C","","","","","","","","","","","","","","","","","","",""
"","","","","","html-slider-response","89","286536","0.0-17.0-1.24","bb1a5a3c-9c02-4ee3-a5d9-9196d9e44d3e","1726","
                  <p style=""text-align: center;"">₪11
                                                <br>45%</p>
                  <p id=""wtp"" style=""text-align:center; margin-top: 0px; margin-bottom: 0px; font-size: 40px"";>מוכנים לשלם: <span id=""c_p_y""></span></p>","0","evaluation","54","6","14B,21C,25C","45","11","0","","","","","","","","","","","","","","","",""
"","","","","","html-keyboard-response","90","288013","0.0-17.0-2.24","bb1a5a3c-9c02-4ee3-a5d9-9196d9e44d3e","null","<p style=""text-align: center;"">+</p>","null","fixation","","","","","","","","","","","","","","","","","","","","","",""
"","","","","","html-slider-response","91","289025","0.0-17.0-0.25","bb1a5a3c-9c02-4ee3-a5d9-9196d9e44d3e","1000","
                  <p style=""text-align: center;"">₪43
                                                <br>75%</p>
                  <p id=""wtp"" style=""text-align:center; margin-top: 0px; margin-bottom: 0px; font-size: 40px"";>&ensp;</p>","-","viewing","0","18","11B,19B,24A,26A","","","","","","","","","","","","","","","","","","",""
"","","","","","html-slider-response","92","290889","0.0-17.0-1.25","bb1a5a3c-9c02-4ee3-a5d9-9196d9e44d3e","1862","
                  <p style=""text-align: center;"">₪43
                                                <br>75%</p>
                  <p id=""wtp"" style=""text-align:center; margin-top: 0px; margin-bottom: 0px; font-size: 40px"";>מוכנים לשלם: <span id=""c_p_y""></span></p>","29","evaluation","20","18","11B,19B,24A,26A","75","43","29","","","","","","","","","","","","","","","",""
"","","","","","html-keyboard-response","93","291506","0.0-17.0-2.25","bb1a5a3c-9c02-4ee3-a5d9-9196d9e44d3e","null","<p style=""text-align: center;"">+</p>","null","fixation","","","","","","","","","","","","","","","","","","","","","",""
"","","","","","html-slider-response","94","292519","0.0-17.0-0.26","bb1a5a3c-9c02-4ee3-a5d9-9196d9e44d3e","1000","
                  <p style=""text-align: center;"">₪18
                                                <br>25%</p>
                  <p id=""wtp"" style=""text-align:center; margin-top: 0px; margin-bottom: 0px; font-size: 40px"";>&ensp;</p>","-","viewing","0","9","14A,23A","","","","","","","","","","","","","","","","","","",""
"","","","","","html-slider-response","95","293944","0.0-17.0-1.26","bb1a5a3c-9c02-4ee3-a5d9-9196d9e44d3e","1424","
                  <p style=""text-align: center;"">₪18
                                                <br>25%</p>
                  <p id=""wtp"" style=""text-align:center; margin-top: 0px; margin-bottom: 0px; font-size: 40px"";>מוכנים לשלם: <span id=""c_p_y""></span></p>","0","evaluation","75","9","14A,23A","25","18","0","","","","","","","","","","","","","","","",""
"","","","","","html-keyboard-response","96","294974","0.0-17.0-2.26","bb1a5a3c-9c02-4ee3-a5d9-9196d9e44d3e","null","<p style=""text-align: center;"">+</p>","null","fixation","","","","","","","","","","","","","","","","","","","","","",""
"","","","","","html-slider-response","97","295991","0.0-17.0-0.27","bb1a5a3c-9c02-4ee3-a5d9-9196d9e44d3e","1000","
                  <p style=""text-align: center;"">₪4
                                                <br>50%</p>
                  <p id=""wtp"" style=""text-align:center; margin-top: 0px; margin-bottom: 0px; font-size: 40px"";>&ensp;</p>","-","viewing","0","2","4C,17B","","","","","","","","","","","","","","","","","","",""
"","","","","","html-slider-response","98","297024","0.0-17.0-1.27","bb1a5a3c-9c02-4ee3-a5d9-9196d9e44d3e","1032","
                  <p style=""text-align: center;"">₪4
                                                <br>50%</p>
                  <p id=""wtp"" style=""text-align:center; margin-top: 0px; margin-bottom: 0px; font-size: 40px"";>מוכנים לשלם: <span id=""c_p_y""></span></p>","0","evaluation","46","2","4C,17B","50","4","0","","","","","","","","","","","","","","","",""
"","","","","","html-keyboard-response","99","297656","0.0-17.0-2.27","bb1a5a3c-9c02-4ee3-a5d9-9196d9e44d3e","null","<p style=""text-align: center;"">+</p>","null","fixation","","","","","","","","","","","","","","","","","","","","","",""
"","","","","","html-slider-response","100","298658","0.0-17.0-0.28","bb1a5a3c-9c02-4ee3-a5d9-9196d9e44d3e","1000","
                  <p style=""text-align: center;"">₪58
                                                <br>30%</p>
                  <p id=""wtp"" style=""text-align:center; margin-top: 0px; margin-bottom: 0px; font-size: 40px"";>&ensp;</p>","-","viewing","0","19","13C,30A","","","","","","","","","","","","","","","","","","",""
"","","","","","html-slider-response","101","302674","0.0-17.0-1.28","bb1a5a3c-9c02-4ee3-a5d9-9196d9e44d3e","null","
                  <p style=""text-align: center;"">₪58
                                                <br>30%</p>
                  <p id=""wtp"" style=""text-align:center; margin-top: 0px; margin-bottom: 0px; font-size: 40px"";>מוכנים לשלם: <span id=""c_p_y""></span></p>","null","evaluation","63","19","13C,30A","30","58","6","","","","","","","","","","","","","","","",""
"","","","","","html-keyboard-response","102","303740","0.0-17.0-2.28","bb1a5a3c-9c02-4ee3-a5d9-9196d9e44d3e","null","<p style=""text-align: center;"">+</p>","null","fixation","","","","","","","","","","","","","","","","","","","","","",""
"","","","","","html-slider-response","103","304744","0.0-17.0-0.29","bb1a5a3c-9c02-4ee3-a5d9-9196d9e44d3e","1000","
                  <p style=""text-align: center;"">₪11
                                                <br>20%</p>
                  <p id=""wtp"" style=""text-align:center; margin-top: 0px; margin-bottom: 0px; font-size: 40px"";>&ensp;</p>","-","viewing","0","4","12C,17C,23C,28C","","","","","","","","","","","","","","","","","","",""
"","","","","","html-slider-response","104","306064","0.0-17.0-1.29","bb1a5a3c-9c02-4ee3-a5d9-9196d9e44d3e","1319","
                  <p style=""text-align: center;"">₪11
                                                <br>20%</p>
                  <p id=""wtp"" style=""text-align:center; margin-top: 0px; margin-bottom: 0px; font-size: 40px"";>מוכנים לשלם: <span id=""c_p_y""></span></p>","0","evaluation","43","4","12C,17C,23C,28C","20","11","0","","","","","","","","","","","","","","","",""
"","","","","","html-keyboard-response","105","307003","0.0-17.0-2.29","bb1a5a3c-9c02-4ee3-a5d9-9196d9e44d3e","null","<p style=""text-align: center;"">+</p>","null","fixation","","","","","","","","","","","","","","","","","","","","","",""
"","","","","","html-slider-response","106","308010","0.0-17.0-0.30","bb1a5a3c-9c02-4ee3-a5d9-9196d9e44d3e","1000","
                  <p style=""text-align: center;"">₪79
                                                <br>40%</p>
                  <p id=""wtp"" style=""text-align:center; margin-top: 0px; margin-bottom: 0px; font-size: 40px"";>&ensp;</p>","-","viewing","0","30","9B","","","","","","","","","","","","","","","","","","",""
"","","","","","html-slider-response","107","310608","0.0-17.0-1.30","bb1a5a3c-9c02-4ee3-a5d9-9196d9e44d3e","2597","
                  <p style=""text-align: center;"">₪79
                                                <br>40%</p>
                  <p id=""wtp"" style=""text-align:center; margin-top: 0px; margin-bottom: 0px; font-size: 40px"";>מוכנים לשלם: <span id=""c_p_y""></span></p>","15","evaluation","27","30","9B","40","79","15","","","","","","","","","","","","","","","",""
"","","","","","html-keyboard-response","108","311769","0.0-17.0-2.30","bb1a5a3c-9c02-4ee3-a5d9-9196d9e44d3e","null","<p style=""text-align: center;"">+</p>","null","fixation","","","","","","","","","","","","","","","","","","","","","",""
"","","","","","html-keyboard-response","109","312782","0.0-18.0","bb1a5a3c-9c02-4ee3-a5d9-9196d9e44d3e","null","<p style=""text-align: center;"">+</p>","null","fixation","","","","","","","","","","","","","","","","","","","","","",""
"","","","","","html-keyboard-response","110","322248","0.0-19.0","bb1a5a3c-9c02-4ee3-a5d9-9196d9e44d3e","null","<p>הפסקה.
          <br>לחצו כדי להמשיך.</p>","1","scan_wait","","","","","","","","","","","","","","","","","","","","","",""
"","","","","","html-keyboard-response","111","323260","0.0-20.0","bb1a5a3c-9c02-4ee3-a5d9-9196d9e44d3e","null","<p style=""text-align: center;"">+</p>","null","fixation","","","","","","","","","","","","","","","","","","","","","",""
"","","","","","html-slider-response","112","324277","0.0-21.0-0.0","bb1a5a3c-9c02-4ee3-a5d9-9196d9e44d3e","1000","
                  <p style=""text-align: center;"">₪4
                                                <br>50%</p>
                  <p id=""wtp"" style=""text-align:center; margin-top: 0px; margin-bottom: 0px; font-size: 40px"";>&ensp;</p>","-","viewing","0","2","4C,17B","","","","","","","","","","","","","","","","","","",""
"","","","","","html-slider-response","113","325408","0.0-21.0-1.0","bb1a5a3c-9c02-4ee3-a5d9-9196d9e44d3e","1131","
                  <p style=""text-align: center;"">₪4
                                                <br>50%</p>
                  <p id=""wtp"" style=""text-align:center; margin-top: 0px; margin-bottom: 0px; font-size: 40px"";>מוכנים לשלם: <span id=""c_p_y""></span></p>","0","evaluation","18","2","4C,17B","50","4","0","","","","","","","","","","","","","","","",""
"","","","","","html-keyboard-response","114","326145","0.0-21.0-2.0","bb1a5a3c-9c02-4ee3-a5d9-9196d9e44d3e","null","<p style=""text-align: center;"">+</p>","null","fixation","","","","","","","","","","","","","","","","","","","","","",""
"","","","","","html-slider-response","115","327152","0.0-21.0-0.1","bb1a5a3c-9c02-4ee3-a5d9-9196d9e44d3e","1000","
                  <p style=""text-align: center;"">₪71
                                                <br>55%</p>
                  <p id=""wtp"" style=""text-align:center; margin-top: 0px; margin-bottom: 0px; font-size: 40px"";>&ensp;</p>","-","viewing","0","27","5B,18A","","","","","","","","","","","","","","","","","","",""
"","","","","","html-slider-response","116","329016","0.0-21.0-1.1","bb1a5a3c-9c02-4ee3-a5d9-9196d9e44d3e","1862","
                  <p style=""text-align: center;"">₪71
                                                <br>55%</p>
                  <p id=""wtp"" style=""text-align:center; margin-top: 0px; margin-bottom: 0px; font-size: 40px"";>מוכנים לשלם: <span id=""c_p_y""></span></p>","22","evaluation","3","27","5B,18A","55","71","22","","","","","","","","","","","","","","","",""
"","","","","","html-keyboard-response","117","329919","0.0-21.0-2.1","bb1a5a3c-9c02-4ee3-a5d9-9196d9e44d3e","null","<p style=""text-align: center;"">+</p>","null","fixation","","","","","","","","","","","","","","","","","","","","","",""
"","","","","","html-slider-response","118","330922","0.0-21.0-0.2","bb1a5a3c-9c02-4ee3-a5d9-9196d9e44d3e","1000","
                  <p style=""text-align: center;"">₪4
                                                <br>25%</p>
                  <p id=""wtp"" style=""text-align:center; margin-top: 0px; margin-bottom: 0px; font-size: 40px"";>&ensp;</p>","-","viewing","0","1","6C,29B,30C","","","","","","","","","","","","","","","","","","",""
"","","","","","html-slider-response","119","332240","0.0-21.0-1.2","bb1a5a3c-9c02-4ee3-a5d9-9196d9e44d3e","1317","
                  <p style=""text-align: center;"">₪4
                                                <br>25%</p>
                  <p id=""wtp"" style=""text-align:center; margin-top: 0px; margin-bottom: 0px; font-size: 40px"";>מוכנים לשלם: <span id=""c_p_y""></span></p>","0","evaluation","60","1","6C,29B,30C","25","4","0","","","","","","","","","","","","","","","",""
"","","","","","html-keyboard-response","120","333425","0.0-21.0-2.2","bb1a5a3c-9c02-4ee3-a5d9-9196d9e44d3e","null","<p style=""text-align: center;"">+</p>","null","fixation","","","","","","","","","","","","","","","","","","","","","",""
"","","","","","html-slider-response","121","334442","0.0-21.0-0.3","bb1a5a3c-9c02-4ee3-a5d9-9196d9e44d3e","1000","
                  <p style=""text-align: center;"">₪36
                                                <br>60%</p>
                  <p id=""wtp"" style=""text-align:center; margin-top: 0px; margin-bottom: 0px; font-size: 40px"";>&ensp;</p>","-","viewing","0","12","1C,7C,15C","","","","","","","","","","","","","","","","","","",""
"","","","","","html-slider-response","122","337128","0.0-21.0-1.3","bb1a5a3c-9c02-4ee3-a5d9-9196d9e44d3e","2686","
                  <p style=""text-align: center;"">₪36
                                                <br>60%</p>
                  <p id=""wtp"" style=""text-align:center; margin-top: 0px; margin-bottom: 0px; font-size: 40px"";>מוכנים לשלם: <span id=""c_p_y""></span></p>","16","evaluation","54","12","1C,7C,15C","60","36","16","","","","","","","","","","","","","","","",""
"","","","","","html-keyboard-response","123","337751","0.0-21.0-2.3","bb1a5a3c-9c02-4ee3-a5d9-9196d9e44d3e","null","<p style=""text-align: center;"">+</p>","null","fixation","","","","","","","","","","","","","","","","","","","","","",""
"","","","","","html-slider-response","124","338756","0.0-21.0-0.4","bb1a5a3c-9c02-4ee3-a5d9-9196d9e44d3e","1000","
                  <p style=""text-align: center;"">₪39
                                                <br>60%</p>
                  <p id=""wtp"" style=""text-align:center; margin-top: 0px; margin-bottom: 0px; font-size: 40px"";>&ensp;</p>","-","viewing","0","15","9C,25B","","","","","","","","","","","","","","","","","","",""
"","","","","","html-slider-response","125","342032","0.0-21.0-1.4","bb1a5a3c-9c02-4ee3-a5d9-9196d9e44d3e","3275","
                  <p style=""text-align: center;"">₪39
                                                <br>60%</p>
                  <p id=""wtp"" style=""text-align:center; margin-top: 0px; margin-bottom: 0px; font-size: 40px"";>מוכנים לשלם: <span id=""c_p_y""></span></p>","20","evaluation","24","15","9C,25B","60","39","20","","","","","","","","","","","","","","","",""
"","","","","","html-keyboard-response","126","342773","0.0-21.0-2.4","bb1a5a3c-9c02-4ee3-a5d9-9196d9e44d3e","null","<p style=""text-align: center;"">+</p>","null","fixation","","","","","","","","","","","","","","","","","","","","","",""
"","","","","","html-slider-response","127","343786","0.0-21.0-0.5","bb1a5a3c-9c02-4ee3-a5d9-9196d9e44d3e","1000","
                  <p style=""text-align: center;"">₪36
                                                <br>75%</p>
                  <p id=""wtp"" style=""text-align:center; margin-top: 0px; margin-bottom: 0px; font-size: 40px"";>&ensp;</p>","-","viewing","0","14","4B,5A,13B,16B","","","","","","","","","","","","","","","","","","",""
"","","","","","html-slider-response","128","346296","0.0-21.0-1.5","bb1a5a3c-9c02-4ee3-a5d9-9196d9e44d3e","2509","
                  <p style=""text-align: center;"">₪36
                                                <br>75%</p>
                  <p id=""wtp"" style=""text-align:center; margin-top: 0px; margin-bottom: 0px; font-size: 40px"";>מוכנים לשלם: <span id=""c_p_y""></span></p>","25","evaluation","29","14","4B,5A,13B,16B","75","36","25","","","","","","","","","","","","","","","",""
"","","","","","html-keyboard-response","129","347459","0.0-21.0-2.5","bb1a5a3c-9c02-4ee3-a5d9-9196d9e44d3e","null","<p style=""text-align: center;"">+</p>","null","fixation","","","","","","","","","","","","","","","","","","","","","",""
"","","","","","html-slider-response","130","348476","0.0-21.0-0.6","bb1a5a3c-9c02-4ee3-a5d9-9196d9e44d3e","1000","
                  <p style=""text-align: center;"">₪43
                                                <br>60%</p>
                  <p id=""wtp"" style=""text-align:center; margin-top: 0px; margin-bottom: 0px; font-size: 40px"";>&ensp;</p>","-","viewing","0","17","2A,7A,9A,15B","","","","","","","","","","","","","","","","","","",""
"","","","","","html-slider-response","131","351752","0.0-21.0-1.6","bb1a5a3c-9c02-4ee3-a5d9-9196d9e44d3e","3275","
                  <p style=""text-align: center;"">₪43
                                                <br>60%</p>
                  <p id=""wtp"" style=""text-align:center; margin-top: 0px; margin-bottom: 0px; font-size: 40px"";>מוכנים לשלם: <span id=""c_p_y""></span></p>","27","evaluation","46","17","2A,7A,9A,15B","60","43","27","","","","","","","","","","","","","","","",""
"","","","","","html-keyboard-response","132","352821","0.0-21.0-2.6","bb1a5a3c-9c02-4ee3-a5d9-9196d9e44d3e","null","<p style=""text-align: center;"">+</p>","null","fixation","","","","","","","","","","","","","","","","","","","","","",""
"","","","","","html-slider-response","133","353823","0.0-21.0-0.7","bb1a5a3c-9c02-4ee3-a5d9-9196d9e44d3e","1000","
                  <p style=""text-align: center;"">₪4
                                                <br>75%</p>
                  <p id=""wtp"" style=""text-align:center; margin-top: 0px; margin-bottom: 0px; font-size: 40px"";>&ensp;</p>","-","viewing","0","3","12B,20B,23B,27C,29C","","","","","","","","","","","","","","","","","","",""
"","","","","","html-slider-response","134","354848","0.0-21.0-1.7","bb1a5a3c-9c02-4ee3-a5d9-9196d9e44d3e","1025","
                  <p style=""text-align: center;"">₪4
                                                <br>75%</p>
                  <p id=""wtp"" style=""text-align:center; margin-top: 0px; margin-bottom: 0px; font-size: 40px"";>מוכנים לשלם: <span id=""c_p_y""></span></p>","0","evaluation","36","3","12B,20B,23B,27C,29C","75","4","0","","","","","","","","","","","","","","","",""
"","","","","","html-keyboard-response","135","355490","0.0-21.0-2.7","bb1a5a3c-9c02-4ee3-a5d9-9196d9e44d3e","null","<p style=""text-align: center;"">+</p>","null","fixation","","","","","","","","","","","","","","","","","","","","","",""
"","","","","","html-slider-response","136","356499","0.0-21.0-0.8","bb1a5a3c-9c02-4ee3-a5d9-9196d9e44d3e","1000","
                  <p style=""text-align: center;"">₪79
                                                <br>40%</p>
                  <p id=""wtp"" style=""text-align:center; margin-top: 0px; margin-bottom: 0px; font-size: 40px"";>&ensp;</p>","-","viewing","0","30","9B","","","","","","","","","","","","","","","","","","",""
"","","","","","html-slider-response","137","360504","0.0-21.0-1.8","bb1a5a3c-9c02-4ee3-a5d9-9196d9e44d3e","null","
                  <p style=""text-align: center;"">₪79
                                                <br>40%</p>
                  <p id=""wtp"" style=""text-align:center; margin-top: 0px; margin-bottom: 0px; font-size: 40px"";>מוכנים לשלם: <span id=""c_p_y""></span></p>","null","evaluation","37","30","9B","40","79","23","","","","","","","","","","","","","","","",""
"","","","","","html-keyboard-response","138","361717","0.0-21.0-2.8","bb1a5a3c-9c02-4ee3-a5d9-9196d9e44d3e","null","<p style=""text-align: center;"">+</p>","null","fixation","","","","","","","","","","","","","","","","","","","","","",""
"","","","","","html-slider-response","139","362725","0.0-21.0-0.9","bb1a5a3c-9c02-4ee3-a5d9-9196d9e44d3e","1000","
                  <p style=""text-align: center;"">₪61
                                                <br>45%</p>
                  <p id=""wtp"" style=""text-align:center; margin-top: 0px; margin-bottom: 0px; font-size: 40px"";>&ensp;</p>","-","viewing","0","22","10A,11A","","","","","","","","","","","","","","","","","","",""
"","","","","","html-slider-response","140","364857","0.0-21.0-1.9","bb1a5a3c-9c02-4ee3-a5d9-9196d9e44d3e","2130","
                  <p style=""text-align: center;"">₪61
                                                <br>45%</p>
                  <p id=""wtp"" style=""text-align:center; margin-top: 0px; margin-bottom: 0px; font-size: 40px"";>מוכנים לשלם: <span id=""c_p_y""></span></p>","16","evaluation","71","22","10A,11A","45","61","16","","","","","","","","","","","","","","","",""
"","","","","","html-keyboard-response","141","366237","0.0-21.0-2.9","bb1a5a3c-9c02-4ee3-a5d9-9196d9e44d3e","null","<p style=""text-align: center;"">+</p>","null","fixation","","","","","","","","","","","","","","","","","","","","","",""
"","","","","","html-slider-response","142","367253","0.0-21.0-0.10","bb1a5a3c-9c02-4ee3-a5d9-9196d9e44d3e","1000","
                  <p style=""text-align: center;"">₪79
                                                <br>65%</p>
                  <p id=""wtp"" style=""text-align:center; margin-top: 0px; margin-bottom: 0px; font-size: 40px"";>&ensp;</p>","-","viewing","0","31","8A","","","","","","","","","","","","","","","","","","",""
"","","","","","html-slider-response","143","368960","0.0-21.0-1.10","bb1a5a3c-9c02-4ee3-a5d9-9196d9e44d3e","1707","
                  <p style=""text-align: center;"">₪79
                                                <br>65%</p>
                  <p id=""wtp"" style=""text-align:center; margin-top: 0px; margin-bottom: 0px; font-size: 40px"";>מוכנים לשלם: <span id=""c_p_y""></span></p>","25","evaluation","70","31","8A","65","79","25","","","","","","","","","","","","","","","",""
"","","","","","html-keyboard-response","144","370241","0.0-21.0-2.10","bb1a5a3c-9c02-4ee3-a5d9-9196d9e44d3e","null","<p style=""text-align: center;"">+</p>","null","fixation","","","","","","","","","","","","","","","","","","","","","",""
"","","","","","html-slider-response","145","371257","0.0-21.0-0.11","bb1a5a3c-9c02-4ee3-a5d9-9196d9e44d3e","1000","
                  <p style=""text-align: center;"">₪18
                                                <br>25%</p>
                  <p id=""wtp"" style=""text-align:center; margin-top: 0px; margin-bottom: 0px; font-size: 40px"";>&ensp;</p>","-","viewing","0","9","14A,23A","","","","","","","","","","","","","","","","","","",""
"","","","","","html-slider-response","146","373392","0.0-21.0-1.11","bb1a5a3c-9c02-4ee3-a5d9-9196d9e44d3e","2134","
                  <p style=""text-align: center;"">₪18
                                                <br>25%</p>
                  <p id=""wtp"" style=""text-align:center; margin-top: 0px; margin-bottom: 0px; font-size: 40px"";>מוכנים לשלם: <span id=""c_p_y""></span></p>","0","evaluation","58","9","14A,23A","25","18","0","","","","","","","","","","","","","","","",""
"","","","","","html-keyboard-response","147","374437","0.0-21.0-2.11","bb1a5a3c-9c02-4ee3-a5d9-9196d9e44d3e","null","<p style=""text-align: center;"">+</p>","null","fixation","","","","","","","","","","","","","","","","","","","","","",""
"","","","","","html-slider-response","148","375453","0.0-21.0-0.12","bb1a5a3c-9c02-4ee3-a5d9-9196d9e44d3e","1000","
                  <p style=""text-align: center;"">₪16
                                                <br>20%</p>
                  <p id=""wtp"" style=""text-align:center; margin-top: 0px; margin-bottom: 0px; font-size: 40px"";>&ensp;</p>","-","viewing","0","8","14C,17A,20C,27A","","","","","","","","","","","","","","","","","","",""
"","","","","","html-slider-response","149","377216","0.0-21.0-1.12","bb1a5a3c-9c02-4ee3-a5d9-9196d9e44d3e","1762","
                  <p style=""text-align: center;"">₪16
                                                <br>20%</p>
                  <p id=""wtp"" style=""text-align:center; margin-top: 0px; margin-bottom: 0px; font-size: 40px"";>מוכנים לשלם: <span id=""c_p_y""></span></p>","0","evaluation","67","8","14C,17A,20C,27A","20","16","0","","","","","","","","","","","","","","","",""
"","","","","","html-keyboard-response","150","377917","0.0-21.0-2.12","bb1a5a3c-9c02-4ee3-a5d9-9196d9e44d3e","null","<p style=""text-align: center;"">+</p>","null","fixation","","","","","","","","","","","","","","","","","","","","","",""
"","","","","","html-slider-response","151","378933","0.0-21.0-0.13","bb1a5a3c-9c02-4ee3-a5d9-9196d9e44d3e","1000","
                  <p style=""text-align: center;"">₪76
                                                <br>65%</p>
                  <p id=""wtp"" style=""text-align:center; margin-top: 0px; margin-bottom: 0px; font-size: 40px"";>&ensp;</p>","-","viewing","0","29","8C,19A,24B","","","","","","","","","","","","","","","","","","",""
"","","","","","html-slider-response","152","380760","0.0-21.0-1.13","bb1a5a3c-9c02-4ee3-a5d9-9196d9e44d3e","1827","
                  <p style=""text-align: center;"">₪76
                                                <br>65%</p>
                  <p id=""wtp"" style=""text-align:center; margin-top: 0px; margin-bottom: 0px; font-size: 40px"";>מוכנים לשלם: <span id=""c_p_y""></span></p>","23","evaluation","79","29","8C,19A,24B","65","76","23","","","","","","","","","","","","","","","",""
"","","","","","html-keyboard-response","153","381395","0.0-21.0-2.13","bb1a5a3c-9c02-4ee3-a5d9-9196d9e44d3e","null","<p style=""text-align: center;"">+</p>","null","fixation","","","","","","","","","","","","","","","","","","","","","",""
"","","","","","html-slider-response","154","382397","0.0-21.0-0.14","bb1a5a3c-9c02-4ee3-a5d9-9196d9e44d3e","1000","
                  <p style=""text-align: center;"">₪64
                                                <br>50%</p>
                  <p id=""wtp"" style=""text-align:center; margin-top: 0px; margin-bottom: 0px; font-size: 40px"";>&ensp;</p>","-","viewing","0","25","1B,3B,4A","","","","","","","","","","","","","","","","","","",""
"","","","","","html-slider-response","155","386096","0.0-21.0-1.14","bb1a5a3c-9c02-4ee3-a5d9-9196d9e44d3e","3698","
                  <p style=""text-align: center;"">₪64
                                                <br>50%</p>
                  <p id=""wtp"" style=""text-align:center; margin-top: 0px; margin-bottom: 0px; font-size: 40px"";>מוכנים לשלם: <span id=""c_p_y""></span></p>","28","evaluation","0","25","1B,3B,4A","50","64","28","","","","","","","","","","","","","","","",""
"","","","","","html-keyboard-response","156","387201","0.0-21.0-2.14","bb1a5a3c-9c02-4ee3-a5d9-9196d9e44d3e","null","<p style=""text-align: center;"">+</p>","null","fixation","","","","","","","","","","","","","","","","","","","","","",""
"","","","","","html-slider-response","157","388210","0.0-21.0-0.15","bb1a5a3c-9c02-4ee3-a5d9-9196d9e44d3e","1000","
                  <p style=""text-align: center;"">₪11
                                                <br>20%</p>
                  <p id=""wtp"" style=""text-align:center; margin-top: 0px; margin-bottom: 0px; font-size: 40px"";>&ensp;</p>","-","viewing","0","4","12C,17C,23C,28C","","","","","","","","","","","","","","","","","","",""
"","","","","","html-slider-response","158","390224","0.0-21.0-1.15","bb1a5a3c-9c02-4ee3-a5d9-9196d9e44d3e","2013","
                  <p style=""text-align: center;"">₪11
                                                <br>20%</p>
                  <p id=""wtp"" style=""text-align:center; margin-top: 0px; margin-bottom: 0px; font-size: 40px"";>מוכנים לשלם: <span id=""c_p_y""></span></p>","0","evaluation","17","4","12C,17C,23C,28C","20","11","0","","","","","","","","","","","","","","","",""
"","","","","","html-keyboard-response","159","391450","0.0-21.0-2.15","bb1a5a3c-9c02-4ee3-a5d9-9196d9e44d3e","null","<p style=""text-align: center;"">+</p>","null","fixation","","","","","","","","","","","","","","","","","","","","","",""
"","","","","","html-slider-response","160","392463","0.0-21.0-0.16","bb1a5a3c-9c02-4ee3-a5d9-9196d9e44d3e","1000","
                  <p style=""text-align: center;"">₪11
                                                <br>45%</p>
                  <p id=""wtp"" style=""text-align:center; margin-top: 0px; margin-bottom: 0px; font-size: 40px"";>&ensp;</p>","-","viewing","0","6","14B,21C,25C","","","","","","","","","","","","","","","","","","",""
"","","","","","html-slider-response","161","393448","0.0-21.0-1.16","bb1a5a3c-9c02-4ee3-a5d9-9196d9e44d3e","984","
                  <p style=""text-align: center;"">₪11
                                                <br>45%</p>
                  <p id=""wtp"" style=""text-align:center; margin-top: 0px; margin-bottom: 0px; font-size: 40px"";>מוכנים לשלם: <span id=""c_p_y""></span></p>","0","evaluation","70","6","14B,21C,25C","45","11","0","","","","","","","","","","","","","","","",""
"","","","","","html-keyboard-response","162","394568","0.0-21.0-2.16","bb1a5a3c-9c02-4ee3-a5d9-9196d9e44d3e","null","<p style=""text-align: center;"">+</p>","null","fixation","","","","","","","","","","","","","","","","","","","","","",""
"","","","","","html-slider-response","163","395584","0.0-21.0-0.17","bb1a5a3c-9c02-4ee3-a5d9-9196d9e44d3e","1000","
                  <p style=""text-align: center;"">₪18
                                                <br>50%</p>
                  <p id=""wtp"" style=""text-align:center; margin-top: 0px; margin-bottom: 0px; font-size: 40px"";>&ensp;</p>","-","viewing","0","10","2C,16C,22B,28A","","","","","","","","","","","","","","","","","","",""
"","","","","","html-slider-response","164","397352","0.0-21.0-1.17","bb1a5a3c-9c02-4ee3-a5d9-9196d9e44d3e","1767","
                  <p style=""text-align: center;"">₪18
                                                <br>50%</p>
                  <p id=""wtp"" style=""text-align:center; margin-top: 0px; margin-bottom: 0px; font-size: 40px"";>מוכנים לשלם: <span id=""c_p_y""></span></p>","12","evaluation","58","10","2C,16C,22B,28A","50","18","12","","","","","","","","","","","","","","","",""
"","","","","","html-keyboard-response","165","398372","0.0-21.0-2.17","bb1a5a3c-9c02-4ee3-a5d9-9196d9e44d3e","null","<p style=""text-align: center;"">+</p>","null","fixation","","","","","","","","","","","","","","","","","","","","","",""
"","","","","","html-slider-response","166","399383","0.0-21.0-0.18","bb1a5a3c-9c02-4ee3-a5d9-9196d9e44d3e","1000","
                  <p style=""text-align: center;"">₪71
                                                <br>45%</p>
                  <p id=""wtp"" style=""text-align:center; margin-top: 0px; margin-bottom: 0px; font-size: 40px"";>&ensp;</p>","-","viewing","0","26","2B,16A","","","","","","","","","","","","","","","","","","",""
"","","","","","html-slider-response","167","402224","0.0-21.0-1.18","bb1a5a3c-9c02-4ee3-a5d9-9196d9e44d3e","2839","
                  <p style=""text-align: center;"">₪71
                                                <br>45%</p>
                  <p id=""wtp"" style=""text-align:center; margin-top: 0px; margin-bottom: 0px; font-size: 40px"";>מוכנים לשלם: <span id=""c_p_y""></span></p>","23","evaluation","5","26","2B,16A","45","71","23","","","","","","","","","","","","","","","",""
"","","","","","html-keyboard-response","168","403681","0.0-21.0-2.18","bb1a5a3c-9c02-4ee3-a5d9-9196d9e44d3e","null","<p style=""text-align: center;"">+</p>","null","fixation","","","","","","","","","","","","","","","","","","","","","",""
"","","","","","html-slider-response","169","404685","0.0-21.0-0.19","bb1a5a3c-9c02-4ee3-a5d9-9196d9e44d3e","1000","
                  <p style=""text-align: center;"">₪11
                                                <br>25%</p>
                  <p id=""wtp"" style=""text-align:center; margin-top: 0px; margin-bottom: 0px; font-size: 40px"";>&ensp;</p>","-","viewing","0","5","12A,27B,28B,30B","","","","","","","","","","","","","","","","","","",""
"","","","","","html-slider-response","170","407048","0.0-21.0-1.19","bb1a5a3c-9c02-4ee3-a5d9-9196d9e44d3e","2363","
                  <p style=""text-align: center;"">₪11
                                                <br>25%</p>
                  <p id=""wtp"" style=""text-align:center; margin-top: 0px; margin-bottom: 0px; font-size: 40px"";>מוכנים לשלם: <span id=""c_p_y""></span></p>","0","evaluation","41","5","12A,27B,28B,30B","25","11","0","","","","","","","","","","","","","","","",""
"","","","","","html-keyboard-response","171","408190","0.0-21.0-2.19","bb1a5a3c-9c02-4ee3-a5d9-9196d9e44d3e","null","<p style=""text-align: center;"">+</p>","null","fixation","","","","","","","","","","","","","","","","","","","","","",""
"","","","","","html-slider-response","172","409193","0.0-21.0-0.20","bb1a5a3c-9c02-4ee3-a5d9-9196d9e44d3e","1000","
                  <p style=""text-align: center;"">₪58
                                                <br>40%</p>
                  <p id=""wtp"" style=""text-align:center; margin-top: 0px; margin-bottom: 0px; font-size: 40px"";>&ensp;</p>","-","viewing","0","20","10C,13A,19C,21B","","","","","","","","","","","","","","","","","","",""
"","","","","","html-slider-response","173","411353","0.0-21.0-1.20","bb1a5a3c-9c02-4ee3-a5d9-9196d9e44d3e","2158","
                  <p style=""text-align: center;"">₪58
                                                <br>40%</p>
                  <p id=""wtp"" style=""text-align:center; margin-top: 0px; margin-bottom: 0px; font-size: 40px"";>מוכנים לשלם: <span id=""c_p_y""></span></p>","10","evaluation","61","20","10C,13A,19C,21B","40","58","10","","","","","","","","","","","","","","","",""
"","","","","","html-keyboard-response","174","412846","0.0-21.0-2.20","bb1a5a3c-9c02-4ee3-a5d9-9196d9e44d3e","null","<p style=""text-align: center;"">+</p>","null","fixation","","","","","","","","","","","","","","","","","","","","","",""
"","","","","","html-slider-response","175","413859","0.0-21.0-0.21","bb1a5a3c-9c02-4ee3-a5d9-9196d9e44d3e","1000","
                  <p style=""text-align: center;"">₪43
                                                <br>75%</p>
                  <p id=""wtp"" style=""text-align:center; margin-top: 0px; margin-bottom: 0px; font-size: 40px"";>&ensp;</p>","-","viewing","0","18","11B,19B,24A,26A","","","","","","","","","","","","","","","","","","",""
"","","","","","html-slider-response","176","416936","0.0-21.0-1.21","bb1a5a3c-9c02-4ee3-a5d9-9196d9e44d3e","3076","
                  <p style=""text-align: center;"">₪43
                                                <br>75%</p>
                  <p id=""wtp"" style=""text-align:center; margin-top: 0px; margin-bottom: 0px; font-size: 40px"";>מוכנים לשלם: <span id=""c_p_y""></span></p>","30","evaluation","72","18","11B,19B,24A,26A","75","43","30","","","","","","","","","","","","","","","",""
"","","","","","html-keyboard-response","177","417847","0.0-21.0-2.21","bb1a5a3c-9c02-4ee3-a5d9-9196d9e44d3e","null","<p style=""text-align: center;"">+</p>","null","fixation","","","","","","","","","","","","","","","","","","","","","",""
"","","","","","html-slider-response","178","418852","0.0-21.0-0.22","bb1a5a3c-9c02-4ee3-a5d9-9196d9e44d3e","1000","
                  <p style=""text-align: center;"">₪36
                                                <br>30%</p>
                  <p id=""wtp"" style=""text-align:center; margin-top: 0px; margin-bottom: 0px; font-size: 40px"";>&ensp;</p>","-","viewing","0","11","3C,20A,22A","","","","","","","","","","","","","","","","","","",""
"","","","","","html-slider-response","179","421185","0.0-21.0-1.22","bb1a5a3c-9c02-4ee3-a5d9-9196d9e44d3e","2331","
                  <p style=""text-align: center;"">₪36
                                                <br>30%</p>
                  <p id=""wtp"" style=""text-align:center; margin-top: 0px; margin-bottom: 0px; font-size: 40px"";>מוכנים לשלם: <span id=""c_p_y""></span></p>","12","evaluation","53","11","3C,20A,22A","30","36","12","","","","","","","","","","","","","","","",""
"","","","","","html-keyboard-response","180","421692","0.0-21.0-2.22","bb1a5a3c-9c02-4ee3-a5d9-9196d9e44d3e","null","<p style=""text-align: center;"">+</p>","null","fixation","","","","","","","","","","","","","","","","","","","","","",""
"","","","","","html-slider-response","181","422696","0.0-21.0-0.23","bb1a5a3c-9c02-4ee3-a5d9-9196d9e44d3e","1000","
                  <p style=""text-align: center;"">₪58
                                                <br>30%</p>
                  <p id=""wtp"" style=""text-align:center; margin-top: 0px; margin-bottom: 0px; font-size: 40px"";>&ensp;</p>","-","viewing","0","19","13C,30A","","","","","","","","","","","","","","","","","","",""
"","","","","","html-slider-response","182","424769","0.0-21.0-1.23","bb1a5a3c-9c02-4ee3-a5d9-9196d9e44d3e","2071","
                  <p style=""text-align: center;"">₪58
                                                <br>30%</p>
                  <p id=""wtp"" style=""text-align:center; margin-top: 0px; margin-bottom: 0px; font-size: 40px"";>מוכנים לשלם: <span id=""c_p_y""></span></p>","18","evaluation","25","19","13C,30A","30","58","18","","","","","","","","","","","","","","","",""
"","","","","","html-keyboard-response","183","426162","0.0-21.0-2.23","bb1a5a3c-9c02-4ee3-a5d9-9196d9e44d3e","null","<p style=""text-align: center;"">+</p>","null","fixation","","","","","","","","","","","","","","","","","","","","","",""
"","","","","","html-slider-response","184","427175","0.0-21.0-0.24","bb1a5a3c-9c02-4ee3-a5d9-9196d9e44d3e","1000","
                  <p style=""text-align: center;"">₪64
                                                <br>25%</p>
                  <p id=""wtp"" style=""text-align:center; margin-top: 0px; margin-bottom: 0px; font-size: 40px"";>&ensp;</p>","-","viewing","0","24","6A,21A","","","","","","","","","","","","","","","","","","",""
"","","","","","html-slider-response","185","429008","0.0-21.0-1.24","bb1a5a3c-9c02-4ee3-a5d9-9196d9e44d3e","1832","
                  <p style=""text-align: center;"">₪64
                                                <br>25%</p>
                  <p id=""wtp"" style=""text-align:center; margin-top: 0px; margin-bottom: 0px; font-size: 40px"";>מוכנים לשלם: <span id=""c_p_y""></span></p>","9","evaluation","8","24","6A,21A","25","64","10","","","","","","","","","","","","","","","",""
"","","","","","html-keyboard-response","186","429744","0.0-21.0-2.24","bb1a5a3c-9c02-4ee3-a5d9-9196d9e44d3e","null","<p style=""text-align: center;"">+</p>","null","fixation","","","","","","","","","","","","","","","","","","","","","",""
"","","","","","html-slider-response","187","430749","0.0-21.0-0.25","bb1a5a3c-9c02-4ee3-a5d9-9196d9e44d3e","1000","
                  <p style=""text-align: center;"">₪11
                                                <br>75%</p>
                  <p id=""wtp"" style=""text-align:center; margin-top: 0px; margin-bottom: 0px; font-size: 40px"";>&ensp;</p>","-","viewing","0","7","6B,18B,22C,24C,29A","","","","","","","","","","","","","","","","","","",""
"","","","","","html-slider-response","188","432904","0.0-21.0-1.25","bb1a5a3c-9c02-4ee3-a5d9-9196d9e44d3e","2154","
                  <p style=""text-align: center;"">₪11
                                                <br>75%</p>
                  <p id=""wtp"" style=""text-align:center; margin-top: 0px; margin-bottom: 0px; font-size: 40px"";>מוכנים לשלם: <span id=""c_p_y""></span></p>","0","evaluation","72","7","6B,18B,22C,24C,29A","75","11","0","","","","","","","","","","","","","","","",""
"","","","","","html-keyboard-response","189","433619","0.0-21.0-2.25","bb1a5a3c-9c02-4ee3-a5d9-9196d9e44d3e","null","<p style=""text-align: center;"">+</p>","null","fixation","","","","","","","","","","","","","","","","","","","","","",""
"","","","","","html-slider-response","190","434633","0.0-21.0-0.26","bb1a5a3c-9c02-4ee3-a5d9-9196d9e44d3e","1000","
                  <p style=""text-align: center;"">₪39
                                                <br>65%</p>
                  <p id=""wtp"" style=""text-align:center; margin-top: 0px; margin-bottom: 0px; font-size: 40px"";>&ensp;</p>","-","viewing","0","16","1A,15A,26C","","","","","","","","","","","","","","","","","","",""
"","","","","","html-slider-response","191","436448","0.0-21.0-1.26","bb1a5a3c-9c02-4ee3-a5d9-9196d9e44d3e","1814","
                  <p style=""text-align: center;"">₪39
                                                <br>65%</p>
                  <p id=""wtp"" style=""text-align:center; margin-top: 0px; margin-bottom: 0px; font-size: 40px"";>מוכנים לשלם: <span id=""c_p_y""></span></p>","26","evaluation","36","16","1A,15A,26C","65","39","26","","","","","","","","","","","","","","","",""
"","","","","","html-keyboard-response","192","437162","0.0-21.0-2.26","bb1a5a3c-9c02-4ee3-a5d9-9196d9e44d3e","null","<p style=""text-align: center;"">+</p>","null","fixation","","","","","","","","","","","","","","","","","","","","","",""
"","","","","","html-slider-response","193","438166","0.0-21.0-0.27","bb1a5a3c-9c02-4ee3-a5d9-9196d9e44d3e","1000","
                  <p style=""text-align: center;"">₪61
                                                <br>55%</p>
                  <p id=""wtp"" style=""text-align:center; margin-top: 0px; margin-bottom: 0px; font-size: 40px"";>&ensp;</p>","-","viewing","0","23","7B,26B","","","","","","","","","","","","","","","","","","",""
"","","","","","html-slider-response","194","441352","0.0-21.0-1.27","bb1a5a3c-9c02-4ee3-a5d9-9196d9e44d3e","3185","
                  <p style=""text-align: center;"">₪61
                                                <br>55%</p>
                  <p id=""wtp"" style=""text-align:center; margin-top: 0px; margin-bottom: 0px; font-size: 40px"";>מוכנים לשלם: <span id=""c_p_y""></span></p>","33","evaluation","20","23","7B,26B","55","61","33","","","","","","","","","","","","","","","",""
"","","","","","html-keyboard-response","195","441918","0.0-21.0-2.27","bb1a5a3c-9c02-4ee3-a5d9-9196d9e44d3e","null","<p style=""text-align: center;"">+</p>","null","fixation","","","","","","","","","","","","","","","","","","","","","",""
"","","","","","html-slider-response","196","442921","0.0-21.0-0.28","bb1a5a3c-9c02-4ee3-a5d9-9196d9e44d3e","1000","
                  <p style=""text-align: center;"">₪58
                                                <br>45%</p>
                  <p id=""wtp"" style=""text-align:center; margin-top: 0px; margin-bottom: 0px; font-size: 40px"";>&ensp;</p>","-","viewing","0","21","11C,18C,25A","","","","","","","","","","","","","","","","","","",""
"","","","","","html-slider-response","197","445328","0.0-21.0-1.28","bb1a5a3c-9c02-4ee3-a5d9-9196d9e44d3e","2406","
                  <p style=""text-align: center;"">₪58
                                                <br>45%</p>
                  <p id=""wtp"" style=""text-align:center; margin-top: 0px; margin-bottom: 0px; font-size: 40px"";>מוכנים לשלם: <span id=""c_p_y""></span></p>","26","evaluation","7","21","11C,18C,25A","45","58","26","","","","","","","","","","","","","","","",""
"","","","","","html-keyboard-response","198","446155","0.0-21.0-2.28","bb1a5a3c-9c02-4ee3-a5d9-9196d9e44d3e","null","<p style=""text-align: center;"">+</p>","null","fixation","","","","","","","","","","","","","","","","","","","","","",""
"","","","","","html-slider-response","199","447164","0.0-21.0-0.29","bb1a5a3c-9c02-4ee3-a5d9-9196d9e44d3e","1000","
                  <p style=""text-align: center;"">₪71
                                                <br>75%</p>
                  <p id=""wtp"" style=""text-align:center; margin-top: 0px; margin-bottom: 0px; font-size: 40px"";>&ensp;</p>","-","viewing","0","28","8B","","","","","","","","","","","","","","","","","","",""
"","","","","","html-slider-response","200","449624","0.0-21.0-1.29","bb1a5a3c-9c02-4ee3-a5d9-9196d9e44d3e","2459","
                  <p style=""text-align: center;"">₪71
                                                <br>75%</p>
                  <p id=""wtp"" style=""text-align:center; margin-top: 0px; margin-bottom: 0px; font-size: 40px"";>מוכנים לשלם: <span id=""c_p_y""></span></p>","39","evaluation","5","28","8B","75","71","39","","","","","","","","","","","","","","","",""
"","","","","","html-keyboard-response","201","451110","0.0-21.0-2.29","bb1a5a3c-9c02-4ee3-a5d9-9196d9e44d3e","null","<p style=""text-align: center;"">+</p>","null","fixation","","","","","","","","","","","","","","","","","","","","","",""
"","","","","","html-slider-response","202","452121","0.0-21.0-0.30","bb1a5a3c-9c02-4ee3-a5d9-9196d9e44d3e","1000","
                  <p style=""text-align: center;"">₪36
                                                <br>70%</p>
                  <p id=""wtp"" style=""text-align:center; margin-top: 0px; margin-bottom: 0px; font-size: 40px"";>&ensp;</p>","-","viewing","0","13","3A,5C,10B","","","","","","","","","","","","","","","","","","",""
"","","","","","html-slider-response","203","455152","0.0-21.0-1.30","bb1a5a3c-9c02-4ee3-a5d9-9196d9e44d3e","3030","
                  <p style=""text-align: center;"">₪36
                                                <br>70%</p>
                  <p id=""wtp"" style=""text-align:center; margin-top: 0px; margin-bottom: 0px; font-size: 40px"";>מוכנים לשלם: <span id=""c_p_y""></span></p>","30","evaluation","64","13","3A,5C,10B","70","36","30","","","","","","","","","","","","","","","",""
"","","","","","html-keyboard-response","204","456579","0.0-21.0-2.30","bb1a5a3c-9c02-4ee3-a5d9-9196d9e44d3e","null","<p style=""text-align: center;"">+</p>","null","fixation","","","","","","","","","","","","","","","","","","","","","",""
"","","","","","html-keyboard-response","205","457592","0.0-22.0","bb1a5a3c-9c02-4ee3-a5d9-9196d9e44d3e","null","<p style=""text-align: center;"">+</p>","null","fixation","","","","","","","","","","","","","","","","","","","","","",""
"","","","","","html-keyboard-response","206","466736","0.0-23.0","bb1a5a3c-9c02-4ee3-a5d9-9196d9e44d3e","null","<p>הפסקה.
          <br>לחצו כדי להמשיך.</p>","1","scan_wait","","","","","","","","","","","","","","","","","","","","","",""
"","","","","","html-keyboard-response","207","467739","0.0-24.0","bb1a5a3c-9c02-4ee3-a5d9-9196d9e44d3e","null","<p style=""text-align: center;"">+</p>","null","fixation","","","","","","","","","","","","","","","","","","","","","",""
"","","","","","html-slider-response","208","468754","0.0-25.0-0.0","bb1a5a3c-9c02-4ee3-a5d9-9196d9e44d3e","1000","
                  <p style=""text-align: center;"">₪43
                                                <br>75%</p>
                  <p id=""wtp"" style=""text-align:center; margin-top: 0px; margin-bottom: 0px; font-size: 40px"";>&ensp;</p>","-","viewing","0","18","11B,19B,24A,26A","","","","","","","","","","","","","","","","","","",""
"","","","","","html-slider-response","209","470304","0.0-25.0-1.0","bb1a5a3c-9c02-4ee3-a5d9-9196d9e44d3e","1550","
                  <p style=""text-align: center;"">₪43
                                                <br>75%</p>
                  <p id=""wtp"" style=""text-align:center; margin-top: 0px; margin-bottom: 0px; font-size: 40px"";>מוכנים לשלם: <span id=""c_p_y""></span></p>","29","evaluation","75","18","11B,19B,24A,26A","75","43","29","","","","","","","","","","","","","","","",""
"","","","","","html-keyboard-response","210","471669","0.0-25.0-2.0","bb1a5a3c-9c02-4ee3-a5d9-9196d9e44d3e","null","<p style=""text-align: center;"">+</p>","null","fixation","","","","","","","","","","","","","","","","","","","","","",""
"","","","","","html-slider-response","211","472672","0.0-25.0-0.1","bb1a5a3c-9c02-4ee3-a5d9-9196d9e44d3e","1000","
                  <p style=""text-align: center;"">₪71
                                                <br>75%</p>
                  <p id=""wtp"" style=""text-align:center; margin-top: 0px; margin-bottom: 0px; font-size: 40px"";>&ensp;</p>","-","viewing","0","28","8B","","","","","","","","","","","","","","","","","","",""
"","","","","","html-slider-response","212","474072","0.0-25.0-1.1","bb1a5a3c-9c02-4ee3-a5d9-9196d9e44d3e","1399","
                  <p style=""text-align: center;"">₪71
                                                <br>75%</p>
                  <p id=""wtp"" style=""text-align:center; margin-top: 0px; margin-bottom: 0px; font-size: 40px"";>מוכנים לשלם: <span id=""c_p_y""></span></p>","30","evaluation","69","28","8B","75","71","30","","","","","","","","","","","","","","","",""
"","","","","","html-keyboard-response","213","475520","0.0-25.0-2.1","bb1a5a3c-9c02-4ee3-a5d9-9196d9e44d3e","null","<p style=""text-align: center;"">+</p>","null","fixation","","","","","","","","","","","","","","","","","","","","","",""
"","","","","","html-slider-response","214","476536","0.0-25.0-0.2","bb1a5a3c-9c02-4ee3-a5d9-9196d9e44d3e","1000","
                  <p style=""text-align: center;"">₪61
                                                <br>45%</p>
                  <p id=""wtp"" style=""text-align:center; margin-top: 0px; margin-bottom: 0px; font-size: 40px"";>&ensp;</p>","-","viewing","0","22","10A,11A","","","","","","","","","","","","","","","","","","",""
"","","","","","html-slider-response","215","478776","0.0-25.0-1.2","bb1a5a3c-9c02-4ee3-a5d9-9196d9e44d3e","2239","
                  <p style=""text-align: center;"">₪61
                                                <br>45%</p>
                  <p id=""wtp"" style=""text-align:center; margin-top: 0px; margin-bottom: 0px; font-size: 40px"";>מוכנים לשלם: <span id=""c_p_y""></span></p>","25","evaluation","40","22","10A,11A","45","61","25","","","","","","","","","","","","","","","",""
"","","","","","html-keyboard-response","216","480246","0.0-25.0-2.2","bb1a5a3c-9c02-4ee3-a5d9-9196d9e44d3e","null","<p style=""text-align: center;"">+</p>","null","fixation","","","","","","","","","","","","","","","","","","","","","",""
"","","","","","html-slider-response","217","481262","0.0-25.0-0.3","bb1a5a3c-9c02-4ee3-a5d9-9196d9e44d3e","1000","
                  <p style=""text-align: center;"">₪61
                                                <br>55%</p>
                  <p id=""wtp"" style=""text-align:center; margin-top: 0px; margin-bottom: 0px; font-size: 40px"";>&ensp;</p>","-","viewing","0","23","7B,26B","","","","","","","","","","","","","","","","","","",""
"","","","","","html-slider-response","218","482640","0.0-25.0-1.3","bb1a5a3c-9c02-4ee3-a5d9-9196d9e44d3e","1377","
                  <p style=""text-align: center;"">₪61
                                                <br>55%</p>
                  <p id=""wtp"" style=""text-align:center; margin-top: 0px; margin-bottom: 0px; font-size: 40px"";>מוכנים לשלם: <span id=""c_p_y""></span></p>","31","evaluation","34","23","7B,26B","55","61","31","","","","","","","","","","","","","","","",""
"","","","","","html-keyboard-response","219","483947","0.0-25.0-2.3","bb1a5a3c-9c02-4ee3-a5d9-9196d9e44d3e","null","<p style=""text-align: center;"">+</p>","null","fixation","","","","","","","","","","","","","","","","","","","","","",""
"","","","","","html-slider-response","220","484952","0.0-25.0-0.4","bb1a5a3c-9c02-4ee3-a5d9-9196d9e44d3e","1000","
                  <p style=""text-align: center;"">₪39
                                                <br>60%</p>
                  <p id=""wtp"" style=""text-align:center; margin-top: 0px; margin-bottom: 0px; font-size: 40px"";>&ensp;</p>","-","viewing","0","15","9C,25B","","","","","","","","","","","","","","","","","","",""
"","","","","","html-slider-response","221","486673","0.0-25.0-1.4","bb1a5a3c-9c02-4ee3-a5d9-9196d9e44d3e","1719","
                  <p style=""text-align: center;"">₪39
                                                <br>60%</p>
                  <p id=""wtp"" style=""text-align:center; margin-top: 0px; margin-bottom: 0px; font-size: 40px"";>מוכנים לשלם: <span id=""c_p_y""></span></p>","39","evaluation","28","15","9C,25B","60","39","39","","","","","","","","","","","","","","","",""
"","","","","","html-keyboard-response","222","487478","0.0-25.0-2.4","bb1a5a3c-9c02-4ee3-a5d9-9196d9e44d3e","null","<p style=""text-align: center;"">+</p>","null","fixation","","","","","","","","","","","","","","","","","","","","","",""
"","","","","","html-slider-response","223","488490","0.0-25.0-0.5","bb1a5a3c-9c02-4ee3-a5d9-9196d9e44d3e","1000","
                  <p style=""text-align: center;"">₪11
                                                <br>20%</p>
                  <p id=""wtp"" style=""text-align:center; margin-top: 0px; margin-bottom: 0px; font-size: 40px"";>&ensp;</p>","-","viewing","0","4","12C,17C,23C,28C","","","","","","","","","","","","","","","","","","",""
"","","","","","html-slider-response","224","490848","0.0-25.0-1.5","bb1a5a3c-9c02-4ee3-a5d9-9196d9e44d3e","2357","
                  <p style=""text-align: center;"">₪11
                                                <br>20%</p>
                  <p id=""wtp"" style=""text-align:center; margin-top: 0px; margin-bottom: 0px; font-size: 40px"";>מוכנים לשלם: <span id=""c_p_y""></span></p>","0","evaluation","8","4","12C,17C,23C,28C","20","11","0","","","","","","","","","","","","","","","",""
"","","","","","html-keyboard-response","225","491354","0.0-25.0-2.5","bb1a5a3c-9c02-4ee3-a5d9-9196d9e44d3e","null","<p style=""text-align: center;"">+</p>","null","fixation","","","","","","","","","","","","","","","","","","","","","",""
"","","","","","html-slider-response","226","492355","0.0-25.0-0.6","bb1a5a3c-9c02-4ee3-a5d9-9196d9e44d3e","1000","
                  <p style=""text-align: center;"">₪16
                                                <br>20%</p>
                  <p id=""wtp"" style=""text-align:center; margin-top: 0px; margin-bottom: 0px; font-size: 40px"";>&ensp;</p>","-","viewing","0","8","14C,17A,20C,27A","","","","","","","","","","","","","","","","","","",""
"","","","","","html-slider-response","227","493296","0.0-25.0-1.6","bb1a5a3c-9c02-4ee3-a5d9-9196d9e44d3e","939","
                  <p style=""text-align: center;"">₪16
                                                <br>20%</p>
                  <p id=""wtp"" style=""text-align:center; margin-top: 0px; margin-bottom: 0px; font-size: 40px"";>מוכנים לשלם: <span id=""c_p_y""></span></p>","0","evaluation","58","8","14C,17A,20C,27A","20","16","0","","","","","","","","","","","","","","","",""
"","","","","","html-keyboard-response","228","493916","0.0-25.0-2.6","bb1a5a3c-9c02-4ee3-a5d9-9196d9e44d3e","null","<p style=""text-align: center;"">+</p>","null","fixation","","","","","","","","","","","","","","","","","","","","","",""
"","","","","","html-slider-response","229","494921","0.0-25.0-0.7","bb1a5a3c-9c02-4ee3-a5d9-9196d9e44d3e","1000","
                  <p style=""text-align: center;"">₪43
                                                <br>60%</p>
                  <p id=""wtp"" style=""text-align:center; margin-top: 0px; margin-bottom: 0px; font-size: 40px"";>&ensp;</p>","-","viewing","0","17","2A,7A,9A,15B","","","","","","","","","","","","","","","","","","",""
"","","","","","html-slider-response","230","496824","0.0-25.0-1.7","bb1a5a3c-9c02-4ee3-a5d9-9196d9e44d3e","1902","
                  <p style=""text-align: center;"">₪43
                                                <br>60%</p>
                  <p id=""wtp"" style=""text-align:center; margin-top: 0px; margin-bottom: 0px; font-size: 40px"";>מוכנים לשלם: <span id=""c_p_y""></span></p>","28","evaluation","52","17","2A,7A,9A,15B","60","43","28","","","","","","","","","","","","","","","",""
"","","","","","html-keyboard-response","231","497586","0.0-25.0-2.7","bb1a5a3c-9c02-4ee3-a5d9-9196d9e44d3e","null","<p style=""text-align: center;"">+</p>","null","fixation","","","","","","","","","","","","","","","","","","","","","",""
"","","","","","html-slider-response","232","498591","0.0-25.0-0.8","bb1a5a3c-9c02-4ee3-a5d9-9196d9e44d3e","1000","
                  <p style=""text-align: center;"">₪11
                                                <br>25%</p>
                  <p id=""wtp"" style=""text-align:center; margin-top: 0px; margin-bottom: 0px; font-size: 40px"";>&ensp;</p>","-","viewing","0","5","12A,27B,28B,30B","","","","","","","","","","","","","","","","","","",""
"","","","","","html-slider-response","233","500192","0.0-25.0-1.8","bb1a5a3c-9c02-4ee3-a5d9-9196d9e44d3e","1600","
                  <p style=""text-align: center;"">₪11
                                                <br>25%</p>
                  <p id=""wtp"" style=""text-align:center; margin-top: 0px; margin-bottom: 0px; font-size: 40px"";>מוכנים לשלם: <span id=""c_p_y""></span></p>","0","evaluation","9","5","12A,27B,28B,30B","25","11","0","","","","","","","","","","","","","","","",""
"","","","","","html-keyboard-response","234","500926","0.0-25.0-2.8","bb1a5a3c-9c02-4ee3-a5d9-9196d9e44d3e","null","<p style=""text-align: center;"">+</p>","null","fixation","","","","","","","","","","","","","","","","","","","","","",""
"","","","","","html-slider-response","235","501933","0.0-25.0-0.9","bb1a5a3c-9c02-4ee3-a5d9-9196d9e44d3e","1000","
                  <p style=""text-align: center;"">₪71
                                                <br>55%</p>
                  <p id=""wtp"" style=""text-align:center; margin-top: 0px; margin-bottom: 0px; font-size: 40px"";>&ensp;</p>","-","viewing","0","27","5B,18A","","","","","","","","","","","","","","","","","","",""
"","","","","","html-slider-response","236","503352","0.0-25.0-1.9","bb1a5a3c-9c02-4ee3-a5d9-9196d9e44d3e","1418","
                  <p style=""text-align: center;"">₪71
                                                <br>55%</p>
                  <p id=""wtp"" style=""text-align:center; margin-top: 0px; margin-bottom: 0px; font-size: 40px"";>מוכנים לשלם: <span id=""c_p_y""></span></p>","31","evaluation","38","27","5B,18A","55","71","31","","","","","","","","","","","","","","","",""
"","","","","","html-keyboard-response","237","504679","0.0-25.0-2.9","bb1a5a3c-9c02-4ee3-a5d9-9196d9e44d3e","null","<p style=""text-align: center;"">+</p>","null","fixation","","","","","","","","","","","","","","","","","","","","","",""
"","","","","","html-slider-response","238","505683","0.0-25.0-0.10","bb1a5a3c-9c02-4ee3-a5d9-9196d9e44d3e","1000","
                  <p style=""text-align: center;"">₪36
                                                <br>60%</p>
                  <p id=""wtp"" style=""text-align:center; margin-top: 0px; margin-bottom: 0px; font-size: 40px"";>&ensp;</p>","-","viewing","0","12","1C,7C,15C","","","","","","","","","","","","","","","","","","",""
"","","","","","html-slider-response","239","507360","0.0-25.0-1.10","bb1a5a3c-9c02-4ee3-a5d9-9196d9e44d3e","1676","
                  <p style=""text-align: center;"">₪36
                                                <br>60%</p>
                  <p id=""wtp"" style=""text-align:center; margin-top: 0px; margin-bottom: 0px; font-size: 40px"";>מוכנים לשלם: <span id=""c_p_y""></span></p>","24","evaluation","3","12","1C,7C,15C","60","36","24","","","","","","","","","","","","","","","",""
"","","","","","html-keyboard-response","240","508868","0.0-25.0-2.10","bb1a5a3c-9c02-4ee3-a5d9-9196d9e44d3e","null","<p style=""text-align: center;"">+</p>","null","fixation","","","","","","","","","","","","","","","","","","","","","",""
"","","","","","html-slider-response","241","509884","0.0-25.0-0.11","bb1a5a3c-9c02-4ee3-a5d9-9196d9e44d3e","1000","
                  <p style=""text-align: center;"">₪4
                                                <br>25%</p>
                  <p id=""wtp"" style=""text-align:center; margin-top: 0px; margin-bottom: 0px; font-size: 40px"";>&ensp;</p>","-","viewing","0","1","6C,29B,30C","","","","","","","","","","","","","","","","","","",""
"","","","","","html-slider-response","242","510880","0.0-25.0-1.11","bb1a5a3c-9c02-4ee3-a5d9-9196d9e44d3e","995","
                  <p style=""text-align: center;"">₪4
                                                <br>25%</p>
                  <p id=""wtp"" style=""text-align:center; margin-top: 0px; margin-bottom: 0px; font-size: 40px"";>מוכנים לשלם: <span id=""c_p_y""></span></p>","0","evaluation","59","1","6C,29B,30C","25","4","0","","","","","","","","","","","","","","","",""
"","","","","","html-keyboard-response","243","512122","0.0-25.0-2.11","bb1a5a3c-9c02-4ee3-a5d9-9196d9e44d3e","null","<p style=""text-align: center;"">+</p>","null","fixation","","","","","","","","","","","","","","","","","","","","","",""
"","","","","","html-slider-response","244","513125","0.0-25.0-0.12","bb1a5a3c-9c02-4ee3-a5d9-9196d9e44d3e","1000","
                  <p style=""text-align: center;"">₪58
                                                <br>40%</p>
                  <p id=""wtp"" style=""text-align:center; margin-top: 0px; margin-bottom: 0px; font-size: 40px"";>&ensp;</p>","-","viewing","0","20","10C,13A,19C,21B","","","","","","","","","","","","","","","","","","",""
"","","","","","html-slider-response","245","515904","0.0-25.0-1.12","bb1a5a3c-9c02-4ee3-a5d9-9196d9e44d3e","2778","
                  <p style=""text-align: center;"">₪58
                                                <br>40%</p>
                  <p id=""wtp"" style=""text-align:center; margin-top: 0px; margin-bottom: 0px; font-size: 40px"";>מוכנים לשלם: <span id=""c_p_y""></span></p>","20","evaluation","58","20","10C,13A,19C,21B","40","58","20","","","","","","","","","","","","","","","",""
"","","","","","html-keyboard-response","246","517100","0.0-25.0-2.12","bb1a5a3c-9c02-4ee3-a5d9-9196d9e44d3e","null","<p style=""text-align: center;"">+</p>","null","fixation","","","","","","","","","","","","","","","","","","","","","",""
"","","","","","html-slider-response","247","518117","0.0-25.0-0.13","bb1a5a3c-9c02-4ee3-a5d9-9196d9e44d3e","1000","
                  <p style=""text-align: center;"">₪76
                                                <br>65%</p>
                  <p id=""wtp"" style=""text-align:center; margin-top: 0px; margin-bottom: 0px; font-size: 40px"";>&ensp;</p>","-","viewing","0","29","8C,19A,24B","","","","","","","","","","","","","","","","","","",""
"","","","","","html-slider-response","248","521200","0.0-25.0-1.13","bb1a5a3c-9c02-4ee3-a5d9-9196d9e44d3e","3082","
                  <p style=""text-align: center;"">₪76
                                                <br>65%</p>
                  <p id=""wtp"" style=""text-align:center; margin-top: 0px; margin-bottom: 0px; font-size: 40px"";>מוכנים לשלם: <span id=""c_p_y""></span></p>","37","evaluation","25","29","8C,19A,24B","65","76","37","","","","","","","","","","","","","","","",""
"","","","","","html-keyboard-response","249","522101","0.0-25.0-2.13","bb1a5a3c-9c02-4ee3-a5d9-9196d9e44d3e","null","<p style=""text-align: center;"">+</p>","null","fixation","","","","","","","","","","","","","","","","","","","","","",""
"","","","","","html-slider-response","250","523109","0.0-25.0-0.14","bb1a5a3c-9c02-4ee3-a5d9-9196d9e44d3e","1000","
                  <p style=""text-align: center;"">₪58
                                                <br>30%</p>
                  <p id=""wtp"" style=""text-align:center; margin-top: 0px; margin-bottom: 0px; font-size: 40px"";>&ensp;</p>","-","viewing","0","19","13C,30A","","","","","","","","","","","","","","","","","","",""
