"success","timeout","failed_images","failed_audio","failed_video","trial_type","trial_index","time_elapsed","internal_node_id","subject_id","rt","stimulus","response","part","slider_start","ID","set_ID","prob","amount","last_location","actual_choice","actual_EV","binary_id","trinary_id","catch","A_key","D_key","choice_prob","choice_amount","potential_prize_prob","potential_prize_amount","won_prize","total_prize","accuracy"
"true","false","[]","[]","[]","preload","0","6","0.0-0.0","137f554f-99e4-4c27-b34c-a0d66681d6d0","","","","","","","","","","","","","","","","","","","","","","","",""
"","","","","","html-keyboard-response","1","21635","0.0-1.0","137f554f-99e4-4c27-b34c-a0d66681d6d0","null","
          <h1>שלום וברוכים הבאים!</h1>
          <p>לפניכם ניסוי בקבלת החלטות עם שני חלקים.
          <br><br>לחצו על העכבר כדי להמשיך.</p>","0","example","","","","","","","","","","","","","","","","","","","",""
"","","","","","html-keyboard-response","2","30363","0.0-2.0","137f554f-99e4-4c27-b34c-a0d66681d6d0","null","
        <h1>חלק 1</h1>
        <p>בקרוב יוצגו בפניכם הגרלות.
        <br>עליכם לבחור את המחיר המירבי שתהיו מוכנים לשלם כדי להשתתף בהגרלה שתוצג.
        <br>יש לכם תקציב של ₪80 לכל הגרלה. 
        <br>נסו להעריך כל הגרלה בנפרד ולחשוב כמה היא שווה עבורכם, ₪80 זמינים לכל הגרלה בנפרד.
        <br><br>לחצו על העכבר כדי להמשיך.</p>","1","instructions","","","","","","","","","","","","","","","","","","","",""
"","","","","","html-keyboard-response","3","43419","0.0-3.0","137f554f-99e4-4c27-b34c-a0d66681d6d0","null","
        <p>בסוף הניסוי, המחשב יבחר את אחת ההגרלות ויקבע מחיר לכרטיס עבורה. 
        <br>במידה והמחיר שבחרתם נמוך מהמחיר שנבחר על ידי המחשב, לא תשתתפו בהגרלה ותשארו עם מלוא התקציב.
        <br>במידה והמחיר שבחרתם גבוה מהמחיר שנבחר על ידי המחשב, תשלמו את המחיר שנקבע ותשתתפו בהגרלה.
        <br><br>לחצו על העכבר כדי להמשיך.</p>","1","instructions","","","","","","","","","","","","","","","","","","","",""
"","","","","","html-slider-response","4","66378","0.0-4.0","137f554f-99e4-4c27-b34c-a0d66681d6d0","22845","
        <p style=""font-size: 42px;"">נתחיל עם דוגמא: 
        <br>ההגרלה מטה מציעה 65% סיכוי לזכות ב-₪40 
        <br>&emsp;&emsp;&emsp;&emsp;&emsp;&emsp;&emsp;&emsp;&ensp;35% סיכוי לזכות ב-₪0.
        <br><br>מה המחיר המירבי שתהיו מוכנים לשלם על כרטיס להגרלה זו בין 0 ל-₪80?
        <br>הזיזו את העכבר על פני המלבן ולחצו כדי לבצע בחירה.</p>
        
        <p style=""text-align: center;"">₪40<br>65%</p>

        <p id=""wtp"" style=""text-align:center; margin-top: 0px; margin-bottom: 0px; font-size: 40px"";>מוכנים לשלם: <span id=""c_p_y""></span></p>","28","example","69","","","","","","","","","","","","","","","","","","",""
"","","","","","html-keyboard-response","5","76906","0.0-5.0","137f554f-99e4-4c27-b34c-a0d66681d6d0","null","<p>יפה מאוד!
                <br> בחרתם שתהיו מוכנים לשלם ₪28 כדי להשתתף בהגרלה:
                <br><p style=""text-align: center;"">₪40<br>65%</p>
                <p>נשמע נכון?
                <br>נניח שהגרלה זו נבחרה בסוף הניסוי.
                <br>כעת המחשב יקבע מחיר עבורה באקראי.
                <br>לחצו על העכבר להמשך.</p>","1","example","","","","","","","","","","","","","","","","","","","",""
"","","","","","html-keyboard-response","6","83938","0.0-6.0","137f554f-99e4-4c27-b34c-a0d66681d6d0","null","<p>המחשב קבע מחיר: ₪49
                <br>ואתם בחרתם לשלם לכל היותר: ₪28
                <br><br>מכיוון שהמחיר שבחרתם נמוך מהמחיר שנקבע, לא תתשתתפו בהגרלה.
                <br>במקרה כזה, בסוף הניסוי תקבלו את כל התקציב ההתחלתי של ₪80.
                <br><br>לחצו על העכבר להמשך.</p>","1","example","","","","","","","","","","","","","","","","","","","",""
"","","","","","html-slider-response","7","94090","0.0-7.0","137f554f-99e4-4c27-b34c-a0d66681d6d0","9897","<p style=""font-size: 42px;"">הנה עוד דוגמא:
                <br>ההגרלה מטה מציעה 35% סיכוי לזכות ב-₪18 
                <br>&emsp;&emsp;&emsp;&emsp;&emsp;&emsp;&emsp;&emsp;&ensp;65% סיכוי לזכות ב-₪0.</p>
        
                <p style=""text-align: center;"">₪18<br>35%</p>
                <p id=""wtp"" style=""text-align:center; margin-top: 0px; margin-bottom: 0px; font-size: 40px"";>מוכנים לשלם: <span id=""c_p_y""></span></p>","6","example","4","","","","","","","","","","","","","","","","","","",""
"","","","","","html-keyboard-response","8","95594","0.0-8.0","137f554f-99e4-4c27-b34c-a0d66681d6d0","null","<p>הייתם מוכנים לשלם  ₪6 כדי להשתתף בהגרלה:
                <p style=""text-align: center;"">₪18<br>35%</p>
                <p>כעת נניח שהמחשב בחר את ההגרלה הזו בסוף הניסוי, וקבע עבורה מחיר.
                <br><br>לחצו על העכבר כדי להמשיך.</p>","1","instructions","","","","","","","","","","","","","","","","","","","",""
"","","","","","html-keyboard-response","9","104546","0.0-9.0","137f554f-99e4-4c27-b34c-a0d66681d6d0","null","<p>המחשב קבע מחיר להגרלה: ₪5<br>ואתם בחרתם לשלם לכל היותר: ₪6
                <br><br>כעת המחיר שנקבע נמוך מזה שבחרתם, אז תשלמו את המחיר שקבע המחשב (₪5) ותשתתפו בהגרלה.
                <br>במקרה כזה, תסיימו את הניסוי עם תקציב של ₪75 ועם סיכוי לזכות ב-₪18 נוספים מההגרלה.
                <br>כלומר, תוכלו לקבל ₪75 אם לא תזכו בהגרלה, או ₪93 אם תזכו בהגרלה.
                <br><br>לחצו על העכבר להמשך.</p>","1","example","","","","","","","","","","","","","","","","","","","",""
"","","","","","html-keyboard-response","10","126763","0.0-10.0","137f554f-99e4-4c27-b34c-a0d66681d6d0","null","<p>במהלך הניסוי, קודם תראו את ההגרלה ורק לאחר מכן תוכלו לבחור.
                <p>כמו כן, יהיו לכם מספר שניות מוגבל להגיב.
                <p>בואו ננסה זאת עם ההגרלה הקודמת.
                <br>לחצו על העכבר כדי להמשיך.</p>","1","instructions","","","","","","","","","","","","","","","","","","","",""
"","","","","","html-slider-response","11","128028","0.0-11.0","137f554f-99e4-4c27-b34c-a0d66681d6d0","1000","
                    <p style=""text-align: center;"">₪18<br>35%</p>
                    <p id=""wtp"" style=""text-align:center; margin-top: 0px; margin-bottom: 0px; font-size: 40px"";>&ensp;</p>","54","instructions","0","","","","","","","","","","","","","","","","","","",""
"","","","","","html-slider-response","12","132299","0.0-12.0","137f554f-99e4-4c27-b34c-a0d66681d6d0","null","
                    <p style=""text-align: center;"">₪18<br>35%</p>
                    <p id=""wtp"" style=""text-align:center; margin-top: 0px; margin-bottom: 0px; font-size: 40px"";>מוכנים לשלם: <span id=""c_p_y""></span></p>","null","instructions","4","","","","","","","","","","","","","","","","","","",""
"","","","","","html-keyboard-response","13","135915","0.0-13.0","137f554f-99e4-4c27-b34c-a0d66681d6d0","null","<p>לא הגבתם בזמן המוקצב לתגובה. 
                <br>נסו להגיב מהר יותר בפעם הבאה.
                <br><br>לחצו על העכבר כדי להמשיך.</p>","1","instructions","","","","","","","","","","","","","","","","","","","",""
"","","","","","html-slider-response","14","139427","0.0-14.0-0.0","137f554f-99e4-4c27-b34c-a0d66681d6d0","3251","
                    <p style=""text-align: center;"">₪40<br>65%</p>
                    <p id=""wtp"" style=""text-align:center; margin-top: 0px; margin-bottom: 0px; font-size: 40px"";>מוכנים לשלם: <span id=""c_p_y""></span></p>","26","instructions","43","","","","","","","","","","","","","","","","","","",""
"","","","","","html-keyboard-response","15","140947","0.0-14.0-1.0","137f554f-99e4-4c27-b34c-a0d66681d6d0","null","<p>יפה. הפעם בחרתם לשלם לכל היותר ₪26.
                <br><br>לחצו על העכבר כדי להמשיך.</p>","1","instructions","","","","","","","","","","","","","","","","","","","",""
"","","","","","html-keyboard-response","16","149347","0.0-15.0","137f554f-99e4-4c27-b34c-a0d66681d6d0","null","<p>כעת נתחיל את הניסוי.
                <br><br>אתם תראו הגרלות ותתבקשו לבחור כמה תהיו מוכנים לשלם כדי להשתתף בהן.
                <br>יש לכם תקציב של ₪80 עבור כל הגרלה.
                <br>בסוף הניסוי הגרלה אחת תבחר באקראי ותשוחק.
                <br><br>לחצו על העכבר כדי להתחיל את הניסוי.</p>","1","instructions","","","","","","","","","","","","","","","","","","","",""
"","","","","","html-keyboard-response","17","150616","0.0-16.0","137f554f-99e4-4c27-b34c-a0d66681d6d0","null","<p style=""text-align: center;"">+</p>","null","fixation","","","","","","","","","","","","","","","","","","","",""
"","","","","","html-slider-response","18","151622","0.0-17.0-0.0","137f554f-99e4-4c27-b34c-a0d66681d6d0","1000","
                  <p style=""text-align: center;"">₪76
                                                <br>65%</p>
                  <p id=""wtp"" style=""text-align:center; margin-top: 0px; margin-bottom: 0px; font-size: 40px"";>&ensp;</p>","-","viewing","0","29","8C,19A,24B","","","","","","","","","","","","","","","","",""
"","","","","","html-slider-response","19","155571","0.0-17.0-1.0","137f554f-99e4-4c27-b34c-a0d66681d6d0","3948","
                  <p style=""text-align: center;"">₪76
                                                <br>65%</p>
                  <p id=""wtp"" style=""text-align:center; margin-top: 0px; margin-bottom: 0px; font-size: 40px"";>מוכנים לשלם: <span id=""c_p_y""></span></p>","48","evaluation","50","29","8C,19A,24B","65","76","48","","","","","","","","","","","","","",""
"","","","","","html-keyboard-response","20","156252","0.0-17.0-2.0","137f554f-99e4-4c27-b34c-a0d66681d6d0","null","<p style=""text-align: center;"">+</p>","null","fixation","","","","","","","","","","","","","","","","","","","",""
"","","","","","html-slider-response","21","157255","0.0-17.0-0.1","137f554f-99e4-4c27-b34c-a0d66681d6d0","1000","
                  <p style=""text-align: center;"">₪11
                                                <br>75%</p>
                  <p id=""wtp"" style=""text-align:center; margin-top: 0px; margin-bottom: 0px; font-size: 40px"";>&ensp;</p>","-","viewing","0","7","6B,18B,22C,24C,29A","","","","","","","","","","","","","","","","",""
"","","","","","html-slider-response","22","161268","0.0-17.0-1.1","137f554f-99e4-4c27-b34c-a0d66681d6d0","null","
                  <p style=""text-align: center;"">₪11
                                                <br>75%</p>
                  <p id=""wtp"" style=""text-align:center; margin-top: 0px; margin-bottom: 0px; font-size: 40px"";>מוכנים לשלם: <span id=""c_p_y""></span></p>","null","evaluation","17","7","6B,18B,22C,24C,29A","75","11","8","","","","","","","","","","","","","",""
"","","","","","html-keyboard-response","23","162746","0.0-17.0-2.1","137f554f-99e4-4c27-b34c-a0d66681d6d0","null","<p style=""text-align: center;"">+</p>","null","fixation","","","","","","","","","","","","","","","","","","","",""
"","","","","","html-slider-response","24","163748","0.0-17.0-0.2","137f554f-99e4-4c27-b34c-a0d66681d6d0","1000","
                  <p style=""text-align: center;"">₪58
                                                <br>40%</p>
                  <p id=""wtp"" style=""text-align:center; margin-top: 0px; margin-bottom: 0px; font-size: 40px"";>&ensp;</p>","-","viewing","0","20","10C,13A,19C,21B","","","","","","","","","","","","","","","","",""
"","","","","","html-slider-response","25","167067","0.0-17.0-1.2","137f554f-99e4-4c27-b34c-a0d66681d6d0","3317","
                  <p style=""text-align: center;"">₪58
                                                <br>40%</p>
                  <p id=""wtp"" style=""text-align:center; margin-top: 0px; margin-bottom: 0px; font-size: 40px"";>מוכנים לשלם: <span id=""c_p_y""></span></p>","26","evaluation","58","20","10C,13A,19C,21B","40","58","26","","","","","","","","","","","","","",""
"","","","","","html-keyboard-response","26","167621","0.0-17.0-2.2","137f554f-99e4-4c27-b34c-a0d66681d6d0","null","<p style=""text-align: center;"">+</p>","null","fixation","","","","","","","","","","","","","","","","","","","",""
"","","","","","html-slider-response","27","168634","0.0-17.0-0.3","137f554f-99e4-4c27-b34c-a0d66681d6d0","1000","
                  <p style=""text-align: center;"">₪16
                                                <br>20%</p>
                  <p id=""wtp"" style=""text-align:center; margin-top: 0px; margin-bottom: 0px; font-size: 40px"";>&ensp;</p>","-","viewing","0","8","14C,17A,20C,27A","","","","","","","","","","","","","","","","",""
"","","","","","html-slider-response","28","171459","0.0-17.0-1.3","137f554f-99e4-4c27-b34c-a0d66681d6d0","2824","
                  <p style=""text-align: center;"">₪16
                                                <br>20%</p>
                  <p id=""wtp"" style=""text-align:center; margin-top: 0px; margin-bottom: 0px; font-size: 40px"";>מוכנים לשלם: <span id=""c_p_y""></span></p>","3","evaluation","76","8","14C,17A,20C,27A","20","16","4","","","","","","","","","","","","","",""
"","","","","","html-keyboard-response","29","172942","0.0-17.0-2.3","137f554f-99e4-4c27-b34c-a0d66681d6d0","null","<p style=""text-align: center;"">+</p>","null","fixation","","","","","","","","","","","","","","","","","","","",""
"","","","","","html-slider-response","30","173952","0.0-17.0-0.4","137f554f-99e4-4c27-b34c-a0d66681d6d0","1000","
                  <p style=""text-align: center;"">₪71
                                                <br>75%</p>
                  <p id=""wtp"" style=""text-align:center; margin-top: 0px; margin-bottom: 0px; font-size: 40px"";>&ensp;</p>","-","viewing","0","28","8B","","","","","","","","","","","","","","","","",""
"","","","","","html-slider-response","31","177403","0.0-17.0-1.4","137f554f-99e4-4c27-b34c-a0d66681d6d0","3450","
                  <p style=""text-align: center;"">₪71
                                                <br>75%</p>
                  <p id=""wtp"" style=""text-align:center; margin-top: 0px; margin-bottom: 0px; font-size: 40px"";>מוכנים לשלם: <span id=""c_p_y""></span></p>","48","evaluation","46","28","8B","75","71","48","","","","","","","","","","","","","",""
"","","","","","html-keyboard-response","32","178147","0.0-17.0-2.4","137f554f-99e4-4c27-b34c-a0d66681d6d0","null","<p style=""text-align: center;"">+</p>","null","fixation","","","","","","","","","","","","","","","","","","","",""
"","","","","","html-slider-response","33","179152","0.0-17.0-0.5","137f554f-99e4-4c27-b34c-a0d66681d6d0","1000","
                  <p style=""text-align: center;"">₪36
                                                <br>70%</p>
                  <p id=""wtp"" style=""text-align:center; margin-top: 0px; margin-bottom: 0px; font-size: 40px"";>&ensp;</p>","-","viewing","0","13","3A,5C,10B","","","","","","","","","","","","","","","","",""
"","","","","","html-slider-response","34","183155","0.0-17.0-1.5","137f554f-99e4-4c27-b34c-a0d66681d6d0","null","
                  <p style=""text-align: center;"">₪36
                                                <br>70%</p>
                  <p id=""wtp"" style=""text-align:center; margin-top: 0px; margin-bottom: 0px; font-size: 40px"";>מוכנים לשלם: <span id=""c_p_y""></span></p>","null","evaluation","47","13","3A,5C,10B","70","36","30","","","","","","","","","","","","","",""
"","","","","","html-keyboard-response","35","184637","0.0-17.0-2.5","137f554f-99e4-4c27-b34c-a0d66681d6d0","null","<p style=""text-align: center;"">+</p>","null","fixation","","","","","","","","","","","","","","","","","","","",""
"","","","","","html-slider-response","36","185639","0.0-17.0-0.6","137f554f-99e4-4c27-b34c-a0d66681d6d0","1000","
                  <p style=""text-align: center;"">₪71
                                                <br>55%</p>
                  <p id=""wtp"" style=""text-align:center; margin-top: 0px; margin-bottom: 0px; font-size: 40px"";>&ensp;</p>","-","viewing","0","27","5B,18A","","","","","","","","","","","","","","","","",""
"","","","","","html-slider-response","37","189644","0.0-17.0-1.6","137f554f-99e4-4c27-b34c-a0d66681d6d0","null","
                  <p style=""text-align: center;"">₪71
                                                <br>55%</p>
                  <p id=""wtp"" style=""text-align:center; margin-top: 0px; margin-bottom: 0px; font-size: 40px"";>מוכנים לשלם: <span id=""c_p_y""></span></p>","null","evaluation","18","27","5B,18A","55","71","30","","","","","","","","","","","","","",""
"","","","","","html-keyboard-response","38","191138","0.0-17.0-2.6","137f554f-99e4-4c27-b34c-a0d66681d6d0","null","<p style=""text-align: center;"">+</p>","null","fixation","","","","","","","","","","","","","","","","","","","",""
"","","","","","html-slider-response","39","192155","0.0-17.0-0.7","137f554f-99e4-4c27-b34c-a0d66681d6d0","1000","
                  <p style=""text-align: center;"">₪39
                                                <br>60%</p>
                  <p id=""wtp"" style=""text-align:center; margin-top: 0px; margin-bottom: 0px; font-size: 40px"";>&ensp;</p>","-","viewing","0","15","9C,25B","","","","","","","","","","","","","","","","",""
"","","","","","html-slider-response","40","195801","0.0-17.0-1.7","137f554f-99e4-4c27-b34c-a0d66681d6d0","3645","
                  <p style=""text-align: center;"">₪39
                                                <br>60%</p>
                  <p id=""wtp"" style=""text-align:center; margin-top: 0px; margin-bottom: 0px; font-size: 40px"";>מוכנים לשלם: <span id=""c_p_y""></span></p>","26","evaluation","34","15","9C,25B","60","39","26","","","","","","","","","","","","","",""
"","","","","","html-keyboard-response","41","197275","0.0-17.0-2.7","137f554f-99e4-4c27-b34c-a0d66681d6d0","null","<p style=""text-align: center;"">+</p>","null","fixation","","","","","","","","","","","","","","","","","","","",""
"","","","","","html-slider-response","42","198289","0.0-17.0-0.8","137f554f-99e4-4c27-b34c-a0d66681d6d0","1000","
                  <p style=""text-align: center;"">₪64
                                                <br>50%</p>
                  <p id=""wtp"" style=""text-align:center; margin-top: 0px; margin-bottom: 0px; font-size: 40px"";>&ensp;</p>","-","viewing","0","25","1B,3B,4A","","","","","","","","","","","","","","","","",""
"","","","","","html-slider-response","43","201145","0.0-17.0-1.8","137f554f-99e4-4c27-b34c-a0d66681d6d0","2855","
                  <p style=""text-align: center;"">₪64
                                                <br>50%</p>
                  <p id=""wtp"" style=""text-align:center; margin-top: 0px; margin-bottom: 0px; font-size: 40px"";>מוכנים לשלם: <span id=""c_p_y""></span></p>","28","evaluation","1","25","1B,3B,4A","50","64","28","","","","","","","","","","","","","",""
"","","","","","html-keyboard-response","44","201890","0.0-17.0-2.8","137f554f-99e4-4c27-b34c-a0d66681d6d0","null","<p style=""text-align: center;"">+</p>","null","fixation","","","","","","","","","","","","","","","","","","","",""
"","","","","","html-slider-response","45","202905","0.0-17.0-0.9","137f554f-99e4-4c27-b34c-a0d66681d6d0","1000","
                  <p style=""text-align: center;"">₪58
                                                <br>45%</p>
                  <p id=""wtp"" style=""text-align:center; margin-top: 0px; margin-bottom: 0px; font-size: 40px"";>&ensp;</p>","-","viewing","0","21","11C,18C,25A","","","","","","","","","","","","","","","","",""
"","","","","","html-slider-response","46","205089","0.0-17.0-1.9","137f554f-99e4-4c27-b34c-a0d66681d6d0","2183","
                  <p style=""text-align: center;"">₪58
                                                <br>45%</p>
                  <p id=""wtp"" style=""text-align:center; margin-top: 0px; margin-bottom: 0px; font-size: 40px"";>מוכנים לשלם: <span id=""c_p_y""></span></p>","22","evaluation","71","21","11C,18C,25A","45","58","22","","","","","","","","","","","","","",""
"","","","","","html-keyboard-response","47","206217","0.0-17.0-2.9","137f554f-99e4-4c27-b34c-a0d66681d6d0","null","<p style=""text-align: center;"">+</p>","null","fixation","","","","","","","","","","","","","","","","","","","",""
"","","","","","html-slider-response","48","207224","0.0-17.0-0.10","137f554f-99e4-4c27-b34c-a0d66681d6d0","1000","
                  <p style=""text-align: center;"">₪11
                                                <br>25%</p>
                  <p id=""wtp"" style=""text-align:center; margin-top: 0px; margin-bottom: 0px; font-size: 40px"";>&ensp;</p>","-","viewing","0","5","12A,27B,28B,30B","","","","","","","","","","","","","","","","",""
"","","","","","html-slider-response","49","209201","0.0-17.0-1.10","137f554f-99e4-4c27-b34c-a0d66681d6d0","1976","
                  <p style=""text-align: center;"">₪11
                                                <br>25%</p>
                  <p id=""wtp"" style=""text-align:center; margin-top: 0px; margin-bottom: 0px; font-size: 40px"";>מוכנים לשלם: <span id=""c_p_y""></span></p>","3","evaluation","43","5","12A,27B,28B,30B","25","11","4","","","","","","","","","","","","","",""
"","","","","","html-keyboard-response","50","210017","0.0-17.0-2.10","137f554f-99e4-4c27-b34c-a0d66681d6d0","null","<p style=""text-align: center;"">+</p>","null","fixation","","","","","","","","","","","","","","","","","","","",""
"","","","","","html-slider-response","51","211029","0.0-17.0-0.11","137f554f-99e4-4c27-b34c-a0d66681d6d0","1000","
                  <p style=""text-align: center;"">₪36
                                                <br>30%</p>
                  <p id=""wtp"" style=""text-align:center; margin-top: 0px; margin-bottom: 0px; font-size: 40px"";>&ensp;</p>","-","viewing","0","11","3C,20A,22A","","","","","","","","","","","","","","","","",""
"","","","","","html-slider-response","52","212729","0.0-17.0-1.11","137f554f-99e4-4c27-b34c-a0d66681d6d0","1698","
                  <p style=""text-align: center;"">₪36
                                                <br>30%</p>
                  <p id=""wtp"" style=""text-align:center; margin-top: 0px; margin-bottom: 0px; font-size: 40px"";>מוכנים לשלם: <span id=""c_p_y""></span></p>","11","evaluation","76","11","3C,20A,22A","30","36","11","","","","","","","","","","","","","",""
"","","","","","html-keyboard-response","53","214034","0.0-17.0-2.11","137f554f-99e4-4c27-b34c-a0d66681d6d0","null","<p style=""text-align: center;"">+</p>","null","fixation","","","","","","","","","","","","","","","","","","","",""
"","","","","","html-slider-response","54","215047","0.0-17.0-0.12","137f554f-99e4-4c27-b34c-a0d66681d6d0","1000","
                  <p style=""text-align: center;"">₪43
                                                <br>60%</p>
                  <p id=""wtp"" style=""text-align:center; margin-top: 0px; margin-bottom: 0px; font-size: 40px"";>&ensp;</p>","-","viewing","0","17","2A,7A,9A,15B","","","","","","","","","","","","","","","","",""
"","","","","","html-slider-response","55","217649","0.0-17.0-1.12","137f554f-99e4-4c27-b34c-a0d66681d6d0","2601","
                  <p style=""text-align: center;"">₪43
                                                <br>60%</p>
                  <p id=""wtp"" style=""text-align:center; margin-top: 0px; margin-bottom: 0px; font-size: 40px"";>מוכנים לשלם: <span id=""c_p_y""></span></p>","22","evaluation","69","17","2A,7A,9A,15B","60","43","22","","","","","","","","","","","","","",""
"","","","","","html-keyboard-response","56","218330","0.0-17.0-2.12","137f554f-99e4-4c27-b34c-a0d66681d6d0","null","<p style=""text-align: center;"">+</p>","null","fixation","","","","","","","","","","","","","","","","","","","",""
"","","","","","html-slider-response","57","219333","0.0-17.0-0.13","137f554f-99e4-4c27-b34c-a0d66681d6d0","1000","
                  <p style=""text-align: center;"">₪11
                                                <br>45%</p>
                  <p id=""wtp"" style=""text-align:center; margin-top: 0px; margin-bottom: 0px; font-size: 40px"";>&ensp;</p>","-","viewing","0","6","14B,21C,25C","","","","","","","","","","","","","","","","",""
"","","","","","html-slider-response","58","221969","0.0-17.0-1.13","137f554f-99e4-4c27-b34c-a0d66681d6d0","2635","
                  <p style=""text-align: center;"">₪11
                                                <br>45%</p>
                  <p id=""wtp"" style=""text-align:center; margin-top: 0px; margin-bottom: 0px; font-size: 40px"";>מוכנים לשלם: <span id=""c_p_y""></span></p>","4","evaluation","64","6","14B,21C,25C","45","11","5","","","","","","","","","","","","","",""
"","","","","","html-keyboard-response","59","222709","0.0-17.0-2.13","137f554f-99e4-4c27-b34c-a0d66681d6d0","null","<p style=""text-align: center;"">+</p>","null","fixation","","","","","","","","","","","","","","","","","","","",""
"","","","","","html-slider-response","60","223720","0.0-17.0-0.14","137f554f-99e4-4c27-b34c-a0d66681d6d0","1000","
                  <p style=""text-align: center;"">₪39
                                                <br>65%</p>
                  <p id=""wtp"" style=""text-align:center; margin-top: 0px; margin-bottom: 0px; font-size: 40px"";>&ensp;</p>","-","viewing","0","16","1A,15A,26C","","","","","","","","","","","","","","","","",""
"","","","","","html-slider-response","61","226969","0.0-17.0-1.14","137f554f-99e4-4c27-b34c-a0d66681d6d0","3248","
                  <p style=""text-align: center;"">₪39
                                                <br>65%</p>
                  <p id=""wtp"" style=""text-align:center; margin-top: 0px; margin-bottom: 0px; font-size: 40px"";>מוכנים לשלם: <span id=""c_p_y""></span></p>","25","evaluation","0","16","1A,15A,26C","65","39","25","","","","","","","","","","","","","",""
"","","","","","html-keyboard-response","62","228349","0.0-17.0-2.14","137f554f-99e4-4c27-b34c-a0d66681d6d0","null","<p style=""text-align: center;"">+</p>","null","fixation","","","","","","","","","","","","","","","","","","","",""
"","","","","","html-slider-response","63","229361","0.0-17.0-0.15","137f554f-99e4-4c27-b34c-a0d66681d6d0","1000","
                  <p style=""text-align: center;"">₪18
                                                <br>50%</p>
                  <p id=""wtp"" style=""text-align:center; margin-top: 0px; margin-bottom: 0px; font-size: 40px"";>&ensp;</p>","-","viewing","0","10","2C,16C,22B,28A","","","","","","","","","","","","","","","","",""
"","","","","","html-slider-response","64","232041","0.0-17.0-1.15","137f554f-99e4-4c27-b34c-a0d66681d6d0","2679","
                  <p style=""text-align: center;"">₪18
                                                <br>50%</p>
                  <p id=""wtp"" style=""text-align:center; margin-top: 0px; margin-bottom: 0px; font-size: 40px"";>מוכנים לשלם: <span id=""c_p_y""></span></p>","9","evaluation","4","10","2C,16C,22B,28A","50","18","9","","","","","","","","","","","","","",""
"","","","","","html-keyboard-response","65","232730","0.0-17.0-2.15","137f554f-99e4-4c27-b34c-a0d66681d6d0","null","<p style=""text-align: center;"">+</p>","null","fixation","","","","","","","","","","","","","","","","","","","",""
"","","","","","html-slider-response","66","233736","0.0-17.0-0.16","137f554f-99e4-4c27-b34c-a0d66681d6d0","1000","
                  <p style=""text-align: center;"">₪61
                                                <br>55%</p>
                  <p id=""wtp"" style=""text-align:center; margin-top: 0px; margin-bottom: 0px; font-size: 40px"";>&ensp;</p>","-","viewing","0","23","7B,26B","","","","","","","","","","","","","","","","",""
"","","","","","html-slider-response","67","237739","0.0-17.0-1.16","137f554f-99e4-4c27-b34c-a0d66681d6d0","null","
                  <p style=""text-align: center;"">₪61
                                                <br>55%</p>
                  <p id=""wtp"" style=""text-align:center; margin-top: 0px; margin-bottom: 0px; font-size: 40px"";>מוכנים לשלם: <span id=""c_p_y""></span></p>","null","evaluation","58","23","7B,26B","55","61","39","","","","","","","","","","","","","",""
"","","","","","html-keyboard-response","68","238590","0.0-17.0-2.16","137f554f-99e4-4c27-b34c-a0d66681d6d0","null","<p style=""text-align: center;"">+</p>","null","fixation","","","","","","","","","","","","","","","","","","","",""
"","","","","","html-slider-response","69","239596","0.0-17.0-0.17","137f554f-99e4-4c27-b34c-a0d66681d6d0","1000","
                  <p style=""text-align: center;"">₪4
                                                <br>75%</p>
                  <p id=""wtp"" style=""text-align:center; margin-top: 0px; margin-bottom: 0px; font-size: 40px"";>&ensp;</p>","-","viewing","0","3","12B,20B,23B,27C,29C","","","","","","","","","","","","","","","","",""
"","","","","","html-slider-response","70","243600","0.0-17.0-1.17","137f554f-99e4-4c27-b34c-a0d66681d6d0","null","
                  <p style=""text-align: center;"">₪4
                                                <br>75%</p>
                  <p id=""wtp"" style=""text-align:center; margin-top: 0px; margin-bottom: 0px; font-size: 40px"";>מוכנים לשלם: <span id=""c_p_y""></span></p>","null","evaluation","80","3","12B,20B,23B,27C,29C","75","4","4","","","","","","","","","","","","","",""
"","","","","","html-keyboard-response","71","244792","0.0-17.0-2.17","137f554f-99e4-4c27-b34c-a0d66681d6d0","null","<p style=""text-align: center;"">+</p>","null","fixation","","","","","","","","","","","","","","","","","","","",""
"","","","","","html-slider-response","72","245807","0.0-17.0-0.18","137f554f-99e4-4c27-b34c-a0d66681d6d0","1000","
                  <p style=""text-align: center;"">₪4
                                                <br>25%</p>
                  <p id=""wtp"" style=""text-align:center; margin-top: 0px; margin-bottom: 0px; font-size: 40px"";>&ensp;</p>","-","viewing","0","1","6C,29B,30C","","","","","","","","","","","","","","","","",""
"","","","","","html-slider-response","73","247051","0.0-17.0-1.18","137f554f-99e4-4c27-b34c-a0d66681d6d0","1241","
                  <p style=""text-align: center;"">₪4
                                                <br>25%</p>
                  <p id=""wtp"" style=""text-align:center; margin-top: 0px; margin-bottom: 0px; font-size: 40px"";>מוכנים לשלם: <span id=""c_p_y""></span></p>","0","evaluation","70","1","6C,29B,30C","25","4","0","","","","","","","","","","","","","",""
"","","","","","html-keyboard-response","74","248120","0.0-17.0-2.18","137f554f-99e4-4c27-b34c-a0d66681d6d0","null","<p style=""text-align: center;"">+</p>","null","fixation","","","","","","","","","","","","","","","","","","","",""
"","","","","","html-slider-response","75","249124","0.0-17.0-0.19","137f554f-99e4-4c27-b34c-a0d66681d6d0","1000","
                  <p style=""text-align: center;"">₪36
                                                <br>60%</p>
                  <p id=""wtp"" style=""text-align:center; margin-top: 0px; margin-bottom: 0px; font-size: 40px"";>&ensp;</p>","-","viewing","0","12","1C,7C,15C","","","","","","","","","","","","","","","","",""
"","","","","","html-slider-response","76","251651","0.0-17.0-1.19","137f554f-99e4-4c27-b34c-a0d66681d6d0","2526","
                  <p style=""text-align: center;"">₪36
                                                <br>60%</p>
                  <p id=""wtp"" style=""text-align:center; margin-top: 0px; margin-bottom: 0px; font-size: 40px"";>מוכנים לשלם: <span id=""c_p_y""></span></p>","21","evaluation","0","12","1C,7C,15C","60","36","22","","","","","","","","","","","","","",""
"","","","","","html-keyboard-response","77","253009","0.0-17.0-2.19","137f554f-99e4-4c27-b34c-a0d66681d6d0","null","<p style=""text-align: center;"">+</p>","null","fixation","","","","","","","","","","","","","","","","","","","",""
"","","","","","html-slider-response","78","254023","0.0-17.0-0.20","137f554f-99e4-4c27-b34c-a0d66681d6d0","1000","
                  <p style=""text-align: center;"">₪18
                                                <br>25%</p>
                  <p id=""wtp"" style=""text-align:center; margin-top: 0px; margin-bottom: 0px; font-size: 40px"";>&ensp;</p>","-","viewing","0","9","14A,23A","","","","","","","","","","","","","","","","",""
"","","","","","html-slider-response","79","256931","0.0-17.0-1.20","137f554f-99e4-4c27-b34c-a0d66681d6d0","2907","
                  <p style=""text-align: center;"">₪18
                                                <br>25%</p>
                  <p id=""wtp"" style=""text-align:center; margin-top: 0px; margin-bottom: 0px; font-size: 40px"";>מוכנים לשלם: <span id=""c_p_y""></span></p>","5","evaluation","54","9","14A,23A","25","18","5","","","","","","","","","","","","","",""
"","","","","","html-keyboard-response","80","258432","0.0-17.0-2.20","137f554f-99e4-4c27-b34c-a0d66681d6d0","null","<p style=""text-align: center;"">+</p>","null","fixation","","","","","","","","","","","","","","","","","","","",""
"","","","","","html-slider-response","81","259441","0.0-17.0-0.21","137f554f-99e4-4c27-b34c-a0d66681d6d0","1000","
                  <p style=""text-align: center;"">₪61
                                                <br>45%</p>
                  <p id=""wtp"" style=""text-align:center; margin-top: 0px; margin-bottom: 0px; font-size: 40px"";>&ensp;</p>","-","viewing","0","22","10A,11A","","","","","","","","","","","","","","","","",""
"","","","","","html-slider-response","82","262515","0.0-17.0-1.21","137f554f-99e4-4c27-b34c-a0d66681d6d0","3073","
                  <p style=""text-align: center;"">₪61
                                                <br>45%</p>
                  <p id=""wtp"" style=""text-align:center; margin-top: 0px; margin-bottom: 0px; font-size: 40px"";>מוכנים לשלם: <span id=""c_p_y""></span></p>","25","evaluation","42","22","10A,11A","45","61","25","","","","","","","","","","","","","",""
"","","","","","html-keyboard-response","83","263627","0.0-17.0-2.21","137f554f-99e4-4c27-b34c-a0d66681d6d0","null","<p style=""text-align: center;"">+</p>","null","fixation","","","","","","","","","","","","","","","","","","","",""
"","","","","","html-slider-response","84","264630","0.0-17.0-0.22","137f554f-99e4-4c27-b34c-a0d66681d6d0","1000","
                  <p style=""text-align: center;"">₪79
                                                <br>65%</p>
                  <p id=""wtp"" style=""text-align:center; margin-top: 0px; margin-bottom: 0px; font-size: 40px"";>&ensp;</p>","-","viewing","0","31","8A","","","","","","","","","","","","","","","","",""
"","","","","","html-slider-response","85","268443","0.0-17.0-1.22","137f554f-99e4-4c27-b34c-a0d66681d6d0","3811","
                  <p style=""text-align: center;"">₪79
                                                <br>65%</p>
                  <p id=""wtp"" style=""text-align:center; margin-top: 0px; margin-bottom: 0px; font-size: 40px"";>מוכנים לשלם: <span id=""c_p_y""></span></p>","34","evaluation","32","31","8A","65","79","34","","","","","","","","","","","","","",""
"","","","","","html-keyboard-response","86","269922","0.0-17.0-2.22","137f554f-99e4-4c27-b34c-a0d66681d6d0","null","<p style=""text-align: center;"">+</p>","null","fixation","","","","","","","","","","","","","","","","","","","",""
"","","","","","html-slider-response","87","270933","0.0-17.0-0.23","137f554f-99e4-4c27-b34c-a0d66681d6d0","1000","
                  <p style=""text-align: center;"">₪71
                                                <br>45%</p>
                  <p id=""wtp"" style=""text-align:center; margin-top: 0px; margin-bottom: 0px; font-size: 40px"";>&ensp;</p>","-","viewing","0","26","2B,16A","","","","","","","","","","","","","","","","",""
"","","","","","html-slider-response","88","273467","0.0-17.0-1.23","137f554f-99e4-4c27-b34c-a0d66681d6d0","2534","
                  <p style=""text-align: center;"">₪71
                                                <br>45%</p>
                  <p id=""wtp"" style=""text-align:center; margin-top: 0px; margin-bottom: 0px; font-size: 40px"";>מוכנים לשלם: <span id=""c_p_y""></span></p>","33","evaluation","68","26","2B,16A","45","71","33","","","","","","","","","","","","","",""
"","","","","","html-keyboard-response","89","274542","0.0-17.0-2.23","137f554f-99e4-4c27-b34c-a0d66681d6d0","null","<p style=""text-align: center;"">+</p>","null","fixation","","","","","","","","","","","","","","","","","","","",""
"","","","","","html-slider-response","90","275548","0.0-17.0-0.24","137f554f-99e4-4c27-b34c-a0d66681d6d0","1000","
                  <p style=""text-align: center;"">₪43
                                                <br>75%</p>
                  <p id=""wtp"" style=""text-align:center; margin-top: 0px; margin-bottom: 0px; font-size: 40px"";>&ensp;</p>","-","viewing","0","18","11B,19B,24A,26A","","","","","","","","","","","","","","","","",""
"","","","","","html-slider-response","91","278115","0.0-17.0-1.24","137f554f-99e4-4c27-b34c-a0d66681d6d0","2566","
                  <p style=""text-align: center;"">₪43
                                                <br>75%</p>
                  <p id=""wtp"" style=""text-align:center; margin-top: 0px; margin-bottom: 0px; font-size: 40px"";>מוכנים לשלם: <span id=""c_p_y""></span></p>","30","evaluation","3","18","11B,19B,24A,26A","75","43","30","","","","","","","","","","","","","",""
"","","","","","html-keyboard-response","92","278631","0.0-17.0-2.24","137f554f-99e4-4c27-b34c-a0d66681d6d0","null","<p style=""text-align: center;"">+</p>","null","fixation","","","","","","","","","","","","","","","","","","","",""
"","","","","","html-slider-response","93","279639","0.0-17.0-0.25","137f554f-99e4-4c27-b34c-a0d66681d6d0","1000","
                  <p style=""text-align: center;"">₪58
                                                <br>30%</p>
                  <p id=""wtp"" style=""text-align:center; margin-top: 0px; margin-bottom: 0px; font-size: 40px"";>&ensp;</p>","-","viewing","0","19","13C,30A","","","","","","","","","","","","","","","","",""
"","","","","","html-slider-response","94","282955","0.0-17.0-1.25","137f554f-99e4-4c27-b34c-a0d66681d6d0","3316","
                  <p style=""text-align: center;"">₪58
                                                <br>30%</p>
                  <p id=""wtp"" style=""text-align:center; margin-top: 0px; margin-bottom: 0px; font-size: 40px"";>מוכנים לשלם: <span id=""c_p_y""></span></p>","12","evaluation","38","19","13C,30A","30","58","12","","","","","","","","","","","","","",""
"","","","","","html-keyboard-response","95","284239","0.0-17.0-2.25","137f554f-99e4-4c27-b34c-a0d66681d6d0","null","<p style=""text-align: center;"">+</p>","null","fixation","","","","","","","","","","","","","","","","","","","",""
"","","","","","html-slider-response","96","285257","0.0-17.0-0.26","137f554f-99e4-4c27-b34c-a0d66681d6d0","1000","
                  <p style=""text-align: center;"">₪11
                                                <br>20%</p>
                  <p id=""wtp"" style=""text-align:center; margin-top: 0px; margin-bottom: 0px; font-size: 40px"";>&ensp;</p>","-","viewing","0","4","12C,17C,23C,28C","","","","","","","","","","","","","","","","",""
"","","","","","html-slider-response","97","287963","0.0-17.0-1.26","137f554f-99e4-4c27-b34c-a0d66681d6d0","2705","
                  <p style=""text-align: center;"">₪11
                                                <br>20%</p>
                  <p id=""wtp"" style=""text-align:center; margin-top: 0px; margin-bottom: 0px; font-size: 40px"";>מוכנים לשלם: <span id=""c_p_y""></span></p>","0","evaluation","75","4","12C,17C,23C,28C","20","11","1","","","","","","","","","","","","","",""
"","","","","","html-keyboard-response","98","288474","0.0-17.0-2.26","137f554f-99e4-4c27-b34c-a0d66681d6d0","null","<p style=""text-align: center;"">+</p>","null","fixation","","","","","","","","","","","","","","","","","","","",""
"","","","","","html-slider-response","99","289476","0.0-17.0-0.27","137f554f-99e4-4c27-b34c-a0d66681d6d0","1000","
                  <p style=""text-align: center;"">₪36
                                                <br>75%</p>
                  <p id=""wtp"" style=""text-align:center; margin-top: 0px; margin-bottom: 0px; font-size: 40px"";>&ensp;</p>","-","viewing","0","14","4B,5A,13B,16B","","","","","","","","","","","","","","","","",""
"","","","","","html-slider-response","100","292635","0.0-17.0-1.27","137f554f-99e4-4c27-b34c-a0d66681d6d0","3157","
                  <p style=""text-align: center;"">₪36
                                                <br>75%</p>
                  <p id=""wtp"" style=""text-align:center; margin-top: 0px; margin-bottom: 0px; font-size: 40px"";>מוכנים לשלם: <span id=""c_p_y""></span></p>","20","evaluation","57","14","4B,5A,13B,16B","75","36","20","","","","","","","","","","","","","",""
"","","","","","html-keyboard-response","101","293893","0.0-17.0-2.27","137f554f-99e4-4c27-b34c-a0d66681d6d0","null","<p style=""text-align: center;"">+</p>","null","fixation","","","","","","","","","","","","","","","","","","","",""
"","","","","","html-slider-response","102","294906","0.0-17.0-0.28","137f554f-99e4-4c27-b34c-a0d66681d6d0","1000","
                  <p style=""text-align: center;"">₪79
                                                <br>40%</p>
                  <p id=""wtp"" style=""text-align:center; margin-top: 0px; margin-bottom: 0px; font-size: 40px"";>&ensp;</p>","-","viewing","0","30","9B","","","","","","","","","","","","","","","","",""
"","","","","","html-slider-response","103","298611","0.0-17.0-1.28","137f554f-99e4-4c27-b34c-a0d66681d6d0","3703","
                  <p style=""text-align: center;"">₪79
                                                <br>40%</p>
                  <p id=""wtp"" style=""text-align:center; margin-top: 0px; margin-bottom: 0px; font-size: 40px"";>מוכנים לשלם: <span id=""c_p_y""></span></p>","21","evaluation","73","30","9B","40","79","22","","","","","","","","","","","","","",""
"","","","","","html-keyboard-response","104","299627","0.0-17.0-2.28","137f554f-99e4-4c27-b34c-a0d66681d6d0","null","<p style=""text-align: center;"">+</p>","null","fixation","","","","","","","","","","","","","","","","","","","",""
"","","","","","html-slider-response","105","300638","0.0-17.0-0.29","137f554f-99e4-4c27-b34c-a0d66681d6d0","1000","
                  <p style=""text-align: center;"">₪4
                                                <br>50%</p>
                  <p id=""wtp"" style=""text-align:center; margin-top: 0px; margin-bottom: 0px; font-size: 40px"";>&ensp;</p>","-","viewing","0","2","4C,17B","","","","","","","","","","","","","","","","",""
"","","","","","html-slider-response","106","303251","0.0-17.0-1.29","137f554f-99e4-4c27-b34c-a0d66681d6d0","2612","
                  <p style=""text-align: center;"">₪4
                                                <br>50%</p>
                  <p id=""wtp"" style=""text-align:center; margin-top: 0px; margin-bottom: 0px; font-size: 40px"";>מוכנים לשלם: <span id=""c_p_y""></span></p>","0","evaluation","54","2","4C,17B","50","4","0","","","","","","","","","","","","","",""
"","","","","","html-keyboard-response","107","304261","0.0-17.0-2.29","137f554f-99e4-4c27-b34c-a0d66681d6d0","null","<p style=""text-align: center;"">+</p>","null","fixation","","","","","","","","","","","","","","","","","","","",""
"","","","","","html-slider-response","108","305264","0.0-17.0-0.30","137f554f-99e4-4c27-b34c-a0d66681d6d0","1000","
                  <p style=""text-align: center;"">₪64
                                                <br>25%</p>
                  <p id=""wtp"" style=""text-align:center; margin-top: 0px; margin-bottom: 0px; font-size: 40px"";>&ensp;</p>","-","viewing","0","24","6A,21A","","","","","","","","","","","","","","","","",""
"","","","","","html-slider-response","109","308963","0.0-17.0-1.30","137f554f-99e4-4c27-b34c-a0d66681d6d0","3698","
                  <p style=""text-align: center;"">₪64
                                                <br>25%</p>
                  <p id=""wtp"" style=""text-align:center; margin-top: 0px; margin-bottom: 0px; font-size: 40px"";>מוכנים לשלם: <span id=""c_p_y""></span></p>","16","evaluation","8","24","6A,21A","25","64","17","","","","","","","","","","","","","",""
"","","","","","html-keyboard-response","110","309867","0.0-17.0-2.30","137f554f-99e4-4c27-b34c-a0d66681d6d0","null","<p style=""text-align: center;"">+</p>","null","fixation","","","","","","","","","","","","","","","","","","","",""
"","","","","","html-keyboard-response","111","310880","0.0-18.0","137f554f-99e4-4c27-b34c-a0d66681d6d0","null","<p style=""text-align: center;"">+</p>","null","fixation","","","","","","","","","","","","","","","","","","","",""
"","","","","","html-keyboard-response","112","349010","0.0-19.0","137f554f-99e4-4c27-b34c-a0d66681d6d0","null","<p>הפסקה.
          <br>לחצו כדי להמשיך.</p>","1","scan_wait","","","","","","","","","","","","","","","","","","","",""
"","","","","","html-keyboard-response","113","350015","0.0-20.0","137f554f-99e4-4c27-b34c-a0d66681d6d0","null","<p style=""text-align: center;"">+</p>","null","fixation","","","","","","","","","","","","","","","","","","","",""
"","","","","","html-slider-response","114","351024","0.0-21.0-0.0","137f554f-99e4-4c27-b34c-a0d66681d6d0","1000","
                  <p style=""text-align: center;"">₪4
                                                <br>25%</p>
                  <p id=""wtp"" style=""text-align:center; margin-top: 0px; margin-bottom: 0px; font-size: 40px"";>&ensp;</p>","-","viewing","0","1","6C,29B,30C","","","","","","","","","","","","","","","","",""
"","","","","","html-slider-response","115","352450","0.0-21.0-1.0","137f554f-99e4-4c27-b34c-a0d66681d6d0","1425","
                  <p style=""text-align: center;"">₪4
                                                <br>25%</p>
                  <p id=""wtp"" style=""text-align:center; margin-top: 0px; margin-bottom: 0px; font-size: 40px"";>מוכנים לשלם: <span id=""c_p_y""></span></p>","0","evaluation","12","1","6C,29B,30C","25","4","0","","","","","","","","","","","","","",""
"","","","","","html-keyboard-response","116","353895","0.0-21.0-2.0","137f554f-99e4-4c27-b34c-a0d66681d6d0","null","<p style=""text-align: center;"">+</p>","null","fixation","","","","","","","","","","","","","","","","","","","",""
"","","","","","html-slider-response","117","354906","0.0-21.0-0.1","137f554f-99e4-4c27-b34c-a0d66681d6d0","1000","
                  <p style=""text-align: center;"">₪43
                                                <br>75%</p>
                  <p id=""wtp"" style=""text-align:center; margin-top: 0px; margin-bottom: 0px; font-size: 40px"";>&ensp;</p>","-","viewing","0","18","11B,19B,24A,26A","","","","","","","","","","","","","","","","",""
"","","","","","html-slider-response","118","357658","0.0-21.0-1.1","137f554f-99e4-4c27-b34c-a0d66681d6d0","2751","
                  <p style=""text-align: center;"">₪43
                                                <br>75%</p>
                  <p id=""wtp"" style=""text-align:center; margin-top: 0px; margin-bottom: 0px; font-size: 40px"";>מוכנים לשלם: <span id=""c_p_y""></span></p>","28","evaluation","18","18","11B,19B,24A,26A","75","43","28","","","","","","","","","","","","","",""
"","","","","","html-keyboard-response","119","358926","0.0-21.0-2.1","137f554f-99e4-4c27-b34c-a0d66681d6d0","null","<p style=""text-align: center;"">+</p>","null","fixation","","","","","","","","","","","","","","","","","","","",""
"","","","","","html-slider-response","120","359929","0.0-21.0-0.2","137f554f-99e4-4c27-b34c-a0d66681d6d0","1000","
                  <p style=""text-align: center;"">₪11
                                                <br>25%</p>
                  <p id=""wtp"" style=""text-align:center; margin-top: 0px; margin-bottom: 0px; font-size: 40px"";>&ensp;</p>","-","viewing","0","5","12A,27B,28B,30B","","","","","","","","","","","","","","","","",""
"","","","","","html-slider-response","121","362026","0.0-21.0-1.2","137f554f-99e4-4c27-b34c-a0d66681d6d0","2096","
                  <p style=""text-align: center;"">₪11
                                                <br>25%</p>
                  <p id=""wtp"" style=""text-align:center; margin-top: 0px; margin-bottom: 0px; font-size: 40px"";>מוכנים לשלם: <span id=""c_p_y""></span></p>","2","evaluation","13","5","12A,27B,28B,30B","25","11","3","","","","","","","","","","","","","",""
"","","","","","html-keyboard-response","122","362907","0.0-21.0-2.2","137f554f-99e4-4c27-b34c-a0d66681d6d0","null","<p style=""text-align: center;"">+</p>","null","fixation","","","","","","","","","","","","","","","","","","","",""
"","","","","","html-slider-response","123","363909","0.0-21.0-0.3","137f554f-99e4-4c27-b34c-a0d66681d6d0","1000","
                  <p style=""text-align: center;"">₪4
                                                <br>50%</p>
                  <p id=""wtp"" style=""text-align:center; margin-top: 0px; margin-bottom: 0px; font-size: 40px"";>&ensp;</p>","-","viewing","0","2","4C,17B","","","","","","","","","","","","","","","","",""
"","","","","","html-slider-response","124","365987","0.0-21.0-1.3","137f554f-99e4-4c27-b34c-a0d66681d6d0","2076","
                  <p style=""text-align: center;"">₪4
                                                <br>50%</p>
                  <p id=""wtp"" style=""text-align:center; margin-top: 0px; margin-bottom: 0px; font-size: 40px"";>מוכנים לשלם: <span id=""c_p_y""></span></p>","1","evaluation","49","2","4C,17B","50","4","1","","","","","","","","","","","","","",""
"","","","","","html-keyboard-response","125","367002","0.0-21.0-2.3","137f554f-99e4-4c27-b34c-a0d66681d6d0","null","<p style=""text-align: center;"">+</p>","null","fixation","","","","","","","","","","","","","","","","","","","",""
"","","","","","html-slider-response","126","368017","0.0-21.0-0.4","137f554f-99e4-4c27-b34c-a0d66681d6d0","1000","
                  <p style=""text-align: center;"">₪36
                                                <br>70%</p>
                  <p id=""wtp"" style=""text-align:center; margin-top: 0px; margin-bottom: 0px; font-size: 40px"";>&ensp;</p>","-","viewing","0","13","3A,5C,10B","","","","","","","","","","","","","","","","",""
"","","","","","html-slider-response","127","370747","0.0-21.0-1.4","137f554f-99e4-4c27-b34c-a0d66681d6d0","2728","
                  <p style=""text-align: center;"">₪36
                                                <br>70%</p>
                  <p id=""wtp"" style=""text-align:center; margin-top: 0px; margin-bottom: 0px; font-size: 40px"";>מוכנים לשלם: <span id=""c_p_y""></span></p>","21","evaluation","51","13","3A,5C,10B","70","36","22","","","","","","","","","","","","","",""
"","","","","","html-keyboard-response","128","371398","0.0-21.0-2.4","137f554f-99e4-4c27-b34c-a0d66681d6d0","null","<p style=""text-align: center;"">+</p>","null","fixation","","","","","","","","","","","","","","","","","","","",""
"","","","","","html-slider-response","129","372401","0.0-21.0-0.5","137f554f-99e4-4c27-b34c-a0d66681d6d0","1000","
                  <p style=""text-align: center;"">₪18
                                                <br>50%</p>
                  <p id=""wtp"" style=""text-align:center; margin-top: 0px; margin-bottom: 0px; font-size: 40px"";>&ensp;</p>","-","viewing","0","10","2C,16C,22B,28A","","","","","","","","","","","","","","","","",""
"","","","","","html-slider-response","130","375347","0.0-21.0-1.5","137f554f-99e4-4c27-b34c-a0d66681d6d0","2945","
                  <p style=""text-align: center;"">₪18
                                                <br>50%</p>
                  <p id=""wtp"" style=""text-align:center; margin-top: 0px; margin-bottom: 0px; font-size: 40px"";>מוכנים לשלם: <span id=""c_p_y""></span></p>","6","evaluation","38","10","2C,16C,22B,28A","50","18","6","","","","","","","","","","","","","",""
"","","","","","html-keyboard-response","131","376271","0.0-21.0-2.5","137f554f-99e4-4c27-b34c-a0d66681d6d0","null","<p style=""text-align: center;"">+</p>","null","fixation","","","","","","","","","","","","","","","","","","","",""
"","","","","","html-slider-response","132","377275","0.0-21.0-0.6","137f554f-99e4-4c27-b34c-a0d66681d6d0","1000","
                  <p style=""text-align: center;"">₪64
                                                <br>25%</p>
                  <p id=""wtp"" style=""text-align:center; margin-top: 0px; margin-bottom: 0px; font-size: 40px"";>&ensp;</p>","-","viewing","0","24","6A,21A","","","","","","","","","","","","","","","","",""
"","","","","","html-slider-response","133","380571","0.0-21.0-1.6","137f554f-99e4-4c27-b34c-a0d66681d6d0","3294","
                  <p style=""text-align: center;"">₪64
                                                <br>25%</p>
                  <p id=""wtp"" style=""text-align:center; margin-top: 0px; margin-bottom: 0px; font-size: 40px"";>מוכנים לשלם: <span id=""c_p_y""></span></p>","9","evaluation","26","24","6A,21A","25","64","10","","","","","","","","","","","","","",""
"","","","","","html-keyboard-response","134","382019","0.0-21.0-2.6","137f554f-99e4-4c27-b34c-a0d66681d6d0","null","<p style=""text-align: center;"">+</p>","null","fixation","","","","","","","","","","","","","","","","","","","",""
"","","","","","html-slider-response","135","383033","0.0-21.0-0.7","137f554f-99e4-4c27-b34c-a0d66681d6d0","1000","
                  <p style=""text-align: center;"">₪79
                                                <br>65%</p>
                  <p id=""wtp"" style=""text-align:center; margin-top: 0px; margin-bottom: 0px; font-size: 40px"";>&ensp;</p>","-","viewing","0","31","8A","","","","","","","","","","","","","","","","",""
"","","","","","html-slider-response","136","386803","0.0-21.0-1.7","137f554f-99e4-4c27-b34c-a0d66681d6d0","3768","
                  <p style=""text-align: center;"">₪79
                                                <br>65%</p>
                  <p id=""wtp"" style=""text-align:center; margin-top: 0px; margin-bottom: 0px; font-size: 40px"";>מוכנים לשלם: <span id=""c_p_y""></span></p>","28","evaluation","60","31","8A","65","79","28","","","","","","","","","","","","","",""
"","","","","","html-keyboard-response","137","387745","0.0-21.0-2.7","137f554f-99e4-4c27-b34c-a0d66681d6d0","null","<p style=""text-align: center;"">+</p>","null","fixation","","","","","","","","","","","","","","","","","","","",""
"","","","","","html-slider-response","138","388751","0.0-21.0-0.8","137f554f-99e4-4c27-b34c-a0d66681d6d0","1000","
                  <p style=""text-align: center;"">₪71
                                                <br>75%</p>
                  <p id=""wtp"" style=""text-align:center; margin-top: 0px; margin-bottom: 0px; font-size: 40px"";>&ensp;</p>","-","viewing","0","28","8B","","","","","","","","","","","","","","","","",""
"","","","","","html-slider-response","139","391971","0.0-21.0-1.8","137f554f-99e4-4c27-b34c-a0d66681d6d0","3219","
                  <p style=""text-align: center;"">₪71
                                                <br>75%</p>
                  <p id=""wtp"" style=""text-align:center; margin-top: 0px; margin-bottom: 0px; font-size: 40px"";>מוכנים לשלם: <span id=""c_p_y""></span></p>","49","evaluation","42","28","8B","75","71","49","","","","","","","","","","","","","",""
"","","","","","html-keyboard-response","140","393401","0.0-21.0-2.8","137f554f-99e4-4c27-b34c-a0d66681d6d0","null","<p style=""text-align: center;"">+</p>","null","fixation","","","","","","","","","","","","","","","","","","","",""
"","","","","","html-slider-response","141","394411","0.0-21.0-0.9","137f554f-99e4-4c27-b34c-a0d66681d6d0","1000","
                  <p style=""text-align: center;"">₪36
                                                <br>60%</p>
                  <p id=""wtp"" style=""text-align:center; margin-top: 0px; margin-bottom: 0px; font-size: 40px"";>&ensp;</p>","-","viewing","0","12","1C,7C,15C","","","","","","","","","","","","","","","","",""
"","","","","","html-slider-response","142","398422","0.0-21.0-1.9","137f554f-99e4-4c27-b34c-a0d66681d6d0","null","
                  <p style=""text-align: center;"">₪36
                                                <br>60%</p>
                  <p id=""wtp"" style=""text-align:center; margin-top: 0px; margin-bottom: 0px; font-size: 40px"";>מוכנים לשלם: <span id=""c_p_y""></span></p>","null","evaluation","48","12","1C,7C,15C","60","36","17","","","","","","","","","","","","","",""
"","","","","","html-keyboard-response","143","399815","0.0-21.0-2.9","137f554f-99e4-4c27-b34c-a0d66681d6d0","null","<p style=""text-align: center;"">+</p>","null","fixation","","","","","","","","","","","","","","","","","","","",""
"","","","","","html-slider-response","144","400826","0.0-21.0-0.10","137f554f-99e4-4c27-b34c-a0d66681d6d0","1000","
                  <p style=""text-align: center;"">₪18
                                                <br>25%</p>
                  <p id=""wtp"" style=""text-align:center; margin-top: 0px; margin-bottom: 0px; font-size: 40px"";>&ensp;</p>","-","viewing","0","9","14A,23A","","","","","","","","","","","","","","","","",""
"","","","","","html-slider-response","145","404837","0.0-21.0-1.10","137f554f-99e4-4c27-b34c-a0d66681d6d0","null","
                  <p style=""text-align: center;"">₪18
                                                <br>25%</p>
                  <p id=""wtp"" style=""text-align:center; margin-top: 0px; margin-bottom: 0px; font-size: 40px"";>מוכנים לשלם: <span id=""c_p_y""></span></p>","null","evaluation","11","9","14A,23A","25","18","2","","","","","","","","","","","","","",""
"","","","","","html-keyboard-response","146","406104","0.0-21.0-2.10","137f554f-99e4-4c27-b34c-a0d66681d6d0","null","<p style=""text-align: center;"">+</p>","null","fixation","","","","","","","","","","","","","","","","","","","",""
"","","","","","html-slider-response","147","407106","0.0-21.0-0.11","137f554f-99e4-4c27-b34c-a0d66681d6d0","1000","
                  <p style=""text-align: center;"">₪64
                                                <br>50%</p>
                  <p id=""wtp"" style=""text-align:center; margin-top: 0px; margin-bottom: 0px; font-size: 40px"";>&ensp;</p>","-","viewing","0","25","1B,3B,4A","","","","","","","","","","","","","","","","",""
"","","","","","html-slider-response","148","409307","0.0-21.0-1.11","137f554f-99e4-4c27-b34c-a0d66681d6d0","2200","
                  <p style=""text-align: center;"">₪64
                                                <br>50%</p>
                  <p id=""wtp"" style=""text-align:center; margin-top: 0px; margin-bottom: 0px; font-size: 40px"";>מוכנים לשלם: <span id=""c_p_y""></span></p>","22","evaluation","79","25","1B,3B,4A","50","64","23","","","","","","","","","","","","","",""
"","","","","","html-keyboard-response","149","409881","0.0-21.0-2.11","137f554f-99e4-4c27-b34c-a0d66681d6d0","null","<p style=""text-align: center;"">+</p>","null","fixation","","","","","","","","","","","","","","","","","","","",""
"","","","","","html-slider-response","150","410885","0.0-21.0-0.12","137f554f-99e4-4c27-b34c-a0d66681d6d0","1000","
                  <p style=""text-align: center;"">₪76
                                                <br>65%</p>
                  <p id=""wtp"" style=""text-align:center; margin-top: 0px; margin-bottom: 0px; font-size: 40px"";>&ensp;</p>","-","viewing","0","29","8C,19A,24B","","","","","","","","","","","","","","","","",""
"","","","","","html-slider-response","151","413995","0.0-21.0-1.12","137f554f-99e4-4c27-b34c-a0d66681d6d0","3109","
                  <p style=""text-align: center;"">₪76
                                                <br>65%</p>
                  <p id=""wtp"" style=""text-align:center; margin-top: 0px; margin-bottom: 0px; font-size: 40px"";>מוכנים לשלם: <span id=""c_p_y""></span></p>","47","evaluation","32","29","8C,19A,24B","65","76","46","","","","","","","","","","","","","",""
"","","","","","html-keyboard-response","152","415054","0.0-21.0-2.12","137f554f-99e4-4c27-b34c-a0d66681d6d0","null","<p style=""text-align: center;"">+</p>","null","fixation","","","","","","","","","","","","","","","","","","","",""
"","","","","","html-slider-response","153","416059","0.0-21.0-0.13","137f554f-99e4-4c27-b34c-a0d66681d6d0","1000","
                  <p style=""text-align: center;"">₪16
                                                <br>20%</p>
                  <p id=""wtp"" style=""text-align:center; margin-top: 0px; margin-bottom: 0px; font-size: 40px"";>&ensp;</p>","-","viewing","0","8","14C,17A,20C,27A","","","","","","","","","","","","","","","","",""
"","","","","","html-slider-response","154","418939","0.0-21.0-1.13","137f554f-99e4-4c27-b34c-a0d66681d6d0","2879","
                  <p style=""text-align: center;"">₪16
                                                <br>20%</p>
                  <p id=""wtp"" style=""text-align:center; margin-top: 0px; margin-bottom: 0px; font-size: 40px"";>מוכנים לשלם: <span id=""c_p_y""></span></p>","4","evaluation","49","8","14C,17A,20C,27A","20","16","4","","","","","","","","","","","","","",""
"","","","","","html-keyboard-response","155","420288","0.0-21.0-2.13","137f554f-99e4-4c27-b34c-a0d66681d6d0","null","<p style=""text-align: center;"">+</p>","null","fixation","","","","","","","","","","","","","","","","","","","",""
"","","","","","html-slider-response","156","421292","0.0-21.0-0.14","137f554f-99e4-4c27-b34c-a0d66681d6d0","1000","
                  <p style=""text-align: center;"">₪36
                                                <br>75%</p>
                  <p id=""wtp"" style=""text-align:center; margin-top: 0px; margin-bottom: 0px; font-size: 40px"";>&ensp;</p>","-","viewing","0","14","4B,5A,13B,16B","","","","","","","","","","","","","","","","",""
"","","","","","html-slider-response","157","425299","0.0-21.0-1.14","137f554f-99e4-4c27-b34c-a0d66681d6d0","null","
                  <p style=""text-align: center;"">₪36
                                                <br>75%</p>
                  <p id=""wtp"" style=""text-align:center; margin-top: 0px; margin-bottom: 0px; font-size: 40px"";>מוכנים לשלם: <span id=""c_p_y""></span></p>","null","evaluation","33","14","4B,5A,13B,16B","75","36","19","","","","","","","","","","","","","",""
"","","","","","html-keyboard-response","158","426047","0.0-21.0-2.14","137f554f-99e4-4c27-b34c-a0d66681d6d0","null","<p style=""text-align: center;"">+</p>","null","fixation","","","","","","","","","","","","","","","","","","","",""
"","","","","","html-slider-response","159","427057","0.0-21.0-0.15","137f554f-99e4-4c27-b34c-a0d66681d6d0","1000","
                  <p style=""text-align: center;"">₪61
                                                <br>55%</p>
                  <p id=""wtp"" style=""text-align:center; margin-top: 0px; margin-bottom: 0px; font-size: 40px"";>&ensp;</p>","-","viewing","0","23","7B,26B","","","","","","","","","","","","","","","","",""
"","","","","","html-slider-response","160","430051","0.0-21.0-1.15","137f554f-99e4-4c27-b34c-a0d66681d6d0","2992","
                  <p style=""text-align: center;"">₪61
                                                <br>55%</p>
                  <p id=""wtp"" style=""text-align:center; margin-top: 0px; margin-bottom: 0px; font-size: 40px"";>מוכנים לשלם: <span id=""c_p_y""></span></p>","22","evaluation","71","23","7B,26B","55","61","22","","","","","","","","","","","","","",""
"","","","","","html-keyboard-response","161","431374","0.0-21.0-2.15","137f554f-99e4-4c27-b34c-a0d66681d6d0","null","<p style=""text-align: center;"">+</p>","null","fixation","","","","","","","","","","","","","","","","","","","",""
"","","","","","html-slider-response","162","432375","0.0-21.0-0.16","137f554f-99e4-4c27-b34c-a0d66681d6d0","1000","
                  <p style=""text-align: center;"">₪11
                                                <br>20%</p>
                  <p id=""wtp"" style=""text-align:center; margin-top: 0px; margin-bottom: 0px; font-size: 40px"";>&ensp;</p>","-","viewing","0","4","12C,17C,23C,28C","","","","","","","","","","","","","","","","",""
"","","","","","html-slider-response","163","434859","0.0-21.0-1.16","137f554f-99e4-4c27-b34c-a0d66681d6d0","2482","
                  <p style=""text-align: center;"">₪11
                                                <br>20%</p>
                  <p id=""wtp"" style=""text-align:center; margin-top: 0px; margin-bottom: 0px; font-size: 40px"";>מוכנים לשלם: <span id=""c_p_y""></span></p>","2","evaluation","30","4","12C,17C,23C,28C","20","11","3","","","","","","","","","","","","","",""
"","","","","","html-keyboard-response","164","435436","0.0-21.0-2.16","137f554f-99e4-4c27-b34c-a0d66681d6d0","null","<p style=""text-align: center;"">+</p>","null","fixation","","","","","","","","","","","","","","","","","","","",""
"","","","","","html-slider-response","165","436447","0.0-21.0-0.17","137f554f-99e4-4c27-b34c-a0d66681d6d0","1000","
                  <p style=""text-align: center;"">₪58
                                                <br>45%</p>
                  <p id=""wtp"" style=""text-align:center; margin-top: 0px; margin-bottom: 0px; font-size: 40px"";>&ensp;</p>","-","viewing","0","21","11C,18C,25A","","","","","","","","","","","","","","","","",""
"","","","","","html-slider-response","166","440018","0.0-21.0-1.17","137f554f-99e4-4c27-b34c-a0d66681d6d0","3569","
                  <p style=""text-align: center;"">₪58
                                                <br>45%</p>
                  <p id=""wtp"" style=""text-align:center; margin-top: 0px; margin-bottom: 0px; font-size: 40px"";>מוכנים לשלם: <span id=""c_p_y""></span></p>","23","evaluation","22","21","11C,18C,25A","45","58","23","","","","","","","","","","","","","",""
"","","","","","html-keyboard-response","167","440838","0.0-21.0-2.17","137f554f-99e4-4c27-b34c-a0d66681d6d0","null","<p style=""text-align: center;"">+</p>","null","fixation","","","","","","","","","","","","","","","","","","","",""
"","","","","","html-slider-response","168","441854","0.0-21.0-0.18","137f554f-99e4-4c27-b34c-a0d66681d6d0","1000","
                  <p style=""text-align: center;"">₪11
                                                <br>45%</p>
                  <p id=""wtp"" style=""text-align:center; margin-top: 0px; margin-bottom: 0px; font-size: 40px"";>&ensp;</p>","-","viewing","0","6","14B,21C,25C","","","","","","","","","","","","","","","","",""
"","","","","","html-slider-response","169","445871","0.0-21.0-1.18","137f554f-99e4-4c27-b34c-a0d66681d6d0","null","
                  <p style=""text-align: center;"">₪11
                                                <br>45%</p>
                  <p id=""wtp"" style=""text-align:center; margin-top: 0px; margin-bottom: 0px; font-size: 40px"";>מוכנים לשלם: <span id=""c_p_y""></span></p>","null","evaluation","62","6","14B,21C,25C","45","11","4","","","","","","","","","","","","","",""
"","","","","","html-keyboard-response","170","446484","0.0-21.0-2.18","137f554f-99e4-4c27-b34c-a0d66681d6d0","null","<p style=""text-align: center;"">+</p>","null","fixation","","","","","","","","","","","","","","","","","","","",""
"","","","","","html-slider-response","171","447488","0.0-21.0-0.19","137f554f-99e4-4c27-b34c-a0d66681d6d0","1000","
                  <p style=""text-align: center;"">₪71
                                                <br>45%</p>
                  <p id=""wtp"" style=""text-align:center; margin-top: 0px; margin-bottom: 0px; font-size: 40px"";>&ensp;</p>","-","viewing","0","26","2B,16A","","","","","","","","","","","","","","","","",""
"","","","","","html-slider-response","172","451122","0.0-21.0-1.19","137f554f-99e4-4c27-b34c-a0d66681d6d0","3634","
                  <p style=""text-align: center;"">₪71
                                                <br>45%</p>
                  <p id=""wtp"" style=""text-align:center; margin-top: 0px; margin-bottom: 0px; font-size: 40px"";>מוכנים לשלם: <span id=""c_p_y""></span></p>","23","evaluation","69","26","2B,16A","45","71","23","","","","","","","","","","","","","",""
"","","","","","html-keyboard-response","173","451875","0.0-21.0-2.19","137f554f-99e4-4c27-b34c-a0d66681d6d0","null","<p style=""text-align: center;"">+</p>","null","fixation","","","","","","","","","","","","","","","","","","","",""
"","","","","","html-slider-response","174","452891","0.0-21.0-0.20","137f554f-99e4-4c27-b34c-a0d66681d6d0","1000","
                  <p style=""text-align: center;"">₪39
                                                <br>65%</p>
                  <p id=""wtp"" style=""text-align:center; margin-top: 0px; margin-bottom: 0px; font-size: 40px"";>&ensp;</p>","-","viewing","0","16","1A,15A,26C","","","","","","","","","","","","","","","","",""
"","","","","","html-slider-response","175","455491","0.0-21.0-1.20","137f554f-99e4-4c27-b34c-a0d66681d6d0","2599","
                  <p style=""text-align: center;"">₪39
                                                <br>65%</p>
                  <p id=""wtp"" style=""text-align:center; margin-top: 0px; margin-bottom: 0px; font-size: 40px"";>מוכנים לשלם: <span id=""c_p_y""></span></p>","22","evaluation","37","16","1A,15A,26C","65","39","22","","","","","","","","","","","","","",""
"","","","","","html-keyboard-response","176","456446","0.0-21.0-2.20","137f554f-99e4-4c27-b34c-a0d66681d6d0","null","<p style=""text-align: center;"">+</p>","null","fixation","","","","","","","","","","","","","","","","","","","",""
"","","","","","html-slider-response","177","457455","0.0-21.0-0.21","137f554f-99e4-4c27-b34c-a0d66681d6d0","1000","
                  <p style=""text-align: center;"">₪39
                                                <br>60%</p>
                  <p id=""wtp"" style=""text-align:center; margin-top: 0px; margin-bottom: 0px; font-size: 40px"";>&ensp;</p>","-","viewing","0","15","9C,25B","","","","","","","","","","","","","","","","",""
"","","","","","html-slider-response","178","460307","0.0-21.0-1.21","137f554f-99e4-4c27-b34c-a0d66681d6d0","2849","
                  <p style=""text-align: center;"">₪39
                                                <br>60%</p>
                  <p id=""wtp"" style=""text-align:center; margin-top: 0px; margin-bottom: 0px; font-size: 40px"";>מוכנים לשלם: <span id=""c_p_y""></span></p>","21","evaluation","76","15","9C,25B","60","39","22","","","","","","","","","","","","","",""
"","","","","","html-keyboard-response","179","461383","0.0-21.0-2.21","137f554f-99e4-4c27-b34c-a0d66681d6d0","null","<p style=""text-align: center;"">+</p>","null","fixation","","","","","","","","","","","","","","","","","","","",""
"","","","","","html-slider-response","180","462394","0.0-21.0-0.22","137f554f-99e4-4c27-b34c-a0d66681d6d0","1000","
                  <p style=""text-align: center;"">₪58
                                                <br>30%</p>
                  <p id=""wtp"" style=""text-align:center; margin-top: 0px; margin-bottom: 0px; font-size: 40px"";>&ensp;</p>","-","viewing","0","19","13C,30A","","","","","","","","","","","","","","","","",""
"","","","","","html-slider-response","181","466107","0.0-21.0-1.22","137f554f-99e4-4c27-b34c-a0d66681d6d0","3711","
                  <p style=""text-align: center;"">₪58
                                                <br>30%</p>
                  <p id=""wtp"" style=""text-align:center; margin-top: 0px; margin-bottom: 0px; font-size: 40px"";>מוכנים לשלם: <span id=""c_p_y""></span></p>","11","evaluation","18","19","13C,30A","30","58","11","","","","","","","","","","","","","",""
"","","","","","html-keyboard-response","182","467153","0.0-21.0-2.22","137f554f-99e4-4c27-b34c-a0d66681d6d0","null","<p style=""text-align: center;"">+</p>","null","fixation","","","","","","","","","","","","","","","","","","","",""
"","","","","","html-slider-response","183","468163","0.0-21.0-0.23","137f554f-99e4-4c27-b34c-a0d66681d6d0","1000","
                  <p style=""text-align: center;"">₪4
                                                <br>75%</p>
                  <p id=""wtp"" style=""text-align:center; margin-top: 0px; margin-bottom: 0px; font-size: 40px"";>&ensp;</p>","-","viewing","0","3","12B,20B,23B,27C,29C","","","","","","","","","","","","","","","","",""
"","","","","","html-slider-response","184","469202","0.0-21.0-1.23","137f554f-99e4-4c27-b34c-a0d66681d6d0","1037","
                  <p style=""text-align: center;"">₪4
                                                <br>75%</p>
                  <p id=""wtp"" style=""text-align:center; margin-top: 0px; margin-bottom: 0px; font-size: 40px"";>מוכנים לשלם: <span id=""c_p_y""></span></p>","0","evaluation","55","3","12B,20B,23B,27C,29C","75","4","0","","","","","","","","","","","","","",""
"","","","","","html-keyboard-response","185","470469","0.0-21.0-2.23","137f554f-99e4-4c27-b34c-a0d66681d6d0","null","<p style=""text-align: center;"">+</p>","null","fixation","","","","","","","","","","","","","","","","","","","",""
"","","","","","html-slider-response","186","471472","0.0-21.0-0.24","137f554f-99e4-4c27-b34c-a0d66681d6d0","1000","
                  <p style=""text-align: center;"">₪61
                                                <br>45%</p>
                  <p id=""wtp"" style=""text-align:center; margin-top: 0px; margin-bottom: 0px; font-size: 40px"";>&ensp;</p>","-","viewing","0","22","10A,11A","","","","","","","","","","","","","","","","",""
"","","","","","html-slider-response","187","473299","0.0-21.0-1.24","137f554f-99e4-4c27-b34c-a0d66681d6d0","1826","
                  <p style=""text-align: center;"">₪61
                                                <br>45%</p>
                  <p id=""wtp"" style=""text-align:center; margin-top: 0px; margin-bottom: 0px; font-size: 40px"";>מוכנים לשלם: <span id=""c_p_y""></span></p>","16","evaluation","7","22","10A,11A","45","61","17","","","","","","","","","","","","","",""
"","","","","","html-keyboard-response","188","473877","0.0-21.0-2.24","137f554f-99e4-4c27-b34c-a0d66681d6d0","null","<p style=""text-align: center;"">+</p>","null","fixation","","","","","","","","","","","","","","","","","","","",""
"","","","","","html-slider-response","189","474889","0.0-21.0-0.25","137f554f-99e4-4c27-b34c-a0d66681d6d0","1000","
                  <p style=""text-align: center;"">₪43
                                                <br>60%</p>
                  <p id=""wtp"" style=""text-align:center; margin-top: 0px; margin-bottom: 0px; font-size: 40px"";>&ensp;</p>","-","viewing","0","17","2A,7A,9A,15B","","","","","","","","","","","","","","","","",""
"","","","","","html-slider-response","190","477987","0.0-21.0-1.25","137f554f-99e4-4c27-b34c-a0d66681d6d0","3097","
                  <p style=""text-align: center;"">₪43
                                                <br>60%</p>
                  <p id=""wtp"" style=""text-align:center; margin-top: 0px; margin-bottom: 0px; font-size: 40px"";>מוכנים לשלם: <span id=""c_p_y""></span></p>","18","evaluation","3","17","2A,7A,9A,15B","60","43","18","","","","","","","","","","","","","",""
"","","","","","html-keyboard-response","191","478708","0.0-21.0-2.25","137f554f-99e4-4c27-b34c-a0d66681d6d0","null","<p style=""text-align: center;"">+</p>","null","fixation","","","","","","","","","","","","","","","","","","","",""
"","","","","","html-slider-response","192","479710","0.0-21.0-0.26","137f554f-99e4-4c27-b34c-a0d66681d6d0","1000","
                  <p style=""text-align: center;"">₪79
                                                <br>40%</p>
                  <p id=""wtp"" style=""text-align:center; margin-top: 0px; margin-bottom: 0px; font-size: 40px"";>&ensp;</p>","-","viewing","0","30","9B","","","","","","","","","","","","","","","","",""
"","","","","","html-slider-response","193","483122","0.0-21.0-1.26","137f554f-99e4-4c27-b34c-a0d66681d6d0","3411","
                  <p style=""text-align: center;"">₪79
                                                <br>40%</p>
                  <p id=""wtp"" style=""text-align:center; margin-top: 0px; margin-bottom: 0px; font-size: 40px"";>מוכנים לשלם: <span id=""c_p_y""></span></p>","31","evaluation","30","30","9B","40","79","31","","","","","","","","","","","","","",""
"","","","","","html-keyboard-response","194","483892","0.0-21.0-2.26","137f554f-99e4-4c27-b34c-a0d66681d6d0","null","<p style=""text-align: center;"">+</p>","null","fixation","","","","","","","","","","","","","","","","","","","",""
"","","","","","html-slider-response","195","484901","0.0-21.0-0.27","137f554f-99e4-4c27-b34c-a0d66681d6d0","1000","
                  <p style=""text-align: center;"">₪11
                                                <br>75%</p>
                  <p id=""wtp"" style=""text-align:center; margin-top: 0px; margin-bottom: 0px; font-size: 40px"";>&ensp;</p>","-","viewing","0","7","6B,18B,22C,24C,29A","","","","","","","","","","","","","","","","",""
"","","","","","html-slider-response","196","488903","0.0-21.0-1.27","137f554f-99e4-4c27-b34c-a0d66681d6d0","null","
                  <p style=""text-align: center;"">₪11
                                                <br>75%</p>
                  <p id=""wtp"" style=""text-align:center; margin-top: 0px; margin-bottom: 0px; font-size: 40px"";>מוכנים לשלם: <span id=""c_p_y""></span></p>","null","evaluation","65","7","6B,18B,22C,24C,29A","75","11","2","","","","","","","","","","","","","",""
"","","","","","html-keyboard-response","197","489997","0.0-21.0-2.27","137f554f-99e4-4c27-b34c-a0d66681d6d0","null","<p style=""text-align: center;"">+</p>","null","fixation","","","","","","","","","","","","","","","","","","","",""
"","","","","","html-slider-response","198","491007","0.0-21.0-0.28","137f554f-99e4-4c27-b34c-a0d66681d6d0","1000","
                  <p style=""text-align: center;"">₪71
                                                <br>55%</p>
                  <p id=""wtp"" style=""text-align:center; margin-top: 0px; margin-bottom: 0px; font-size: 40px"";>&ensp;</p>","-","viewing","0","27","5B,18A","","","","","","","","","","","","","","","","",""
"","","","","","html-slider-response","199","493291","0.0-21.0-1.28","137f554f-99e4-4c27-b34c-a0d66681d6d0","2282","
                  <p style=""text-align: center;"">₪71
                                                <br>55%</p>
                  <p id=""wtp"" style=""text-align:center; margin-top: 0px; margin-bottom: 0px; font-size: 40px"";>מוכנים לשלם: <span id=""c_p_y""></span></p>","21","evaluation","38","27","5B,18A","55","71","22","","","","","","","","","","","","","",""
"","","","","","html-keyboard-response","200","494167","0.0-21.0-2.28","137f554f-99e4-4c27-b34c-a0d66681d6d0","null","<p style=""text-align: center;"">+</p>","null","fixation","","","","","","","","","","","","","","","","","","","",""
"","","","","","html-slider-response","201","495172","0.0-21.0-0.29","137f554f-99e4-4c27-b34c-a0d66681d6d0","1000","
                  <p style=""text-align: center;"">₪36
                                                <br>30%</p>
                  <p id=""wtp"" style=""text-align:center; margin-top: 0px; margin-bottom: 0px; font-size: 40px"";>&ensp;</p>","-","viewing","0","11","3C,20A,22A","","","","","","","","","","","","","","","","",""
"","","","","","html-slider-response","202","498322","0.0-21.0-1.29","137f554f-99e4-4c27-b34c-a0d66681d6d0","3149","
                  <p style=""text-align: center;"">₪36
                                                <br>30%</p>
                  <p id=""wtp"" style=""text-align:center; margin-top: 0px; margin-bottom: 0px; font-size: 40px"";>מוכנים לשלם: <span id=""c_p_y""></span></p>","10","evaluation","52","11","3C,20A,22A","30","36","10","","","","","","","","","","","","","",""
"","","","","","html-keyboard-response","203","499363","0.0-21.0-2.29","137f554f-99e4-4c27-b34c-a0d66681d6d0","null","<p style=""text-align: center;"">+</p>","null","fixation","","","","","","","","","","","","","","","","","","","",""
"","","","","","html-slider-response","204","500365","0.0-21.0-0.30","137f554f-99e4-4c27-b34c-a0d66681d6d0","1000","
                  <p style=""text-align: center;"">₪58
                                                <br>40%</p>
                  <p id=""wtp"" style=""text-align:center; margin-top: 0px; margin-bottom: 0px; font-size: 40px"";>&ensp;</p>","-","viewing","0","20","10C,13A,19C,21B","","","","","","","","","","","","","","","","",""
"","","","","","html-slider-response","205","503859","0.0-21.0-1.30","137f554f-99e4-4c27-b34c-a0d66681d6d0","3492","
                  <p style=""text-align: center;"">₪58
                                                <br>40%</p>
                  <p id=""wtp"" style=""text-align:center; margin-top: 0px; margin-bottom: 0px; font-size: 40px"";>מוכנים לשלם: <span id=""c_p_y""></span></p>","24","evaluation","68","20","10C,13A,19C,21B","40","58","25","","","","","","","","","","","","","",""
"","","","","","html-keyboard-response","206","505104","0.0-21.0-2.30","137f554f-99e4-4c27-b34c-a0d66681d6d0","null","<p style=""text-align: center;"">+</p>","null","fixation","","","","","","","","","","","","","","","","","","","",""
"","","","","","html-keyboard-response","207","506120","0.0-22.0","137f554f-99e4-4c27-b34c-a0d66681d6d0","null","<p style=""text-align: center;"">+</p>","null","fixation","","","","","","","","","","","","","","","","","","","",""
"","","","","","html-keyboard-response","208","507522","0.0-23.0","137f554f-99e4-4c27-b34c-a0d66681d6d0","null","<p>הפסקה.
          <br>לחצו כדי להמשיך.</p>","1","scan_wait","","","","","","","","","","","","","","","","","","","",""
"","","","","","html-keyboard-response","209","508525","0.0-24.0","137f554f-99e4-4c27-b34c-a0d66681d6d0","null","<p style=""text-align: center;"">+</p>","null","fixation","","","","","","","","","","","","","","","","","","","",""
"","","","","","html-slider-response","210","509540","0.0-25.0-0.0","137f554f-99e4-4c27-b34c-a0d66681d6d0","1000","
                  <p style=""text-align: center;"">₪71
                                                <br>55%</p>
                  <p id=""wtp"" style=""text-align:center; margin-top: 0px; margin-bottom: 0px; font-size: 40px"";>&ensp;</p>","-","viewing","0","27","5B,18A","","","","","","","","","","","","","","","","",""
"","","","","","html-slider-response","211","511787","0.0-25.0-1.0","137f554f-99e4-4c27-b34c-a0d66681d6d0","2245","
                  <p style=""text-align: center;"">₪71
                                                <br>55%</p>
                  <p id=""wtp"" style=""text-align:center; margin-top: 0px; margin-bottom: 0px; font-size: 40px"";>מוכנים לשלם: <span id=""c_p_y""></span></p>","25","evaluation","49","27","5B,18A","55","71","26","","","","","","","","","","","","","",""
"","","","","","html-keyboard-response","212","512894","0.0-25.0-2.0","137f554f-99e4-4c27-b34c-a0d66681d6d0","null","<p style=""text-align: center;"">+</p>","null","fixation","","","","","","","","","","","","","","","","","","","",""
"","","","","","html-slider-response","213","513897","0.0-25.0-0.1","137f554f-99e4-4c27-b34c-a0d66681d6d0","1000","
                  <p style=""text-align: center;"">₪4
                                                <br>25%</p>
                  <p id=""wtp"" style=""text-align:center; margin-top: 0px; margin-bottom: 0px; font-size: 40px"";>&ensp;</p>","-","viewing","0","1","6C,29B,30C","","","","","","","","","","","","","","","","",""
"","","","","","html-slider-response","214","515186","0.0-25.0-1.1","137f554f-99e4-4c27-b34c-a0d66681d6d0","1288","
                  <p style=""text-align: center;"">₪4
                                                <br>25%</p>
                  <p id=""wtp"" style=""text-align:center; margin-top: 0px; margin-bottom: 0px; font-size: 40px"";>מוכנים לשלם: <span id=""c_p_y""></span></p>","0","evaluation","5","1","6C,29B,30C","25","4","0","","","","","","","","","","","","","",""
"","","","","","html-keyboard-response","215","516464","0.0-25.0-2.1","137f554f-99e4-4c27-b34c-a0d66681d6d0","null","<p style=""text-align: center;"">+</p>","null","fixation","","","","","","","","","","","","","","","","","","","",""
"","","","","","html-slider-response","216","517474","0.0-25.0-0.2","137f554f-99e4-4c27-b34c-a0d66681d6d0","1000","
                  <p style=""text-align: center;"">₪58
                                                <br>40%</p>
                  <p id=""wtp"" style=""text-align:center; margin-top: 0px; margin-bottom: 0px; font-size: 40px"";>&ensp;</p>","-","viewing","0","20","10C,13A,19C,21B","","","","","","","","","","","","","","","","",""
"","","","","","html-slider-response","217","521475","0.0-25.0-1.2","137f554f-99e4-4c27-b34c-a0d66681d6d0","null","
                  <p style=""text-align: center;"">₪58
                                                <br>40%</p>
                  <p id=""wtp"" style=""text-align:center; margin-top: 0px; margin-bottom: 0px; font-size: 40px"";>מוכנים לשלם: <span id=""c_p_y""></span></p>","null","evaluation","76","20","10C,13A,19C,21B","40","58","17","","","","","","","","","","","","","",""
"","","","","","html-keyboard-response","218","522967","0.0-25.0-2.2","137f554f-99e4-4c27-b34c-a0d66681d6d0","null","<p style=""text-align: center;"">+</p>","null","fixation","","","","","","","","","","","","","","","","","","","",""
"","","","","","html-slider-response","219","523971","0.0-25.0-0.3","137f554f-99e4-4c27-b34c-a0d66681d6d0","1000","
                  <p style=""text-align: center;"">₪39
                                                <br>65%</p>
                  <p id=""wtp"" style=""text-align:center; margin-top: 0px; margin-bottom: 0px; font-size: 40px"";>&ensp;</p>","-","viewing","0","16","1A,15A,26C","","","","","","","","","","","","","","","","",""
"","","","","","html-slider-response","220","526827","0.0-25.0-1.3","137f554f-99e4-4c27-b34c-a0d66681d6d0","2854","
                  <p style=""text-align: center;"">₪39
                                                <br>65%</p>
                  <p id=""wtp"" style=""text-align:center; margin-top: 0px; margin-bottom: 0px; font-size: 40px"";>מוכנים לשלם: <span id=""c_p_y""></span></p>","19","evaluation","5","16","1A,15A,26C","65","39","19","","","","","","","","","","","","","",""
"","","","","","html-keyboard-response","221","527732","0.0-25.0-2.3","137f554f-99e4-4c27-b34c-a0d66681d6d0","null","<p style=""text-align: center;"">+</p>","null","fixation","","","","","","","","","","","","","","","","","","","",""
"","","","","","html-slider-response","222","528741","0.0-25.0-0.4","137f554f-99e4-4c27-b34c-a0d66681d6d0","1000","
                  <p style=""text-align: center;"">₪79
                                                <br>65%</p>
                  <p id=""wtp"" style=""text-align:center; margin-top: 0px; margin-bottom: 0px; font-size: 40px"";>&ensp;</p>","-","viewing","0","31","8A","","","","","","","","","","","","","","","","",""
"","","","","","html-slider-response","223","531419","0.0-25.0-1.4","137f554f-99e4-4c27-b34c-a0d66681d6d0","2676","
                  <p style=""text-align: center;"">₪79
                                                <br>65%</p>
                  <p id=""wtp"" style=""text-align:center; margin-top: 0px; margin-bottom: 0px; font-size: 40px"";>מוכנים לשלם: <span id=""c_p_y""></span></p>","46","evaluation","5","31","8A","65","79","46","","","","","","","","","","","","","",""
"","","","","","html-keyboard-response","224","532035","0.0-25.0-2.4","137f554f-99e4-4c27-b34c-a0d66681d6d0","null","<p style=""text-align: center;"">+</p>","null","fixation","","","","","","","","","","","","","","","","","","","",""
"","","","","","html-slider-response","225","533038","0.0-25.0-0.5","137f554f-99e4-4c27-b34c-a0d66681d6d0","1000","
                  <p style=""text-align: center;"">₪79
                                                <br>40%</p>
                  <p id=""wtp"" style=""text-align:center; margin-top: 0px; margin-bottom: 0px; font-size: 40px"";>&ensp;</p>","-","viewing","0","30","9B","","","","","","","","","","","","","","","","",""
"","","","","","html-slider-response","226","534731","0.0-25.0-1.5","137f554f-99e4-4c27-b34c-a0d66681d6d0","1692","
                  <p style=""text-align: center;"">₪79
                                                <br>40%</p>
                  <p id=""wtp"" style=""text-align:center; margin-top: 0px; margin-bottom: 0px; font-size: 40px"";>מוכנים לשלם: <span id=""c_p_y""></span></p>","27","evaluation","62","30","9B","40","79","27","","","","","","","","","","","","","",""
"","","","","","html-keyboard-response","227","535988","0.0-25.0-2.5","137f554f-99e4-4c27-b34c-a0d66681d6d0","null","<p style=""text-align: center;"">+</p>","null","fixation","","","","","","","","","","","","","","","","","","","",""
"","","","","","html-slider-response","228","536991","0.0-25.0-0.6","137f554f-99e4-4c27-b34c-a0d66681d6d0","1000","
                  <p style=""text-align: center;"">₪4
                                                <br>50%</p>
                  <p id=""wtp"" style=""text-align:center; margin-top: 0px; margin-bottom: 0px; font-size: 40px"";>&ensp;</p>","-","viewing","0","2","4C,17B","","","","","","","","","","","","","","","","",""
"","","","","","html-slider-response","229","539739","0.0-25.0-1.6","137f554f-99e4-4c27-b34c-a0d66681d6d0","2746","
                  <p style=""text-align: center;"">₪4
                                                <br>50%</p>
                  <p id=""wtp"" style=""text-align:center; margin-top: 0px; margin-bottom: 0px; font-size: 40px"";>מוכנים לשלם: <span id=""c_p_y""></span></p>","0","evaluation","74","2","4C,17B","50","4","1","","","","","","","","","","","","","",""
"","","","","","html-keyboard-response","230","540427","0.0-25.0-2.6","137f554f-99e4-4c27-b34c-a0d66681d6d0","null","<p style=""text-align: center;"">+</p>","null","fixation","","","","","","","","","","","","","","","","","","","",""
"","","","","","html-slider-response","231","541437","0.0-25.0-0.7","137f554f-99e4-4c27-b34c-a0d66681d6d0","1000","
                  <p style=""text-align: center;"">₪71
                                                <br>45%</p>
                  <p id=""wtp"" style=""text-align:center; margin-top: 0px; margin-bottom: 0px; font-size: 40px"";>&ensp;</p>","-","viewing","0","26","2B,16A","","","","","","","","","","","","","","","","",""
"","","","","","html-slider-response","232","544595","0.0-25.0-1.7","137f554f-99e4-4c27-b34c-a0d66681d6d0","3156","
                  <p style=""text-align: center;"">₪71
                                                <br>45%</p>
                  <p id=""wtp"" style=""text-align:center; margin-top: 0px; margin-bottom: 0px; font-size: 40px"";>מוכנים לשלם: <span id=""c_p_y""></span></p>","27","evaluation","38","26","2B,16A","45","71","27","","","","","","","","","","","","","",""
"","","","","","html-keyboard-response","233","545248","0.0-25.0-2.7","137f554f-99e4-4c27-b34c-a0d66681d6d0","null","<p style=""text-align: center;"">+</p>","null","fixation","","","","","","","","","","","","","","","","","","","",""
"","","","","","html-slider-response","234","546260","0.0-25.0-0.8","137f554f-99e4-4c27-b34c-a0d66681d6d0","1000","
                  <p style=""text-align: center;"">₪36
                                                <br>30%</p>
                  <p id=""wtp"" style=""text-align:center; margin-top: 0px; margin-bottom: 0px; font-size: 40px"";>&ensp;</p>","-","viewing","0","11","3C,20A,22A","","","","","","","","","","","","","","","","",""
"","","","","","html-slider-response","235","549531","0.0-25.0-1.8","137f554f-99e4-4c27-b34c-a0d66681d6d0","3269","
                  <p style=""text-align: center;"">₪36
                                                <br>30%</p>
                  <p id=""wtp"" style=""text-align:center; margin-top: 0px; margin-bottom: 0px; font-size: 40px"";>מוכנים לשלם: <span id=""c_p_y""></span></p>","10","evaluation","14","11","3C,20A,22A","30","36","11","","","","","","","","","","","","","",""
"","","","","","html-keyboard-response","236","550209","0.0-25.0-2.8","137f554f-99e4-4c27-b34c-a0d66681d6d0","null","<p style=""text-align: center;"">+</p>","null","fixation","","","","","","","","","","","","","","","","","","","",""
"","","","","","html-slider-response","237","551217","0.0-25.0-0.9","137f554f-99e4-4c27-b34c-a0d66681d6d0","1000","
                  <p style=""text-align: center;"">₪61
                                                <br>45%</p>
                  <p id=""wtp"" style=""text-align:center; margin-top: 0px; margin-bottom: 0px; font-size: 40px"";>&ensp;</p>","-","viewing","0","22","10A,11A","","","","","","","","","","","","","","","","",""
"","","","","","html-slider-response","238","555233","0.0-25.0-1.9","137f554f-99e4-4c27-b34c-a0d66681d6d0","null","
                  <p style=""text-align: center;"">₪61
                                                <br>45%</p>
                  <p id=""wtp"" style=""text-align:center; margin-top: 0px; margin-bottom: 0px; font-size: 40px"";>מוכנים לשלם: <span id=""c_p_y""></span></p>","null","evaluation","34","22","10A,11A","45","61","24","","","","","","","","","","","","","",""
"","","","","","html-keyboard-response","239","556590","0.0-25.0-2.9","137f554f-99e4-4c27-b34c-a0d66681d6d0","null","<p style=""text-align: center;"">+</p>","null","fixation","","","","","","","","","","","","","","","","","","","",""
"","","","","","html-slider-response","240","557592","0.0-25.0-0.10","137f554f-99e4-4c27-b34c-a0d66681d6d0","1000","
                  <p style=""text-align: center;"">₪36
                                                <br>60%</p>
                  <p id=""wtp"" style=""text-align:center; margin-top: 0px; margin-bottom: 0px; font-size: 40px"";>&ensp;</p>","-","viewing","0","12","1C,7C,15C","","","","","","","","","","","","","","","","",""
"","","","","","html-slider-response","241","560725","0.0-25.0-1.10","137f554f-99e4-4c27-b34c-a0d66681d6d0","3132","
                  <p style=""text-align: center;"">₪36
                                                <br>60%</p>
                  <p id=""wtp"" style=""text-align:center; margin-top: 0px; margin-bottom: 0px; font-size: 40px"";>מוכנים לשלם: <span id=""c_p_y""></span></p>","15","evaluation","38","12","1C,7C,15C","60","36","15","","","","","","","","","","","","","",""
"","","","","","html-keyboard-response","242","562052","0.0-25.0-2.10","137f554f-99e4-4c27-b34c-a0d66681d6d0","null","<p style=""text-align: center;"">+</p>","null","fixation","","","","","","","","","","","","","","","","","","","",""
"","","","","","html-slider-response","243","563055","0.0-25.0-0.11","137f554f-99e4-4c27-b34c-a0d66681d6d0","1000","
                  <p style=""text-align: center;"">₪16
                                                <br>20%</p>
                  <p id=""wtp"" style=""text-align:center; margin-top: 0px; margin-bottom: 0px; font-size: 40px"";>&ensp;</p>","-","viewing","0","8","14C,17A,20C,27A","","","","","","","","","","","","","","","","",""
"","","","","","html-slider-response","244","564667","0.0-25.0-1.11","137f554f-99e4-4c27-b34c-a0d66681d6d0","1611","
                  <p style=""text-align: center;"">₪16
                                                <br>20%</p>
                  <p id=""wtp"" style=""text-align:center; margin-top: 0px; margin-bottom: 0px; font-size: 40px"";>מוכנים לשלם: <span id=""c_p_y""></span></p>","3","evaluation","27","8","14C,17A,20C,27A","20","16","3","","","","","","","","","","","","","",""
"","","","","","html-keyboard-response","245","566097","0.0-25.0-2.11","137f554f-99e4-4c27-b34c-a0d66681d6d0","null","<p style=""text-align: center;"">+</p>","null","fixation","","","","","","","","","","","","","","","","","","","",""
"","","","","","html-slider-response","246","567108","0.0-25.0-0.12","137f554f-99e4-4c27-b34c-a0d66681d6d0","1000","
                  <p style=""text-align: center;"">₪58
                                                <br>45%</p>
                  <p id=""wtp"" style=""text-align:center; margin-top: 0px; margin-bottom: 0px; font-size: 40px"";>&ensp;</p>","-","viewing","0","21","11C,18C,25A","","","","","","","","","","","","","","","","",""
"","","","","","html-slider-response","247","569595","0.0-25.0-1.12","137f554f-99e4-4c27-b34c-a0d66681d6d0","2486","
                  <p style=""text-align: center;"">₪58
                                                <br>45%</p>
                  <p id=""wtp"" style=""text-align:center; margin-top: 0px; margin-bottom: 0px; font-size: 40px"";>מוכנים לשלם: <span id=""c_p_y""></span></p>","20","evaluation","10","21","11C,18C,25A","45","58","20","","","","","","","","","","","","","",""
"","","","","","html-keyboard-response","248","570663","0.0-25.0-2.12","137f554f-99e4-4c27-b34c-a0d66681d6d0","null","<p style=""text-align: center;"">+</p>","null","fixation","","","","","","","","","","","","","","","","","","","",""
"","","","","","html-slider-response","249","571675","0.0-25.0-0.13","137f554f-99e4-4c27-b34c-a0d66681d6d0","1000","
                  <p style=""text-align: center;"">₪43
                                                <br>75%</p>
                  <p id=""wtp"" style=""text-align:center; margin-top: 0px; margin-bottom: 0px; font-size: 40px"";>&ensp;</p>","-","viewing","0","18","11B,19B,24A,26A","","","","","","","","","","","","","","","","",""
"","","","","","html-slider-response","250","574723","0.0-25.0-1.13","137f554f-99e4-4c27-b34c-a0d66681d6d0","3047","
                  <p style=""text-align: center;"">₪43
                                                <br>75%</p>
                  <p id=""wtp"" style=""text-align:center; margin-top: 0px; margin-bottom: 0px; font-size: 40px"";>מוכנים לשלם: <span id=""c_p_y""></span></p>","29","evaluation","77","18","11B,19B,24A,26A","75","43","29","","","","","","","","","","","","","",""
"","","","","","html-keyboard-response","251","575457","0.0-25.0-2.13","137f554f-99e4-4c27-b34c-a0d66681d6d0","null","<p style=""text-align: center;"">+</p>","null","fixation","","","","","","","","","","","","","","","","","","","",""
"","","","","","html-slider-response","252","576466","0.0-25.0-0.14","137f554f-99e4-4c27-b34c-a0d66681d6d0","1000","
                  <p style=""text-align: center;"">₪11
                                                <br>75%</p>
                  <p id=""wtp"" style=""text-align:center; margin-top: 0px; margin-bottom: 0px; font-size: 40px"";>&ensp;</p>","-","viewing","0","7","6B,18B,22C,24C,29A","","","","","","","","","","","","","","","","",""
"","","","","","html-slider-response","253","580267","0.0-25.0-1.14","137f554f-99e4-4c27-b34c-a0d66681d6d0","3799","
                  <p style=""text-align: center;"">₪11
                                                <br>75%</p>
                  <p id=""wtp"" style=""text-align:center; margin-top: 0px; margin-bottom: 0px; font-size: 40px"";>מוכנים לשלם: <span id=""c_p_y""></span></p>","7","evaluation","44","7","6B,18B,22C,24C,29A","75","11","7","","","","","","","","","","","","","",""
"","","","","","html-keyboard-response","254","580889","0.0-25.0-2.14","137f554f-99e4-4c27-b34c-a0d66681d6d0","null","<p style=""text-align: center;"">+</p>","null","fixation","","","","","","","","","","","","","","","","","","","",""
