"success","timeout","failed_images","failed_audio","failed_video","trial_type","trial_index","time_elapsed","internal_node_id","subject_id","rt","stimulus","response","part","slider_start","ID","set_ID","prob","amount","last_location","actual_choice","actual_EV","binary_id","trinary_id","catch","direction","A_key","S_key","D_key","choice_prob","choice_amount","chosen_part","potential_prize_prob","potential_prize_amount","won_prize","total_prize","prize_cost","remaining_budget","accuracy"
"true","false","[]","[]","[]","preload","0","188","0.0-0.0","f0c1d36b-8865-48bb-84c6-e0a67079d0c1","","","","","","","","","","","","","","","","","","","","","","","","","","","","",""
"","","","","","html-keyboard-response","1","84295","0.0-1.0","f0c1d36b-8865-48bb-84c6-e0a67079d0c1","84108","
          <h1>שלום וברוכים הבאים!</h1>
          <p>לפניכם ניסוי בקבלת החלטות עם שני חלקים.
          <br><br>לחצו על העכבר כדי להמשיך.</p>","0","example","","","","","","","","","","","","","","","","","","","","","","","","",""
"","","","","","html-keyboard-response","2","932526","0.0-2.0","f0c1d36b-8865-48bb-84c6-e0a67079d0c1","null","
        <h1>חלק 1</h1>
        <p>בקרוב יוצגו בפניכם הגרלות.
        <br>עליכם לבחור את המחיר המירבי שתהיו מוכנים לשלם כדי להשתתף בהגרלה שתוצג.
        <br>יש לכם תקציב של ₪80 לכל הגרלה. 
        <br>נסו להעריך כל הגרלה בנפרד ולחשוב כמה היא שווה עבורכם, ₪80 זמינים לכל הגרלה בנפרד.
        <br><br>לחצו על העכבר כדי להמשיך.</p>","1","instructions","","","","","","","","","","","","","","","","","","","","","","","","",""
"","","","","","html-keyboard-response","3","947990","0.0-3.0","f0c1d36b-8865-48bb-84c6-e0a67079d0c1","null","
        <p>בסוף הניסוי, המחשב יבחר את אחת ההגרלות ויקבע מחיר לכרטיס עבורה. 
        <br>במידה והמחיר שבחרתם נמוך מהמחיר שנבחר על ידי המחשב, לא תשתתפו בהגרלה ותשארו עם מלוא התקציב.
        <br>במידה והמחיר שבחרתם גבוה מהמחיר שנבחר על ידי המחשב, תשלמו את המחיר שנקבע ותשתתפו בהגרלה.
        <br><br>לחצו על העכבר כדי להמשיך.</p>","1","instructions","","","","","","","","","","","","","","","","","","","","","","","","",""
"","","","","","html-slider-response","4","1032367","0.0-4.0","f0c1d36b-8865-48bb-84c6-e0a67079d0c1","84270","
        <p style=""font-size: 42px;"">נתחיל עם דוגמא: 
        <br>ההגרלה מטה מציעה 65% סיכוי לזכות ב-₪40 
        <br>&emsp;&emsp;&emsp;&emsp;&emsp;&emsp;&emsp;&emsp;&ensp;35% סיכוי לזכות ב-₪0.
        <br><br>מה המחיר המירבי שתהיו מוכנים לשלם על כרטיס להגרלה זו בין 0 ל-₪80?
        <br>הזיזו את העכבר על פני המלבן ולחצו כדי לבצע בחירה.</p>
        
        <p style=""text-align: center;"">₪40<br>65%</p>

        <p id=""wtp"" style=""text-align:center; margin-top: 0px; margin-bottom: 0px; font-size: 40px"";>מוכנים לשלם: <span id=""c_p_y""></span></p>","15","example","18","","","","","","","","","","","","","","","","","","","","","","","",""
"","","","","","html-keyboard-response","5","1039206","0.0-5.0","f0c1d36b-8865-48bb-84c6-e0a67079d0c1","null","<p>יפה מאוד!
                <br> בחרתם שתהיו מוכנים לשלם ₪15 כדי להשתתף בהגרלה:
                <br><p style=""text-align: center;"">₪40<br>65%</p>
                <p>נשמע נכון?
                <br>נניח שהגרלה זו נבחרה בסוף הניסוי.
                <br>כעת המחשב יקבע מחיר עבורה באקראי.
                <br>לחצו על העכבר להמשך.</p>","1","example","","","","","","","","","","","","","","","","","","","","","","","","",""
"","","","","","html-keyboard-response","6","1044014","0.0-6.0","f0c1d36b-8865-48bb-84c6-e0a67079d0c1","null","<p>המחשב קבע מחיר: ₪27
                <br>ואתם בחרתם לשלם לכל היותר: ₪15
                <br><br>מכיוון שהמחיר שבחרתם נמוך מהמחיר שנקבע, לא תתשתתפו בהגרלה.
                <br>במקרה כזה, בסוף הניסוי תקבלו את כל התקציב ההתחלתי של ₪80.
                <br><br>לחצו על העכבר להמשך.</p>","1","example","","","","","","","","","","","","","","","","","","","","","","","","",""
"","","","","","html-slider-response","7","1052566","0.0-7.0","f0c1d36b-8865-48bb-84c6-e0a67079d0c1","8297","<p style=""font-size: 42px;"">הנה עוד דוגמא:
                <br>ההגרלה מטה מציעה 35% סיכוי לזכות ב-₪18 
                <br>&emsp;&emsp;&emsp;&emsp;&emsp;&emsp;&emsp;&emsp;&ensp;65% סיכוי לזכות ב-₪0.</p>
        
                <p style=""text-align: center;"">₪18<br>35%</p>
                <p id=""wtp"" style=""text-align:center; margin-top: 0px; margin-bottom: 0px; font-size: 40px"";>מוכנים לשלם: <span id=""c_p_y""></span></p>","5","example","30","","","","","","","","","","","","","","","","","","","","","","","",""
"","","","","","html-keyboard-response","8","1054774","0.0-8.0","f0c1d36b-8865-48bb-84c6-e0a67079d0c1","null","<p>הייתם מוכנים לשלם  ₪5 כדי להשתתף בהגרלה:
                <p style=""text-align: center;"">₪18<br>35%</p>
                <p>כעת נניח שהמחשב בחר את ההגרלה הזו בסוף הניסוי, וקבע עבורה מחיר.
                <br><br>לחצו על העכבר כדי להמשיך.</p>","1","instructions","","","","","","","","","","","","","","","","","","","","","","","","",""
"","","","","","html-keyboard-response","9","1077382","0.0-9.0","f0c1d36b-8865-48bb-84c6-e0a67079d0c1","null","<p>המחשב קבע מחיר להגרלה: ₪3<br>ואתם בחרתם לשלם לכל היותר: ₪5
                <br><br>כעת המחיר שנקבע נמוך מזה שבחרתם, אז תשלמו את המחיר שקבע המחשב (₪3) ותשתתפו בהגרלה.
                <br>במקרה כזה, תסיימו את הניסוי עם תקציב של ₪77 ועם סיכוי לזכות ב-₪18 נוספים מההגרלה.
                <br>כלומר, תוכלו לקבל ₪77 אם לא תזכו בהגרלה, או ₪95 אם תזכו בהגרלה.
                <br><br>לחצו על העכבר להמשך.</p>","1","example","","","","","","","","","","","","","","","","","","","","","","","","",""
"","","","","","html-keyboard-response","10","1091742","0.0-10.0","f0c1d36b-8865-48bb-84c6-e0a67079d0c1","null","<p>במהלך הניסוי, קודם תראו את ההגרלה ורק לאחר מכן תוכלו לבחור.
                <p>כמו כן, יהיו לכם מספר שניות מוגבל להגיב.
                <p>בואו ננסה זאת עם ההגרלה הקודמת.
                <br>לחצו על העכבר כדי להמשיך.</p>","1","instructions","","","","","","","","","","","","","","","","","","","","","","","","",""
"","","","","","html-slider-response","11","1092999","0.0-11.0","f0c1d36b-8865-48bb-84c6-e0a67079d0c1","1000","
                    <p style=""text-align: center;"">₪18<br>35%</p>
                    <p id=""wtp"" style=""text-align:center; margin-top: 0px; margin-bottom: 0px; font-size: 40px"";>&ensp;</p>","41","instructions","0","","","","","","","","","","","","","","","","","","","","","","","",""
"","","","","","html-slider-response","12","1094855","0.0-12.0","f0c1d36b-8865-48bb-84c6-e0a67079d0c1","1603","
                    <p style=""text-align: center;"">₪18<br>35%</p>
                    <p id=""wtp"" style=""text-align:center; margin-top: 0px; margin-bottom: 0px; font-size: 40px"";>מוכנים לשלם: <span id=""c_p_y""></span></p>","12","instructions","31","","","","","","","","","","","","","","","","","","","","","","","",""
"","","","","","html-keyboard-response","13","1097246","0.0-13.0","f0c1d36b-8865-48bb-84c6-e0a67079d0c1","null","<p>יפה. הפעם בחרתם לשלם לכל היותר ₪12.
                <br><br>לחצו על העכבר כדי להמשיך.</p>","1","instructions","","","","","","","","","","","","","","","","","","","","","","","","",""
"","","","","","html-keyboard-response","14","1108070","0.0-15.0","f0c1d36b-8865-48bb-84c6-e0a67079d0c1","null","<p>כעת נתחיל את הניסוי.
                <br><br>אתם תראו הגרלות ותתבקשו לבחור כמה תהיו מוכנים לשלם כדי להשתתף בהן.
                <br>יש לכם תקציב של ₪80 עבור כל הגרלה.
                <br>בסוף הניסוי הגרלה אחת תבחר באקראי ותשוחק.
                <br><br>לחצו על העכבר כדי להתחיל את הניסוי.</p>","1","instructions","","","","","","","","","","","","","","","","","","","","","","","","",""
"","","","","","html-keyboard-response","15","1109323","0.0-16.0","f0c1d36b-8865-48bb-84c6-e0a67079d0c1","null","<p style=""text-align: center;"">+</p>","null","fixation","","","","","","","","","","","","","","","","","","","","","","","","",""
"","","","","","html-slider-response","16","1110328","0.0-17.0-0.0","f0c1d36b-8865-48bb-84c6-e0a67079d0c1","1000","
                  <p style=""text-align: center;"">₪76
                                                <br>65%</p>
                  <p id=""wtp"" style=""text-align:center; margin-top: 0px; margin-bottom: 0px; font-size: 40px"";>&ensp;</p>","-","viewing","0","29","8C,19A,24B","","","","","","","","","","","","","","","","","","","","","",""
"","","","","","html-slider-response","17","1114345","0.0-17.0-1.0","f0c1d36b-8865-48bb-84c6-e0a67079d0c1","null","
                  <p style=""text-align: center;"">₪76
                                                <br>65%</p>
                  <p id=""wtp"" style=""text-align:center; margin-top: 0px; margin-bottom: 0px; font-size: 40px"";>מוכנים לשלם: <span id=""c_p_y""></span></p>","null","evaluation","68","29","8C,19A,24B","65","76","40","","","","","","","","","","","","","","","","","","",""
"","","","","","html-keyboard-response","18","1115279","0.0-17.0-2.0","f0c1d36b-8865-48bb-84c6-e0a67079d0c1","null","<p style=""text-align: center;"">+</p>","null","fixation","","","","","","","","","","","","","","","","","","","","","","","","",""
"","","","","","html-slider-response","19","1116295","0.0-17.0-0.1","f0c1d36b-8865-48bb-84c6-e0a67079d0c1","1000","
                  <p style=""text-align: center;"">₪36
                                                <br>75%</p>
                  <p id=""wtp"" style=""text-align:center; margin-top: 0px; margin-bottom: 0px; font-size: 40px"";>&ensp;</p>","-","viewing","0","14","4B,5A,13B,16B","","","","","","","","","","","","","","","","","","","","","",""
"","","","","","html-slider-response","20","1118222","0.0-17.0-1.1","f0c1d36b-8865-48bb-84c6-e0a67079d0c1","1926","
                  <p style=""text-align: center;"">₪36
                                                <br>75%</p>
                  <p id=""wtp"" style=""text-align:center; margin-top: 0px; margin-bottom: 0px; font-size: 40px"";>מוכנים לשלם: <span id=""c_p_y""></span></p>","16","evaluation","68","14","4B,5A,13B,16B","75","36","17","","","","","","","","","","","","","","","","","","",""
"","","","","","html-keyboard-response","21","1119546","0.0-17.0-2.1","f0c1d36b-8865-48bb-84c6-e0a67079d0c1","null","<p style=""text-align: center;"">+</p>","null","fixation","","","","","","","","","","","","","","","","","","","","","","","","",""
"","","","","","html-slider-response","22","1120548","0.0-17.0-0.2","f0c1d36b-8865-48bb-84c6-e0a67079d0c1","1000","
                  <p style=""text-align: center;"">₪71
                                                <br>55%</p>
                  <p id=""wtp"" style=""text-align:center; margin-top: 0px; margin-bottom: 0px; font-size: 40px"";>&ensp;</p>","-","viewing","0","27","5B,18A","","","","","","","","","","","","","","","","","","","","","",""
"","","","","","html-slider-response","23","1121766","0.0-17.0-1.2","f0c1d36b-8865-48bb-84c6-e0a67079d0c1","1217","
                  <p style=""text-align: center;"">₪71
                                                <br>55%</p>
                  <p id=""wtp"" style=""text-align:center; margin-top: 0px; margin-bottom: 0px; font-size: 40px"";>מוכנים לשלם: <span id=""c_p_y""></span></p>","41","evaluation","56","27","5B,18A","55","71","41","","","","","","","","","","","","","","","","","","",""
"","","","","","html-keyboard-response","24","1122453","0.0-17.0-2.2","f0c1d36b-8865-48bb-84c6-e0a67079d0c1","null","<p style=""text-align: center;"">+</p>","null","fixation","","","","","","","","","","","","","","","","","","","","","","","","",""
"","","","","","html-slider-response","25","1123455","0.0-17.0-0.3","f0c1d36b-8865-48bb-84c6-e0a67079d0c1","1000","
                  <p style=""text-align: center;"">₪79
                                                <br>40%</p>
                  <p id=""wtp"" style=""text-align:center; margin-top: 0px; margin-bottom: 0px; font-size: 40px"";>&ensp;</p>","-","viewing","0","30","9B","","","","","","","","","","","","","","","","","","","","","",""
"","","","","","html-slider-response","26","1124598","0.0-17.0-1.3","f0c1d36b-8865-48bb-84c6-e0a67079d0c1","1142","
                  <p style=""text-align: center;"">₪79
                                                <br>40%</p>
                  <p id=""wtp"" style=""text-align:center; margin-top: 0px; margin-bottom: 0px; font-size: 40px"";>מוכנים לשלם: <span id=""c_p_y""></span></p>","25","evaluation","6","30","9B","40","79","25","","","","","","","","","","","","","","","","","","",""
"","","","","","html-keyboard-response","27","1125773","0.0-17.0-2.3","f0c1d36b-8865-48bb-84c6-e0a67079d0c1","null","<p style=""text-align: center;"">+</p>","null","fixation","","","","","","","","","","","","","","","","","","","","","","","","",""
"","","","","","html-slider-response","28","1126774","0.0-17.0-0.4","f0c1d36b-8865-48bb-84c6-e0a67079d0c1","1000","
                  <p style=""text-align: center;"">₪43
                                                <br>60%</p>
                  <p id=""wtp"" style=""text-align:center; margin-top: 0px; margin-bottom: 0px; font-size: 40px"";>&ensp;</p>","-","viewing","0","17","2A,7A,9A,15B","","","","","","","","","","","","","","","","","","","","","",""
"","","","","","html-slider-response","29","1128046","0.0-17.0-1.4","f0c1d36b-8865-48bb-84c6-e0a67079d0c1","1271","
                  <p style=""text-align: center;"">₪43
                                                <br>60%</p>
                  <p id=""wtp"" style=""text-align:center; margin-top: 0px; margin-bottom: 0px; font-size: 40px"";>מוכנים לשלם: <span id=""c_p_y""></span></p>","16","evaluation","33","17","2A,7A,9A,15B","60","43","17","","","","","","","","","","","","","","","","","","",""
"","","","","","html-keyboard-response","30","1128611","0.0-17.0-2.4","f0c1d36b-8865-48bb-84c6-e0a67079d0c1","null","<p style=""text-align: center;"">+</p>","null","fixation","","","","","","","","","","","","","","","","","","","","","","","","",""
"","","","","","html-slider-response","31","1129615","0.0-17.0-0.5","f0c1d36b-8865-48bb-84c6-e0a67079d0c1","1000","
                  <p style=""text-align: center;"">₪11
                                                <br>45%</p>
                  <p id=""wtp"" style=""text-align:center; margin-top: 0px; margin-bottom: 0px; font-size: 40px"";>&ensp;</p>","-","viewing","0","6","14B,21C,25C","","","","","","","","","","","","","","","","","","","","","",""
"","","","","","html-slider-response","32","1130870","0.0-17.0-1.5","f0c1d36b-8865-48bb-84c6-e0a67079d0c1","1254","
                  <p style=""text-align: center;"">₪11
                                                <br>45%</p>
                  <p id=""wtp"" style=""text-align:center; margin-top: 0px; margin-bottom: 0px; font-size: 40px"";>מוכנים לשלם: <span id=""c_p_y""></span></p>","0","evaluation","43","6","14B,21C,25C","45","11","0","","","","","","","","","","","","","","","","","","",""
"","","","","","html-keyboard-response","33","1131970","0.0-17.0-2.5","f0c1d36b-8865-48bb-84c6-e0a67079d0c1","null","<p style=""text-align: center;"">+</p>","null","fixation","","","","","","","","","","","","","","","","","","","","","","","","",""
"","","","","","html-slider-response","34","1132971","0.0-17.0-0.6","f0c1d36b-8865-48bb-84c6-e0a67079d0c1","1000","
                  <p style=""text-align: center;"">₪71
                                                <br>45%</p>
                  <p id=""wtp"" style=""text-align:center; margin-top: 0px; margin-bottom: 0px; font-size: 40px"";>&ensp;</p>","-","viewing","0","26","2B,16A","","","","","","","","","","","","","","","","","","","","","",""
"","","","","","html-slider-response","35","1134358","0.0-17.0-1.6","f0c1d36b-8865-48bb-84c6-e0a67079d0c1","1386","
                  <p style=""text-align: center;"">₪71
                                                <br>45%</p>
                  <p id=""wtp"" style=""text-align:center; margin-top: 0px; margin-bottom: 0px; font-size: 40px"";>מוכנים לשלם: <span id=""c_p_y""></span></p>","27","evaluation","74","26","2B,16A","45","71","27","","","","","","","","","","","","","","","","","","",""
"","","","","","html-keyboard-response","36","1135277","0.0-17.0-2.6","f0c1d36b-8865-48bb-84c6-e0a67079d0c1","null","<p style=""text-align: center;"">+</p>","null","fixation","","","","","","","","","","","","","","","","","","","","","","","","",""
"","","","","","html-slider-response","37","1136285","0.0-17.0-0.7","f0c1d36b-8865-48bb-84c6-e0a67079d0c1","1000","
                  <p style=""text-align: center;"">₪61
                                                <br>55%</p>
                  <p id=""wtp"" style=""text-align:center; margin-top: 0px; margin-bottom: 0px; font-size: 40px"";>&ensp;</p>","-","viewing","0","23","7B,26B","","","","","","","","","","","","","","","","","","","","","",""
"","","","","","html-slider-response","38","1137798","0.0-17.0-1.7","f0c1d36b-8865-48bb-84c6-e0a67079d0c1","1512","
                  <p style=""text-align: center;"">₪61
                                                <br>55%</p>
                  <p id=""wtp"" style=""text-align:center; margin-top: 0px; margin-bottom: 0px; font-size: 40px"";>מוכנים לשלם: <span id=""c_p_y""></span></p>","12","evaluation","28","23","7B,26B","55","61","12","","","","","","","","","","","","","","","","","","",""
"","","","","","html-keyboard-response","39","1138718","0.0-17.0-2.7","f0c1d36b-8865-48bb-84c6-e0a67079d0c1","null","<p style=""text-align: center;"">+</p>","null","fixation","","","","","","","","","","","","","","","","","","","","","","","","",""
"","","","","","html-slider-response","40","1139721","0.0-17.0-0.8","f0c1d36b-8865-48bb-84c6-e0a67079d0c1","1000","
                  <p style=""text-align: center;"">₪4
                                                <br>25%</p>
                  <p id=""wtp"" style=""text-align:center; margin-top: 0px; margin-bottom: 0px; font-size: 40px"";>&ensp;</p>","-","viewing","0","1","6C,29B,30C","","","","","","","","","","","","","","","","","","","","","",""
"","","","","","html-slider-response","41","1140518","0.0-17.0-1.8","f0c1d36b-8865-48bb-84c6-e0a67079d0c1","796","
                  <p style=""text-align: center;"">₪4
                                                <br>25%</p>
                  <p id=""wtp"" style=""text-align:center; margin-top: 0px; margin-bottom: 0px; font-size: 40px"";>מוכנים לשלם: <span id=""c_p_y""></span></p>","0","evaluation","72","1","6C,29B,30C","25","4","0","","","","","","","","","","","","","","","","","","",""
"","","","","","html-keyboard-response","42","1141071","0.0-17.0-2.8","f0c1d36b-8865-48bb-84c6-e0a67079d0c1","null","<p style=""text-align: center;"">+</p>","null","fixation","","","","","","","","","","","","","","","","","","","","","","","","",""
"","","","","","html-slider-response","43","1142072","0.0-17.0-0.9","f0c1d36b-8865-48bb-84c6-e0a67079d0c1","1000","
                  <p style=""text-align: center;"">₪4
                                                <br>50%</p>
                  <p id=""wtp"" style=""text-align:center; margin-top: 0px; margin-bottom: 0px; font-size: 40px"";>&ensp;</p>","-","viewing","0","2","4C,17B","","","","","","","","","","","","","","","","","","","","","",""
"","","","","","html-slider-response","44","1143150","0.0-17.0-1.9","f0c1d36b-8865-48bb-84c6-e0a67079d0c1","1077","
                  <p style=""text-align: center;"">₪4
                                                <br>50%</p>
                  <p id=""wtp"" style=""text-align:center; margin-top: 0px; margin-bottom: 0px; font-size: 40px"";>מוכנים לשלם: <span id=""c_p_y""></span></p>","0","evaluation","44","2","4C,17B","50","4","0","","","","","","","","","","","","","","","","","","",""
"","","","","","html-keyboard-response","45","1143931","0.0-17.0-2.9","f0c1d36b-8865-48bb-84c6-e0a67079d0c1","null","<p style=""text-align: center;"">+</p>","null","fixation","","","","","","","","","","","","","","","","","","","","","","","","",""
"","","","","","html-slider-response","46","1144933","0.0-17.0-0.10","f0c1d36b-8865-48bb-84c6-e0a67079d0c1","1000","
                  <p style=""text-align: center;"">₪39
                                                <br>60%</p>
                  <p id=""wtp"" style=""text-align:center; margin-top: 0px; margin-bottom: 0px; font-size: 40px"";>&ensp;</p>","-","viewing","0","15","9C,25B","","","","","","","","","","","","","","","","","","","","","",""
"","","","","","html-slider-response","47","1146806","0.0-17.0-1.10","f0c1d36b-8865-48bb-84c6-e0a67079d0c1","1872","
                  <p style=""text-align: center;"">₪39
                                                <br>60%</p>
                  <p id=""wtp"" style=""text-align:center; margin-top: 0px; margin-bottom: 0px; font-size: 40px"";>מוכנים לשלם: <span id=""c_p_y""></span></p>","15","evaluation","73","15","9C,25B","60","39","15","","","","","","","","","","","","","","","","","","",""
"","","","","","html-keyboard-response","48","1147597","0.0-17.0-2.10","f0c1d36b-8865-48bb-84c6-e0a67079d0c1","null","<p style=""text-align: center;"">+</p>","null","fixation","","","","","","","","","","","","","","","","","","","","","","","","",""
"","","","","","html-slider-response","49","1148600","0.0-17.0-0.11","f0c1d36b-8865-48bb-84c6-e0a67079d0c1","1000","
                  <p style=""text-align: center;"">₪16
                                                <br>20%</p>
                  <p id=""wtp"" style=""text-align:center; margin-top: 0px; margin-bottom: 0px; font-size: 40px"";>&ensp;</p>","-","viewing","0","8","14C,17A,20C,27A","","","","","","","","","","","","","","","","","","","","","",""
"","","","","","html-slider-response","50","1149814","0.0-17.0-1.11","f0c1d36b-8865-48bb-84c6-e0a67079d0c1","1213","
                  <p style=""text-align: center;"">₪16
                                                <br>20%</p>
                  <p id=""wtp"" style=""text-align:center; margin-top: 0px; margin-bottom: 0px; font-size: 40px"";>מוכנים לשלם: <span id=""c_p_y""></span></p>","9","evaluation","30","8","14C,17A,20C,27A","20","16","10","","","","","","","","","","","","","","","","","","",""
"","","","","","html-keyboard-response","51","1151223","0.0-17.0-2.11","f0c1d36b-8865-48bb-84c6-e0a67079d0c1","null","<p style=""text-align: center;"">+</p>","null","fixation","","","","","","","","","","","","","","","","","","","","","","","","",""
"","","","","","html-slider-response","52","1152225","0.0-17.0-0.12","f0c1d36b-8865-48bb-84c6-e0a67079d0c1","1000","
                  <p style=""text-align: center;"">₪36
                                                <br>70%</p>
                  <p id=""wtp"" style=""text-align:center; margin-top: 0px; margin-bottom: 0px; font-size: 40px"";>&ensp;</p>","-","viewing","0","13","3A,5C,10B","","","","","","","","","","","","","","","","","","","","","",""
"","","","","","html-slider-response","53","1154030","0.0-17.0-1.12","f0c1d36b-8865-48bb-84c6-e0a67079d0c1","1804","
                  <p style=""text-align: center;"">₪36
                                                <br>70%</p>
                  <p id=""wtp"" style=""text-align:center; margin-top: 0px; margin-bottom: 0px; font-size: 40px"";>מוכנים לשלם: <span id=""c_p_y""></span></p>","19","evaluation","16","13","3A,5C,10B","70","36","19","","","","","","","","","","","","","","","","","","",""
"","","","","","html-keyboard-response","54","1155482","0.0-17.0-2.12","f0c1d36b-8865-48bb-84c6-e0a67079d0c1","null","<p style=""text-align: center;"">+</p>","null","fixation","","","","","","","","","","","","","","","","","","","","","","","","",""
"","","","","","html-slider-response","55","1156483","0.0-17.0-0.13","f0c1d36b-8865-48bb-84c6-e0a67079d0c1","1000","
                  <p style=""text-align: center;"">₪11
                                                <br>20%</p>
                  <p id=""wtp"" style=""text-align:center; margin-top: 0px; margin-bottom: 0px; font-size: 40px"";>&ensp;</p>","-","viewing","0","4","12C,17C,23C,28C","","","","","","","","","","","","","","","","","","","","","",""
"","","","","","html-slider-response","56","1158270","0.0-17.0-1.13","f0c1d36b-8865-48bb-84c6-e0a67079d0c1","1786","
                  <p style=""text-align: center;"">₪11
                                                <br>20%</p>
                  <p id=""wtp"" style=""text-align:center; margin-top: 0px; margin-bottom: 0px; font-size: 40px"";>מוכנים לשלם: <span id=""c_p_y""></span></p>","3","evaluation","68","4","12C,17C,23C,28C","20","11","4","","","","","","","","","","","","","","","","","","",""
"","","","","","html-keyboard-response","57","1159474","0.0-17.0-2.13","f0c1d36b-8865-48bb-84c6-e0a67079d0c1","null","<p style=""text-align: center;"">+</p>","null","fixation","","","","","","","","","","","","","","","","","","","","","","","","",""
"","","","","","html-slider-response","58","1160490","0.0-17.0-0.14","f0c1d36b-8865-48bb-84c6-e0a67079d0c1","1000","
                  <p style=""text-align: center;"">₪18
                                                <br>50%</p>
                  <p id=""wtp"" style=""text-align:center; margin-top: 0px; margin-bottom: 0px; font-size: 40px"";>&ensp;</p>","-","viewing","0","10","2C,16C,22B,28A","","","","","","","","","","","","","","","","","","","","","",""
"","","","","","html-slider-response","59","1162238","0.0-17.0-1.14","f0c1d36b-8865-48bb-84c6-e0a67079d0c1","1746","
                  <p style=""text-align: center;"">₪18
                                                <br>50%</p>
                  <p id=""wtp"" style=""text-align:center; margin-top: 0px; margin-bottom: 0px; font-size: 40px"";>מוכנים לשלם: <span id=""c_p_y""></span></p>","3","evaluation","69","10","2C,16C,22B,28A","50","18","4","","","","","","","","","","","","","","","","","","",""
"","","","","","html-keyboard-response","60","1163160","0.0-17.0-2.14","f0c1d36b-8865-48bb-84c6-e0a67079d0c1","null","<p style=""text-align: center;"">+</p>","null","fixation","","","","","","","","","","","","","","","","","","","","","","","","",""
"","","","","","html-slider-response","61","1164163","0.0-17.0-0.15","f0c1d36b-8865-48bb-84c6-e0a67079d0c1","1000","
                  <p style=""text-align: center;"">₪4
                                                <br>75%</p>
                  <p id=""wtp"" style=""text-align:center; margin-top: 0px; margin-bottom: 0px; font-size: 40px"";>&ensp;</p>","-","viewing","0","3","12B,20B,23B,27C,29C","","","","","","","","","","","","","","","","","","","","","",""
"","","","","","html-slider-response","62","1165230","0.0-17.0-1.15","f0c1d36b-8865-48bb-84c6-e0a67079d0c1","1066","
                  <p style=""text-align: center;"">₪4
                                                <br>75%</p>
                  <p id=""wtp"" style=""text-align:center; margin-top: 0px; margin-bottom: 0px; font-size: 40px"";>מוכנים לשלם: <span id=""c_p_y""></span></p>","0","evaluation","70","3","12B,20B,23B,27C,29C","75","4","0","","","","","","","","","","","","","","","","","","",""
"","","","","","html-keyboard-response","63","1166054","0.0-17.0-2.15","f0c1d36b-8865-48bb-84c6-e0a67079d0c1","null","<p style=""text-align: center;"">+</p>","null","fixation","","","","","","","","","","","","","","","","","","","","","","","","",""
"","","","","","html-slider-response","64","1167056","0.0-17.0-0.16","f0c1d36b-8865-48bb-84c6-e0a67079d0c1","1000","
                  <p style=""text-align: center;"">₪64
                                                <br>50%</p>
                  <p id=""wtp"" style=""text-align:center; margin-top: 0px; margin-bottom: 0px; font-size: 40px"";>&ensp;</p>","-","viewing","0","25","1B,3B,4A","","","","","","","","","","","","","","","","","","","","","",""
"","","","","","html-slider-response","65","1168790","0.0-17.0-1.16","f0c1d36b-8865-48bb-84c6-e0a67079d0c1","1732","
                  <p style=""text-align: center;"">₪64
                                                <br>50%</p>
                  <p id=""wtp"" style=""text-align:center; margin-top: 0px; margin-bottom: 0px; font-size: 40px"";>מוכנים לשלם: <span id=""c_p_y""></span></p>","11","evaluation","40","25","1B,3B,4A","50","64","11","","","","","","","","","","","","","","","","","","",""
"","","","","","html-keyboard-response","66","1169325","0.0-17.0-2.16","f0c1d36b-8865-48bb-84c6-e0a67079d0c1","null","<p style=""text-align: center;"">+</p>","null","fixation","","","","","","","","","","","","","","","","","","","","","","","","",""
"","","","","","html-slider-response","67","1170336","0.0-17.0-0.17","f0c1d36b-8865-48bb-84c6-e0a67079d0c1","1000","
                  <p style=""text-align: center;"">₪36
                                                <br>30%</p>
                  <p id=""wtp"" style=""text-align:center; margin-top: 0px; margin-bottom: 0px; font-size: 40px"";>&ensp;</p>","-","viewing","0","11","3C,20A,22A","","","","","","","","","","","","","","","","","","","","","",""
"","","","","","html-slider-response","68","1172334","0.0-17.0-1.17","f0c1d36b-8865-48bb-84c6-e0a67079d0c1","1996","
                  <p style=""text-align: center;"">₪36
                                                <br>30%</p>
                  <p id=""wtp"" style=""text-align:center; margin-top: 0px; margin-bottom: 0px; font-size: 40px"";>מוכנים לשלם: <span id=""c_p_y""></span></p>","5","evaluation","48","11","3C,20A,22A","30","36","5","","","","","","","","","","","","","","","","","","",""
"","","","","","html-keyboard-response","69","1173384","0.0-17.0-2.17","f0c1d36b-8865-48bb-84c6-e0a67079d0c1","null","<p style=""text-align: center;"">+</p>","null","fixation","","","","","","","","","","","","","","","","","","","","","","","","",""
"","","","","","html-slider-response","70","1174386","0.0-17.0-0.18","f0c1d36b-8865-48bb-84c6-e0a67079d0c1","1000","
                  <p style=""text-align: center;"">₪61
                                                <br>45%</p>
                  <p id=""wtp"" style=""text-align:center; margin-top: 0px; margin-bottom: 0px; font-size: 40px"";>&ensp;</p>","-","viewing","0","22","10A,11A","","","","","","","","","","","","","","","","","","","","","",""
"","","","","","html-slider-response","71","1175806","0.0-17.0-1.18","f0c1d36b-8865-48bb-84c6-e0a67079d0c1","1418","
                  <p style=""text-align: center;"">₪61
                                                <br>45%</p>
                  <p id=""wtp"" style=""text-align:center; margin-top: 0px; margin-bottom: 0px; font-size: 40px"";>מוכנים לשלם: <span id=""c_p_y""></span></p>","24","evaluation","53","22","10A,11A","45","61","24","","","","","","","","","","","","","","","","","","",""
"","","","","","html-keyboard-response","72","1176366","0.0-17.0-2.18","f0c1d36b-8865-48bb-84c6-e0a67079d0c1","null","<p style=""text-align: center;"">+</p>","null","fixation","","","","","","","","","","","","","","","","","","","","","","","","",""
"","","","","","html-slider-response","73","1177376","0.0-17.0-0.19","f0c1d36b-8865-48bb-84c6-e0a67079d0c1","1000","
                  <p style=""text-align: center;"">₪43
                                                <br>75%</p>
                  <p id=""wtp"" style=""text-align:center; margin-top: 0px; margin-bottom: 0px; font-size: 40px"";>&ensp;</p>","-","viewing","0","18","11B,19B,24A,26A","","","","","","","","","","","","","","","","","","","","","",""
"","","","","","html-slider-response","74","1179670","0.0-17.0-1.19","f0c1d36b-8865-48bb-84c6-e0a67079d0c1","2293","
                  <p style=""text-align: center;"">₪43
                                                <br>75%</p>
                  <p id=""wtp"" style=""text-align:center; margin-top: 0px; margin-bottom: 0px; font-size: 40px"";>מוכנים לשלם: <span id=""c_p_y""></span></p>","20","evaluation","64","18","11B,19B,24A,26A","75","43","20","","","","","","","","","","","","","","","","","","",""
"","","","","","html-keyboard-response","75","1180859","0.0-17.0-2.19","f0c1d36b-8865-48bb-84c6-e0a67079d0c1","null","<p style=""text-align: center;"">+</p>","null","fixation","","","","","","","","","","","","","","","","","","","","","","","","",""
"","","","","","html-slider-response","76","1181865","0.0-17.0-0.20","f0c1d36b-8865-48bb-84c6-e0a67079d0c1","1000","
                  <p style=""text-align: center;"">₪11
                                                <br>25%</p>
                  <p id=""wtp"" style=""text-align:center; margin-top: 0px; margin-bottom: 0px; font-size: 40px"";>&ensp;</p>","-","viewing","0","5","12A,27B,28B,30B","","","","","","","","","","","","","","","","","","","","","",""
"","","","","","html-slider-response","77","1183174","0.0-17.0-1.20","f0c1d36b-8865-48bb-84c6-e0a67079d0c1","1308","
                  <p style=""text-align: center;"">₪11
                                                <br>25%</p>
                  <p id=""wtp"" style=""text-align:center; margin-top: 0px; margin-bottom: 0px; font-size: 40px"";>מוכנים לשלם: <span id=""c_p_y""></span></p>","0","evaluation","52","5","12A,27B,28B,30B","25","11","0","","","","","","","","","","","","","","","","","","",""
"","","","","","html-keyboard-response","78","1184659","0.0-17.0-2.20","f0c1d36b-8865-48bb-84c6-e0a67079d0c1","null","<p style=""text-align: center;"">+</p>","null","fixation","","","","","","","","","","","","","","","","","","","","","","","","",""
"","","","","","html-slider-response","79","1185666","0.0-17.0-0.21","f0c1d36b-8865-48bb-84c6-e0a67079d0c1","1000","
                  <p style=""text-align: center;"">₪71
                                                <br>75%</p>
                  <p id=""wtp"" style=""text-align:center; margin-top: 0px; margin-bottom: 0px; font-size: 40px"";>&ensp;</p>","-","viewing","0","28","8B","","","","","","","","","","","","","","","","","","","","","",""
"","","","","","html-slider-response","80","1188310","0.0-17.0-1.21","f0c1d36b-8865-48bb-84c6-e0a67079d0c1","2643","
                  <p style=""text-align: center;"">₪71
                                                <br>75%</p>
                  <p id=""wtp"" style=""text-align:center; margin-top: 0px; margin-bottom: 0px; font-size: 40px"";>מוכנים לשלם: <span id=""c_p_y""></span></p>","40","evaluation","21","28","8B","75","71","40","","","","","","","","","","","","","","","","","","",""
"","","","","","html-keyboard-response","81","1189512","0.0-17.0-2.21","f0c1d36b-8865-48bb-84c6-e0a67079d0c1","null","<p style=""text-align: center;"">+</p>","null","fixation","","","","","","","","","","","","","","","","","","","","","","","","",""
"","","","","","html-slider-response","82","1190514","0.0-17.0-0.22","f0c1d36b-8865-48bb-84c6-e0a67079d0c1","1000","
                  <p style=""text-align: center;"">₪58
                                                <br>40%</p>
                  <p id=""wtp"" style=""text-align:center; margin-top: 0px; margin-bottom: 0px; font-size: 40px"";>&ensp;</p>","-","viewing","0","20","10C,13A,19C,21B","","","","","","","","","","","","","","","","","","","","","",""
"","","","","","html-slider-response","83","1192406","0.0-17.0-1.22","f0c1d36b-8865-48bb-84c6-e0a67079d0c1","1891","
                  <p style=""text-align: center;"">₪58
                                                <br>40%</p>
                  <p id=""wtp"" style=""text-align:center; margin-top: 0px; margin-bottom: 0px; font-size: 40px"";>מוכנים לשלם: <span id=""c_p_y""></span></p>","9","evaluation","12","20","10C,13A,19C,21B","40","58","10","","","","","","","","","","","","","","","","","","",""
"","","","","","html-keyboard-response","84","1193534","0.0-17.0-2.22","f0c1d36b-8865-48bb-84c6-e0a67079d0c1","null","<p style=""text-align: center;"">+</p>","null","fixation","","","","","","","","","","","","","","","","","","","","","","","","",""
"","","","","","html-slider-response","85","1194542","0.0-17.0-0.23","f0c1d36b-8865-48bb-84c6-e0a67079d0c1","1000","
                  <p style=""text-align: center;"">₪64
                                                <br>25%</p>
                  <p id=""wtp"" style=""text-align:center; margin-top: 0px; margin-bottom: 0px; font-size: 40px"";>&ensp;</p>","-","viewing","0","24","6A,21A","","","","","","","","","","","","","","","","","","","","","",""
"","","","","","html-slider-response","86","1196150","0.0-17.0-1.23","f0c1d36b-8865-48bb-84c6-e0a67079d0c1","1607","
                  <p style=""text-align: center;"">₪64
                                                <br>25%</p>
                  <p id=""wtp"" style=""text-align:center; margin-top: 0px; margin-bottom: 0px; font-size: 40px"";>מוכנים לשלם: <span id=""c_p_y""></span></p>","44","evaluation","47","24","6A,21A","25","64","44","","","","","","","","","","","","","","","","","","",""
"","","","","","html-keyboard-response","87","1197594","0.0-17.0-2.23","f0c1d36b-8865-48bb-84c6-e0a67079d0c1","null","<p style=""text-align: center;"">+</p>","null","fixation","","","","","","","","","","","","","","","","","","","","","","","","",""
"","","","","","html-slider-response","88","1198604","0.0-17.0-0.24","f0c1d36b-8865-48bb-84c6-e0a67079d0c1","1000","
                  <p style=""text-align: center;"">₪79
                                                <br>65%</p>
                  <p id=""wtp"" style=""text-align:center; margin-top: 0px; margin-bottom: 0px; font-size: 40px"";>&ensp;</p>","-","viewing","0","31","8A","","","","","","","","","","","","","","","","","","","","","",""
"","","","","","html-slider-response","89","1200574","0.0-17.0-1.24","f0c1d36b-8865-48bb-84c6-e0a67079d0c1","1968","
                  <p style=""text-align: center;"">₪79
                                                <br>65%</p>
                  <p id=""wtp"" style=""text-align:center; margin-top: 0px; margin-bottom: 0px; font-size: 40px"";>מוכנים לשלם: <span id=""c_p_y""></span></p>","40","evaluation","32","31","8A","65","79","40","","","","","","","","","","","","","","","","","","",""
"","","","","","html-keyboard-response","90","1201466","0.0-17.0-2.24","f0c1d36b-8865-48bb-84c6-e0a67079d0c1","null","<p style=""text-align: center;"">+</p>","null","fixation","","","","","","","","","","","","","","","","","","","","","","","","",""
"","","","","","html-slider-response","91","1202468","0.0-17.0-0.25","f0c1d36b-8865-48bb-84c6-e0a67079d0c1","1000","
                  <p style=""text-align: center;"">₪11
                                                <br>75%</p>
                  <p id=""wtp"" style=""text-align:center; margin-top: 0px; margin-bottom: 0px; font-size: 40px"";>&ensp;</p>","-","viewing","0","7","6B,18B,22C,24C,29A","","","","","","","","","","","","","","","","","","","","","",""
"","","","","","html-slider-response","92","1204262","0.0-17.0-1.25","f0c1d36b-8865-48bb-84c6-e0a67079d0c1","1793","
                  <p style=""text-align: center;"">₪11
                                                <br>75%</p>
                  <p id=""wtp"" style=""text-align:center; margin-top: 0px; margin-bottom: 0px; font-size: 40px"";>מוכנים לשלם: <span id=""c_p_y""></span></p>","0","evaluation","54","7","6B,18B,22C,24C,29A","75","11","0","","","","","","","","","","","","","","","","","","",""
"","","","","","html-keyboard-response","93","1205486","0.0-17.0-2.25","f0c1d36b-8865-48bb-84c6-e0a67079d0c1","null","<p style=""text-align: center;"">+</p>","null","fixation","","","","","","","","","","","","","","","","","","","","","","","","",""
"","","","","","html-slider-response","94","1206489","0.0-17.0-0.26","f0c1d36b-8865-48bb-84c6-e0a67079d0c1","1000","
                  <p style=""text-align: center;"">₪18
                                                <br>25%</p>
                  <p id=""wtp"" style=""text-align:center; margin-top: 0px; margin-bottom: 0px; font-size: 40px"";>&ensp;</p>","-","viewing","0","9","14A,23A","","","","","","","","","","","","","","","","","","","","","",""
"","","","","","html-slider-response","95","1208614","0.0-17.0-1.26","f0c1d36b-8865-48bb-84c6-e0a67079d0c1","2124","
                  <p style=""text-align: center;"">₪18
                                                <br>25%</p>
                  <p id=""wtp"" style=""text-align:center; margin-top: 0px; margin-bottom: 0px; font-size: 40px"";>מוכנים לשלם: <span id=""c_p_y""></span></p>","5","evaluation","52","9","14A,23A","25","18","6","","","","","","","","","","","","","","","","","","",""
"","","","","","html-keyboard-response","96","1210047","0.0-17.0-2.26","f0c1d36b-8865-48bb-84c6-e0a67079d0c1","null","<p style=""text-align: center;"">+</p>","null","fixation","","","","","","","","","","","","","","","","","","","","","","","","",""
"","","","","","html-slider-response","97","1211050","0.0-17.0-0.27","f0c1d36b-8865-48bb-84c6-e0a67079d0c1","1000","
                  <p style=""text-align: center;"">₪58
                                                <br>45%</p>
                  <p id=""wtp"" style=""text-align:center; margin-top: 0px; margin-bottom: 0px; font-size: 40px"";>&ensp;</p>","-","viewing","0","21","11C,18C,25A","","","","","","","","","","","","","","","","","","","","","",""
"","","","","","html-slider-response","98","1213982","0.0-17.0-1.27","f0c1d36b-8865-48bb-84c6-e0a67079d0c1","2931","
                  <p style=""text-align: center;"">₪58
                                                <br>45%</p>
                  <p id=""wtp"" style=""text-align:center; margin-top: 0px; margin-bottom: 0px; font-size: 40px"";>מוכנים לשלם: <span id=""c_p_y""></span></p>","28","evaluation","42","21","11C,18C,25A","45","58","28","","","","","","","","","","","","","","","","","","",""
"","","","","","html-keyboard-response","99","1214701","0.0-17.0-2.27","f0c1d36b-8865-48bb-84c6-e0a67079d0c1","null","<p style=""text-align: center;"">+</p>","null","fixation","","","","","","","","","","","","","","","","","","","","","","","","",""
"","","","","","html-slider-response","100","1215702","0.0-17.0-0.28","f0c1d36b-8865-48bb-84c6-e0a67079d0c1","1000","
                  <p style=""text-align: center;"">₪39
                                                <br>65%</p>
                  <p id=""wtp"" style=""text-align:center; margin-top: 0px; margin-bottom: 0px; font-size: 40px"";>&ensp;</p>","-","viewing","0","16","1A,15A,26C","","","","","","","","","","","","","","","","","","","","","",""
"","","","","","html-slider-response","101","1217878","0.0-17.0-1.28","f0c1d36b-8865-48bb-84c6-e0a67079d0c1","2174","
                  <p style=""text-align: center;"">₪39
                                                <br>65%</p>
                  <p id=""wtp"" style=""text-align:center; margin-top: 0px; margin-bottom: 0px; font-size: 40px"";>מוכנים לשלם: <span id=""c_p_y""></span></p>","13","evaluation","0","16","1A,15A,26C","65","39","14","","","","","","","","","","","","","","","","","","",""
"","","","","","html-keyboard-response","102","1219070","0.0-17.0-2.28","f0c1d36b-8865-48bb-84c6-e0a67079d0c1","null","<p style=""text-align: center;"">+</p>","null","fixation","","","","","","","","","","","","","","","","","","","","","","","","",""
"","","","","","html-slider-response","103","1220071","0.0-17.0-0.29","f0c1d36b-8865-48bb-84c6-e0a67079d0c1","1000","
                  <p style=""text-align: center;"">₪58
                                                <br>30%</p>
                  <p id=""wtp"" style=""text-align:center; margin-top: 0px; margin-bottom: 0px; font-size: 40px"";>&ensp;</p>","-","viewing","0","19","13C,30A","","","","","","","","","","","","","","","","","","","","","",""
"","","","","","html-slider-response","104","1222334","0.0-17.0-1.29","f0c1d36b-8865-48bb-84c6-e0a67079d0c1","2262","
                  <p style=""text-align: center;"">₪58
                                                <br>30%</p>
                  <p id=""wtp"" style=""text-align:center; margin-top: 0px; margin-bottom: 0px; font-size: 40px"";>מוכנים לשלם: <span id=""c_p_y""></span></p>","7","evaluation","12","19","13C,30A","30","58","8","","","","","","","","","","","","","","","","","","",""
"","","","","","html-keyboard-response","105","1222850","0.0-17.0-2.29","f0c1d36b-8865-48bb-84c6-e0a67079d0c1","null","<p style=""text-align: center;"">+</p>","null","fixation","","","","","","","","","","","","","","","","","","","","","","","","",""
"","","","","","html-slider-response","106","1223855","0.0-17.0-0.30","f0c1d36b-8865-48bb-84c6-e0a67079d0c1","1000","
                  <p style=""text-align: center;"">₪36
                                                <br>60%</p>
                  <p id=""wtp"" style=""text-align:center; margin-top: 0px; margin-bottom: 0px; font-size: 40px"";>&ensp;</p>","-","viewing","0","12","1C,7C,15C","","","","","","","","","","","","","","","","","","","","","",""
"","","","","","html-slider-response","107","1225342","0.0-17.0-1.30","f0c1d36b-8865-48bb-84c6-e0a67079d0c1","1486","
                  <p style=""text-align: center;"">₪36
                                                <br>60%</p>
                  <p id=""wtp"" style=""text-align:center; margin-top: 0px; margin-bottom: 0px; font-size: 40px"";>מוכנים לשלם: <span id=""c_p_y""></span></p>","17","evaluation","76","12","1C,7C,15C","60","36","17","","","","","","","","","","","","","","","","","","",""
"","","","","","html-keyboard-response","108","1226248","0.0-17.0-2.30","f0c1d36b-8865-48bb-84c6-e0a67079d0c1","null","<p style=""text-align: center;"">+</p>","null","fixation","","","","","","","","","","","","","","","","","","","","","","","","",""
"","","","","","html-keyboard-response","109","1227260","0.0-18.0","f0c1d36b-8865-48bb-84c6-e0a67079d0c1","null","<p style=""text-align: center;"">+</p>","null","fixation","","","","","","","","","","","","","","","","","","","","","","","","",""
"","","","","","html-keyboard-response","110","1229518","0.0-19.0","f0c1d36b-8865-48bb-84c6-e0a67079d0c1","null","<p>הפסקה.
          <br>לחצו כדי להמשיך.</p>","1","scan_wait","","","","","","","","","","","","","","","","","","","","","","","","",""
"","","","","","html-keyboard-response","111","1230519","0.0-20.0","f0c1d36b-8865-48bb-84c6-e0a67079d0c1","null","<p style=""text-align: center;"">+</p>","null","fixation","","","","","","","","","","","","","","","","","","","","","","","","",""
"","","","","","html-slider-response","112","1231521","0.0-21.0-0.0","f0c1d36b-8865-48bb-84c6-e0a67079d0c1","1000","
                  <p style=""text-align: center;"">₪11
                                                <br>25%</p>
                  <p id=""wtp"" style=""text-align:center; margin-top: 0px; margin-bottom: 0px; font-size: 40px"";>&ensp;</p>","-","viewing","0","5","12A,27B,28B,30B","","","","","","","","","","","","","","","","","","","","","",""
"","","","","","html-slider-response","113","1233014","0.0-21.0-1.0","f0c1d36b-8865-48bb-84c6-e0a67079d0c1","1492","
                  <p style=""text-align: center;"">₪11
                                                <br>25%</p>
                  <p id=""wtp"" style=""text-align:center; margin-top: 0px; margin-bottom: 0px; font-size: 40px"";>מוכנים לשלם: <span id=""c_p_y""></span></p>","3","evaluation","58","5","12A,27B,28B,30B","25","11","3","","","","","","","","","","","","","","","","","","",""
"","","","","","html-keyboard-response","114","1234154","0.0-21.0-2.0","f0c1d36b-8865-48bb-84c6-e0a67079d0c1","null","<p style=""text-align: center;"">+</p>","null","fixation","","","","","","","","","","","","","","","","","","","","","","","","",""
"","","","","","html-slider-response","115","1235165","0.0-21.0-0.1","f0c1d36b-8865-48bb-84c6-e0a67079d0c1","1000","
                  <p style=""text-align: center;"">₪71
                                                <br>45%</p>
                  <p id=""wtp"" style=""text-align:center; margin-top: 0px; margin-bottom: 0px; font-size: 40px"";>&ensp;</p>","-","viewing","0","26","2B,16A","","","","","","","","","","","","","","","","","","","","","",""
"","","","","","html-slider-response","116","1238174","0.0-21.0-1.1","f0c1d36b-8865-48bb-84c6-e0a67079d0c1","3008","
                  <p style=""text-align: center;"">₪71
                                                <br>45%</p>
                  <p id=""wtp"" style=""text-align:center; margin-top: 0px; margin-bottom: 0px; font-size: 40px"";>מוכנים לשלם: <span id=""c_p_y""></span></p>","30","evaluation","57","26","2B,16A","45","71","30","","","","","","","","","","","","","","","","","","",""
"","","","","","html-keyboard-response","117","1238803","0.0-21.0-2.1","f0c1d36b-8865-48bb-84c6-e0a67079d0c1","null","<p style=""text-align: center;"">+</p>","null","fixation","","","","","","","","","","","","","","","","","","","","","","","","",""
"","","","","","html-slider-response","118","1239806","0.0-21.0-0.2","f0c1d36b-8865-48bb-84c6-e0a67079d0c1","1000","
                  <p style=""text-align: center;"">₪16
                                                <br>20%</p>
                  <p id=""wtp"" style=""text-align:center; margin-top: 0px; margin-bottom: 0px; font-size: 40px"";>&ensp;</p>","-","viewing","0","8","14C,17A,20C,27A","","","","","","","","","","","","","","","","","","","","","",""
"","","","","","html-slider-response","119","1241518","0.0-21.0-1.2","f0c1d36b-8865-48bb-84c6-e0a67079d0c1","1711","
                  <p style=""text-align: center;"">₪16
                                                <br>20%</p>
                  <p id=""wtp"" style=""text-align:center; margin-top: 0px; margin-bottom: 0px; font-size: 40px"";>מוכנים לשלם: <span id=""c_p_y""></span></p>","6","evaluation","17","8","14C,17A,20C,27A","20","16","6","","","","","","","","","","","","","","","","","","",""
"","","","","","html-keyboard-response","120","1242799","0.0-21.0-2.2","f0c1d36b-8865-48bb-84c6-e0a67079d0c1","null","<p style=""text-align: center;"">+</p>","null","fixation","","","","","","","","","","","","","","","","","","","","","","","","",""
"","","","","","html-slider-response","121","1243801","0.0-21.0-0.3","f0c1d36b-8865-48bb-84c6-e0a67079d0c1","1000","
                  <p style=""text-align: center;"">₪36
                                                <br>75%</p>
                  <p id=""wtp"" style=""text-align:center; margin-top: 0px; margin-bottom: 0px; font-size: 40px"";>&ensp;</p>","-","viewing","0","14","4B,5A,13B,16B","","","","","","","","","","","","","","","","","","","","","",""
"","","","","","html-slider-response","122","1246366","0.0-21.0-1.3","f0c1d36b-8865-48bb-84c6-e0a67079d0c1","2564","
                  <p style=""text-align: center;"">₪36
                                                <br>75%</p>
                  <p id=""wtp"" style=""text-align:center; margin-top: 0px; margin-bottom: 0px; font-size: 40px"";>מוכנים לשלם: <span id=""c_p_y""></span></p>","9","evaluation","80","14","4B,5A,13B,16B","75","36","9","","","","","","","","","","","","","","","","","","",""
"","","","","","html-keyboard-response","123","1247426","0.0-21.0-2.3","f0c1d36b-8865-48bb-84c6-e0a67079d0c1","null","<p style=""text-align: center;"">+</p>","null","fixation","","","","","","","","","","","","","","","","","","","","","","","","",""
"","","","","","html-slider-response","124","1248428","0.0-21.0-0.4","f0c1d36b-8865-48bb-84c6-e0a67079d0c1","1000","
                  <p style=""text-align: center;"">₪58
                                                <br>30%</p>
                  <p id=""wtp"" style=""text-align:center; margin-top: 0px; margin-bottom: 0px; font-size: 40px"";>&ensp;</p>","-","viewing","0","19","13C,30A","","","","","","","","","","","","","","","","","","","","","",""
"","","","","","html-slider-response","125","1250782","0.0-21.0-1.4","f0c1d36b-8865-48bb-84c6-e0a67079d0c1","2352","
                  <p style=""text-align: center;"">₪58
                                                <br>30%</p>
                  <p id=""wtp"" style=""text-align:center; margin-top: 0px; margin-bottom: 0px; font-size: 40px"";>מוכנים לשלם: <span id=""c_p_y""></span></p>","5","evaluation","60","19","13C,30A","30","58","6","","","","","","","","","","","","","","","","","","",""
"","","","","","html-keyboard-response","126","1251297","0.0-21.0-2.4","f0c1d36b-8865-48bb-84c6-e0a67079d0c1","null","<p style=""text-align: center;"">+</p>","null","fixation","","","","","","","","","","","","","","","","","","","","","","","","",""
"","","","","","html-slider-response","127","1252313","0.0-21.0-0.5","f0c1d36b-8865-48bb-84c6-e0a67079d0c1","1000","
                  <p style=""text-align: center;"">₪18
                                                <br>25%</p>
                  <p id=""wtp"" style=""text-align:center; margin-top: 0px; margin-bottom: 0px; font-size: 40px"";>&ensp;</p>","-","viewing","0","9","14A,23A","","","","","","","","","","","","","","","","","","","","","",""
"","","","","","html-slider-response","128","1253942","0.0-21.0-1.5","f0c1d36b-8865-48bb-84c6-e0a67079d0c1","1627","
                  <p style=""text-align: center;"">₪18
                                                <br>25%</p>
                  <p id=""wtp"" style=""text-align:center; margin-top: 0px; margin-bottom: 0px; font-size: 40px"";>מוכנים לשלם: <span id=""c_p_y""></span></p>","0","evaluation","46","9","14A,23A","25","18","0","","","","","","","","","","","","","","","","","","",""
"","","","","","html-keyboard-response","129","1255245","0.0-21.0-2.5","f0c1d36b-8865-48bb-84c6-e0a67079d0c1","null","<p style=""text-align: center;"">+</p>","null","fixation","","","","","","","","","","","","","","","","","","","","","","","","",""
"","","","","","html-slider-response","130","1256248","0.0-21.0-0.6","f0c1d36b-8865-48bb-84c6-e0a67079d0c1","1000","
                  <p style=""text-align: center;"">₪76
                                                <br>65%</p>
                  <p id=""wtp"" style=""text-align:center; margin-top: 0px; margin-bottom: 0px; font-size: 40px"";>&ensp;</p>","-","viewing","0","29","8C,19A,24B","","","","","","","","","","","","","","","","","","","","","",""
"","","","","","html-slider-response","131","1259246","0.0-21.0-1.6","f0c1d36b-8865-48bb-84c6-e0a67079d0c1","2997","
                  <p style=""text-align: center;"">₪76
                                                <br>65%</p>
                  <p id=""wtp"" style=""text-align:center; margin-top: 0px; margin-bottom: 0px; font-size: 40px"";>מוכנים לשלם: <span id=""c_p_y""></span></p>","30","evaluation","36","29","8C,19A,24B","65","76","30","","","","","","","","","","","","","","","","","","",""
"","","","","","html-keyboard-response","132","1259908","0.0-21.0-2.6","f0c1d36b-8865-48bb-84c6-e0a67079d0c1","null","<p style=""text-align: center;"">+</p>","null","fixation","","","","","","","","","","","","","","","","","","","","","","","","",""
"","","","","","html-slider-response","133","1260918","0.0-21.0-0.7","f0c1d36b-8865-48bb-84c6-e0a67079d0c1","1000","
                  <p style=""text-align: center;"">₪36
                                                <br>70%</p>
                  <p id=""wtp"" style=""text-align:center; margin-top: 0px; margin-bottom: 0px; font-size: 40px"";>&ensp;</p>","-","viewing","0","13","3A,5C,10B","","","","","","","","","","","","","","","","","","","","","",""
"","","","","","html-slider-response","134","1262814","0.0-21.0-1.7","f0c1d36b-8865-48bb-84c6-e0a67079d0c1","1894","
                  <p style=""text-align: center;"">₪36
                                                <br>70%</p>
                  <p id=""wtp"" style=""text-align:center; margin-top: 0px; margin-bottom: 0px; font-size: 40px"";>מוכנים לשלם: <span id=""c_p_y""></span></p>","8","evaluation","11","13","3A,5C,10B","70","36","9","","","","","","","","","","","","","","","","","","",""
"","","","","","html-keyboard-response","135","1264209","0.0-21.0-2.7","f0c1d36b-8865-48bb-84c6-e0a67079d0c1","null","<p style=""text-align: center;"">+</p>","null","fixation","","","","","","","","","","","","","","","","","","","","","","","","",""
"","","","","","html-slider-response","136","1265212","0.0-21.0-0.8","f0c1d36b-8865-48bb-84c6-e0a67079d0c1","1000","
                  <p style=""text-align: center;"">₪18
                                                <br>50%</p>
                  <p id=""wtp"" style=""text-align:center; margin-top: 0px; margin-bottom: 0px; font-size: 40px"";>&ensp;</p>","-","viewing","0","10","2C,16C,22B,28A","","","","","","","","","","","","","","","","","","","","","",""
"","","","","","html-slider-response","137","1266510","0.0-21.0-1.8","f0c1d36b-8865-48bb-84c6-e0a67079d0c1","1297","
                  <p style=""text-align: center;"">₪18
                                                <br>50%</p>
                  <p id=""wtp"" style=""text-align:center; margin-top: 0px; margin-bottom: 0px; font-size: 40px"";>מוכנים לשלם: <span id=""c_p_y""></span></p>","4","evaluation","14","10","2C,16C,22B,28A","50","18","5","","","","","","","","","","","","","","","","","","",""
"","","","","","html-keyboard-response","138","1267837","0.0-21.0-2.8","f0c1d36b-8865-48bb-84c6-e0a67079d0c1","null","<p style=""text-align: center;"">+</p>","null","fixation","","","","","","","","","","","","","","","","","","","","","","","","",""
"","","","","","html-slider-response","139","1268839","0.0-21.0-0.9","f0c1d36b-8865-48bb-84c6-e0a67079d0c1","1000","
                  <p style=""text-align: center;"">₪11
                                                <br>20%</p>
                  <p id=""wtp"" style=""text-align:center; margin-top: 0px; margin-bottom: 0px; font-size: 40px"";>&ensp;</p>","-","viewing","0","4","12C,17C,23C,28C","","","","","","","","","","","","","","","","","","","","","",""
"","","","","","html-slider-response","140","1269862","0.0-21.0-1.9","f0c1d36b-8865-48bb-84c6-e0a67079d0c1","1022","
                  <p style=""text-align: center;"">₪11
                                                <br>20%</p>
                  <p id=""wtp"" style=""text-align:center; margin-top: 0px; margin-bottom: 0px; font-size: 40px"";>מוכנים לשלם: <span id=""c_p_y""></span></p>","0","evaluation","39","4","12C,17C,23C,28C","20","11","0","","","","","","","","","","","","","","","","","","",""
"","","","","","html-keyboard-response","141","1270613","0.0-21.0-2.9","f0c1d36b-8865-48bb-84c6-e0a67079d0c1","null","<p style=""text-align: center;"">+</p>","null","fixation","","","","","","","","","","","","","","","","","","","","","","","","",""
"","","","","","html-slider-response","142","1271619","0.0-21.0-0.10","f0c1d36b-8865-48bb-84c6-e0a67079d0c1","1000","
                  <p style=""text-align: center;"">₪61
                                                <br>45%</p>
                  <p id=""wtp"" style=""text-align:center; margin-top: 0px; margin-bottom: 0px; font-size: 40px"";>&ensp;</p>","-","viewing","0","22","10A,11A","","","","","","","","","","","","","","","","","","","","","",""
"","","","","","html-slider-response","143","1273462","0.0-21.0-1.10","f0c1d36b-8865-48bb-84c6-e0a67079d0c1","1842","
                  <p style=""text-align: center;"">₪61
                                                <br>45%</p>
                  <p id=""wtp"" style=""text-align:center; margin-top: 0px; margin-bottom: 0px; font-size: 40px"";>מוכנים לשלם: <span id=""c_p_y""></span></p>","24","evaluation","63","22","10A,11A","45","61","24","","","","","","","","","","","","","","","","","","",""
"","","","","","html-keyboard-response","144","1274736","0.0-21.0-2.10","f0c1d36b-8865-48bb-84c6-e0a67079d0c1","null","<p style=""text-align: center;"">+</p>","null","fixation","","","","","","","","","","","","","","","","","","","","","","","","",""
"","","","","","html-slider-response","145","1275743","0.0-21.0-0.11","f0c1d36b-8865-48bb-84c6-e0a67079d0c1","1000","
                  <p style=""text-align: center;"">₪4
                                                <br>25%</p>
                  <p id=""wtp"" style=""text-align:center; margin-top: 0px; margin-bottom: 0px; font-size: 40px"";>&ensp;</p>","-","viewing","0","1","6C,29B,30C","","","","","","","","","","","","","","","","","","","","","",""
"","","","","","html-slider-response","146","1277238","0.0-21.0-1.11","f0c1d36b-8865-48bb-84c6-e0a67079d0c1","1494","
                  <p style=""text-align: center;"">₪4
                                                <br>25%</p>
                  <p id=""wtp"" style=""text-align:center; margin-top: 0px; margin-bottom: 0px; font-size: 40px"";>מוכנים לשלם: <span id=""c_p_y""></span></p>","0","evaluation","1","1","6C,29B,30C","25","4","0","","","","","","","","","","","","","","","","","","",""
"","","","","","html-keyboard-response","147","1278747","0.0-21.0-2.11","f0c1d36b-8865-48bb-84c6-e0a67079d0c1","null","<p style=""text-align: center;"">+</p>","null","fixation","","","","","","","","","","","","","","","","","","","","","","","","",""
"","","","","","html-slider-response","148","1279762","0.0-21.0-0.12","f0c1d36b-8865-48bb-84c6-e0a67079d0c1","1000","
                  <p style=""text-align: center;"">₪58
                                                <br>40%</p>
                  <p id=""wtp"" style=""text-align:center; margin-top: 0px; margin-bottom: 0px; font-size: 40px"";>&ensp;</p>","-","viewing","0","20","10C,13A,19C,21B","","","","","","","","","","","","","","","","","","","","","",""
"","","","","","html-slider-response","149","1282942","0.0-21.0-1.12","f0c1d36b-8865-48bb-84c6-e0a67079d0c1","3179","
                  <p style=""text-align: center;"">₪58
                                                <br>40%</p>
                  <p id=""wtp"" style=""text-align:center; margin-top: 0px; margin-bottom: 0px; font-size: 40px"";>מוכנים לשלם: <span id=""c_p_y""></span></p>","21","evaluation","2","20","10C,13A,19C,21B","40","58","21","","","","","","","","","","","","","","","","","","",""
"","","","","","html-keyboard-response","150","1283774","0.0-21.0-2.12","f0c1d36b-8865-48bb-84c6-e0a67079d0c1","null","<p style=""text-align: center;"">+</p>","null","fixation","","","","","","","","","","","","","","","","","","","","","","","","",""
"","","","","","html-slider-response","151","1284778","0.0-21.0-0.13","f0c1d36b-8865-48bb-84c6-e0a67079d0c1","1000","
                  <p style=""text-align: center;"">₪71
                                                <br>75%</p>
                  <p id=""wtp"" style=""text-align:center; margin-top: 0px; margin-bottom: 0px; font-size: 40px"";>&ensp;</p>","-","viewing","0","28","8B","","","","","","","","","","","","","","","","","","","","","",""
"","","","","","html-slider-response","152","1287198","0.0-21.0-1.13","f0c1d36b-8865-48bb-84c6-e0a67079d0c1","2419","
                  <p style=""text-align: center;"">₪71
                                                <br>75%</p>
                  <p id=""wtp"" style=""text-align:center; margin-top: 0px; margin-bottom: 0px; font-size: 40px"";>מוכנים לשלם: <span id=""c_p_y""></span></p>","30","evaluation","67","28","8B","75","71","30","","","","","","","","","","","","","","","","","","",""
"","","","","","html-keyboard-response","153","1288557","0.0-21.0-2.13","f0c1d36b-8865-48bb-84c6-e0a67079d0c1","null","<p style=""text-align: center;"">+</p>","null","fixation","","","","","","","","","","","","","","","","","","","","","","","","",""
"","","","","","html-slider-response","154","1289568","0.0-21.0-0.14","f0c1d36b-8865-48bb-84c6-e0a67079d0c1","1000","
                  <p style=""text-align: center;"">₪4
                                                <br>50%</p>
                  <p id=""wtp"" style=""text-align:center; margin-top: 0px; margin-bottom: 0px; font-size: 40px"";>&ensp;</p>","-","viewing","0","2","4C,17B","","","","","","","","","","","","","","","","","","","","","",""
"","","","","","html-slider-response","155","1291286","0.0-21.0-1.14","f0c1d36b-8865-48bb-84c6-e0a67079d0c1","1716","
                  <p style=""text-align: center;"">₪4
                                                <br>50%</p>
                  <p id=""wtp"" style=""text-align:center; margin-top: 0px; margin-bottom: 0px; font-size: 40px"";>מוכנים לשלם: <span id=""c_p_y""></span></p>","0","evaluation","14","2","4C,17B","50","4","0","","","","","","","","","","","","","","","","","","",""
"","","","","","html-keyboard-response","156","1291862","0.0-21.0-2.14","f0c1d36b-8865-48bb-84c6-e0a67079d0c1","null","<p style=""text-align: center;"">+</p>","null","fixation","","","","","","","","","","","","","","","","","","","","","","","","",""
"","","","","","html-slider-response","157","1292870","0.0-21.0-0.15","f0c1d36b-8865-48bb-84c6-e0a67079d0c1","1000","
                  <p style=""text-align: center;"">₪43
                                                <br>75%</p>
                  <p id=""wtp"" style=""text-align:center; margin-top: 0px; margin-bottom: 0px; font-size: 40px"";>&ensp;</p>","-","viewing","0","18","11B,19B,24A,26A","","","","","","","","","","","","","","","","","","","","","",""
"","","","","","html-slider-response","158","1296470","0.0-21.0-1.15","f0c1d36b-8865-48bb-84c6-e0a67079d0c1","3598","
                  <p style=""text-align: center;"">₪43
                                                <br>75%</p>
                  <p id=""wtp"" style=""text-align:center; margin-top: 0px; margin-bottom: 0px; font-size: 40px"";>מוכנים לשלם: <span id=""c_p_y""></span></p>","30","evaluation","65","18","11B,19B,24A,26A","75","43","30","","","","","","","","","","","","","","","","","","",""
"","","","","","html-keyboard-response","159","1297514","0.0-21.0-2.15","f0c1d36b-8865-48bb-84c6-e0a67079d0c1","null","<p style=""text-align: center;"">+</p>","null","fixation","","","","","","","","","","","","","","","","","","","","","","","","",""
"","","","","","html-slider-response","160","1298517","0.0-21.0-0.16","f0c1d36b-8865-48bb-84c6-e0a67079d0c1","1000","
                  <p style=""text-align: center;"">₪11
                                                <br>75%</p>
                  <p id=""wtp"" style=""text-align:center; margin-top: 0px; margin-bottom: 0px; font-size: 40px"";>&ensp;</p>","-","viewing","0","7","6B,18B,22C,24C,29A","","","","","","","","","","","","","","","","","","","","","",""
"","","","","","html-slider-response","161","1300230","0.0-21.0-1.16","f0c1d36b-8865-48bb-84c6-e0a67079d0c1","1712","
                  <p style=""text-align: center;"">₪11
                                                <br>75%</p>
                  <p id=""wtp"" style=""text-align:center; margin-top: 0px; margin-bottom: 0px; font-size: 40px"";>מוכנים לשלם: <span id=""c_p_y""></span></p>","0","evaluation","31","7","6B,18B,22C,24C,29A","75","11","0","","","","","","","","","","","","","","","","","","",""
"","","","","","html-keyboard-response","162","1300930","0.0-21.0-2.16","f0c1d36b-8865-48bb-84c6-e0a67079d0c1","null","<p style=""text-align: center;"">+</p>","null","fixation","","","","","","","","","","","","","","","","","","","","","","","","",""
"","","","","","html-slider-response","163","1301943","0.0-21.0-0.17","f0c1d36b-8865-48bb-84c6-e0a67079d0c1","1000","
                  <p style=""text-align: center;"">₪39
                                                <br>65%</p>
                  <p id=""wtp"" style=""text-align:center; margin-top: 0px; margin-bottom: 0px; font-size: 40px"";>&ensp;</p>","-","viewing","0","16","1A,15A,26C","","","","","","","","","","","","","","","","","","","","","",""
"","","","","","html-slider-response","164","1304894","0.0-21.0-1.17","f0c1d36b-8865-48bb-84c6-e0a67079d0c1","2950","
                  <p style=""text-align: center;"">₪39
                                                <br>65%</p>
                  <p id=""wtp"" style=""text-align:center; margin-top: 0px; margin-bottom: 0px; font-size: 40px"";>מוכנים לשלם: <span id=""c_p_y""></span></p>","11","evaluation","7","16","1A,15A,26C","65","39","11","","","","","","","","","","","","","","","","","","",""
"","","","","","html-keyboard-response","165","1306018","0.0-21.0-2.17","f0c1d36b-8865-48bb-84c6-e0a67079d0c1","null","<p style=""text-align: center;"">+</p>","null","fixation","","","","","","","","","","","","","","","","","","","","","","","","",""
"","","","","","html-slider-response","166","1307031","0.0-21.0-0.18","f0c1d36b-8865-48bb-84c6-e0a67079d0c1","1000","
                  <p style=""text-align: center;"">₪79
                                                <br>65%</p>
                  <p id=""wtp"" style=""text-align:center; margin-top: 0px; margin-bottom: 0px; font-size: 40px"";>&ensp;</p>","-","viewing","0","31","8A","","","","","","","","","","","","","","","","","","","","","",""
"","","","","","html-slider-response","167","1309334","0.0-21.0-1.18","f0c1d36b-8865-48bb-84c6-e0a67079d0c1","2301","
                  <p style=""text-align: center;"">₪79
                                                <br>65%</p>
                  <p id=""wtp"" style=""text-align:center; margin-top: 0px; margin-bottom: 0px; font-size: 40px"";>מוכנים לשלם: <span id=""c_p_y""></span></p>","9","evaluation","37","31","8A","65","79","10","","","","","","","","","","","","","","","","","","",""
"","","","","","html-keyboard-response","168","1310431","0.0-21.0-2.18","f0c1d36b-8865-48bb-84c6-e0a67079d0c1","null","<p style=""text-align: center;"">+</p>","null","fixation","","","","","","","","","","","","","","","","","","","","","","","","",""
"","","","","","html-slider-response","169","1311439","0.0-21.0-0.19","f0c1d36b-8865-48bb-84c6-e0a67079d0c1","1000","
                  <p style=""text-align: center;"">₪43
                                                <br>60%</p>
                  <p id=""wtp"" style=""text-align:center; margin-top: 0px; margin-bottom: 0px; font-size: 40px"";>&ensp;</p>","-","viewing","0","17","2A,7A,9A,15B","","","","","","","","","","","","","","","","","","","","","",""
"","","","","","html-slider-response","170","1315062","0.0-21.0-1.19","f0c1d36b-8865-48bb-84c6-e0a67079d0c1","3621","
                  <p style=""text-align: center;"">₪43
                                                <br>60%</p>
                  <p id=""wtp"" style=""text-align:center; margin-top: 0px; margin-bottom: 0px; font-size: 40px"";>מוכנים לשלם: <span id=""c_p_y""></span></p>","17","evaluation","50","17","2A,7A,9A,15B","60","43","17","","","","","","","","","","","","","","","","","","",""
"","","","","","html-keyboard-response","171","1316255","0.0-21.0-2.19","f0c1d36b-8865-48bb-84c6-e0a67079d0c1","null","<p style=""text-align: center;"">+</p>","null","fixation","","","","","","","","","","","","","","","","","","","","","","","","",""
"","","","","","html-slider-response","172","1317264","0.0-21.0-0.20","f0c1d36b-8865-48bb-84c6-e0a67079d0c1","1000","
                  <p style=""text-align: center;"">₪58
                                                <br>45%</p>
                  <p id=""wtp"" style=""text-align:center; margin-top: 0px; margin-bottom: 0px; font-size: 40px"";>&ensp;</p>","-","viewing","0","21","11C,18C,25A","","","","","","","","","","","","","","","","","","","","","",""
"","","","","","html-slider-response","173","1319422","0.0-21.0-1.20","f0c1d36b-8865-48bb-84c6-e0a67079d0c1","2157","
                  <p style=""text-align: center;"">₪58
                                                <br>45%</p>
                  <p id=""wtp"" style=""text-align:center; margin-top: 0px; margin-bottom: 0px; font-size: 40px"";>מוכנים לשלם: <span id=""c_p_y""></span></p>","23","evaluation","41","21","11C,18C,25A","45","58","23","","","","","","","","","","","","","","","","","","",""
"","","","","","html-keyboard-response","174","1320127","0.0-21.0-2.20","f0c1d36b-8865-48bb-84c6-e0a67079d0c1","null","<p style=""text-align: center;"">+</p>","null","fixation","","","","","","","","","","","","","","","","","","","","","","","","",""
"","","","","","html-slider-response","175","1321132","0.0-21.0-0.21","f0c1d36b-8865-48bb-84c6-e0a67079d0c1","1000","
                  <p style=""text-align: center;"">₪39
                                                <br>60%</p>
                  <p id=""wtp"" style=""text-align:center; margin-top: 0px; margin-bottom: 0px; font-size: 40px"";>&ensp;</p>","-","viewing","0","15","9C,25B","","","","","","","","","","","","","","","","","","","","","",""
"","","","","","html-slider-response","176","1324190","0.0-21.0-1.21","f0c1d36b-8865-48bb-84c6-e0a67079d0c1","3057","
                  <p style=""text-align: center;"">₪39
                                                <br>60%</p>
                  <p id=""wtp"" style=""text-align:center; margin-top: 0px; margin-bottom: 0px; font-size: 40px"";>מוכנים לשלם: <span id=""c_p_y""></span></p>","16","evaluation","47","15","9C,25B","60","39","17","","","","","","","","","","","","","","","","","","",""
"","","","","","html-keyboard-response","177","1324820","0.0-21.0-2.21","f0c1d36b-8865-48bb-84c6-e0a67079d0c1","null","<p style=""text-align: center;"">+</p>","null","fixation","","","","","","","","","","","","","","","","","","","","","","","","",""
"","","","","","html-slider-response","178","1325836","0.0-21.0-0.22","f0c1d36b-8865-48bb-84c6-e0a67079d0c1","1000","
                  <p style=""text-align: center;"">₪64
                                                <br>50%</p>
                  <p id=""wtp"" style=""text-align:center; margin-top: 0px; margin-bottom: 0px; font-size: 40px"";>&ensp;</p>","-","viewing","0","25","1B,3B,4A","","","","","","","","","","","","","","","","","","","","","",""
"","","","","","html-slider-response","179","1327510","0.0-21.0-1.22","f0c1d36b-8865-48bb-84c6-e0a67079d0c1","1672","
                  <p style=""text-align: center;"">₪64
                                                <br>50%</p>
                  <p id=""wtp"" style=""text-align:center; margin-top: 0px; margin-bottom: 0px; font-size: 40px"";>מוכנים לשלם: <span id=""c_p_y""></span></p>","34","evaluation","1","25","1B,3B,4A","50","64","34","","","","","","","","","","","","","","","","","","",""
"","","","","","html-keyboard-response","180","1329006","0.0-21.0-2.22","f0c1d36b-8865-48bb-84c6-e0a67079d0c1","null","<p style=""text-align: center;"">+</p>","null","fixation","","","","","","","","","","","","","","","","","","","","","","","","",""
"","","","","","html-slider-response","181","1330008","0.0-21.0-0.23","f0c1d36b-8865-48bb-84c6-e0a67079d0c1","1000","
                  <p style=""text-align: center;"">₪4
                                                <br>75%</p>
                  <p id=""wtp"" style=""text-align:center; margin-top: 0px; margin-bottom: 0px; font-size: 40px"";>&ensp;</p>","-","viewing","0","3","12B,20B,23B,27C,29C","","","","","","","","","","","","","","","","","","","","","",""
"","","","","","html-slider-response","182","1331110","0.0-21.0-1.23","f0c1d36b-8865-48bb-84c6-e0a67079d0c1","1101","
                  <p style=""text-align: center;"">₪4
                                                <br>75%</p>
                  <p id=""wtp"" style=""text-align:center; margin-top: 0px; margin-bottom: 0px; font-size: 40px"";>מוכנים לשלם: <span id=""c_p_y""></span></p>","0","evaluation","78","3","12B,20B,23B,27C,29C","75","4","0","","","","","","","","","","","","","","","","","","",""
"","","","","","html-keyboard-response","183","1332141","0.0-21.0-2.23","f0c1d36b-8865-48bb-84c6-e0a67079d0c1","null","<p style=""text-align: center;"">+</p>","null","fixation","","","","","","","","","","","","","","","","","","","","","","","","",""
"","","","","","html-slider-response","184","1333158","0.0-21.0-0.24","f0c1d36b-8865-48bb-84c6-e0a67079d0c1","1000","
                  <p style=""text-align: center;"">₪11
                                                <br>45%</p>
                  <p id=""wtp"" style=""text-align:center; margin-top: 0px; margin-bottom: 0px; font-size: 40px"";>&ensp;</p>","-","viewing","0","6","14B,21C,25C","","","","","","","","","","","","","","","","","","","","","",""
"","","","","","html-slider-response","185","1334670","0.0-21.0-1.24","f0c1d36b-8865-48bb-84c6-e0a67079d0c1","1511","
                  <p style=""text-align: center;"">₪11
                                                <br>45%</p>
                  <p id=""wtp"" style=""text-align:center; margin-top: 0px; margin-bottom: 0px; font-size: 40px"";>מוכנים לשלם: <span id=""c_p_y""></span></p>","0","evaluation","3","6","14B,21C,25C","45","11","0","","","","","","","","","","","","","","","","","","",""
"","","","","","html-keyboard-response","186","1336011","0.0-21.0-2.24","f0c1d36b-8865-48bb-84c6-e0a67079d0c1","null","<p style=""text-align: center;"">+</p>","null","fixation","","","","","","","","","","","","","","","","","","","","","","","","",""
"","","","","","html-slider-response","187","1337022","0.0-21.0-0.25","f0c1d36b-8865-48bb-84c6-e0a67079d0c1","1000","
                  <p style=""text-align: center;"">₪36
                                                <br>30%</p>
                  <p id=""wtp"" style=""text-align:center; margin-top: 0px; margin-bottom: 0px; font-size: 40px"";>&ensp;</p>","-","viewing","0","11","3C,20A,22A","","","","","","","","","","","","","","","","","","","","","",""
"","","","","","html-slider-response","188","1340278","0.0-21.0-1.25","f0c1d36b-8865-48bb-84c6-e0a67079d0c1","3256","
                  <p style=""text-align: center;"">₪36
                                                <br>30%</p>
                  <p id=""wtp"" style=""text-align:center; margin-top: 0px; margin-bottom: 0px; font-size: 40px"";>מוכנים לשלם: <span id=""c_p_y""></span></p>","4","evaluation","27","11","3C,20A,22A","30","36","4","","","","","","","","","","","","","","","","","","",""
"","","","","","html-keyboard-response","189","1341619","0.0-21.0-2.25","f0c1d36b-8865-48bb-84c6-e0a67079d0c1","null","<p style=""text-align: center;"">+</p>","null","fixation","","","","","","","","","","","","","","","","","","","","","","","","",""
"","","","","","html-slider-response","190","1342639","0.0-21.0-0.26","f0c1d36b-8865-48bb-84c6-e0a67079d0c1","1000","
                  <p style=""text-align: center;"">₪71
                                                <br>55%</p>
                  <p id=""wtp"" style=""text-align:center; margin-top: 0px; margin-bottom: 0px; font-size: 40px"";>&ensp;</p>","-","viewing","0","27","5B,18A","","","","","","","","","","","","","","","","","","","","","",""
"","","","","","html-slider-response","191","1345358","0.0-21.0-1.26","f0c1d36b-8865-48bb-84c6-e0a67079d0c1","2717","
                  <p style=""text-align: center;"">₪71
                                                <br>55%</p>
                  <p id=""wtp"" style=""text-align:center; margin-top: 0px; margin-bottom: 0px; font-size: 40px"";>מוכנים לשלם: <span id=""c_p_y""></span></p>","30","evaluation","26","27","5B,18A","55","71","30","","","","","","","","","","","","","","","","","","",""
"","","","","","html-keyboard-response","192","1346688","0.0-21.0-2.26","f0c1d36b-8865-48bb-84c6-e0a67079d0c1","null","<p style=""text-align: center;"">+</p>","null","fixation","","","","","","","","","","","","","","","","","","","","","","","","",""
"","","","","","html-slider-response","193","1347697","0.0-21.0-0.27","f0c1d36b-8865-48bb-84c6-e0a67079d0c1","1000","
                  <p style=""text-align: center;"">₪36
                                                <br>60%</p>
                  <p id=""wtp"" style=""text-align:center; margin-top: 0px; margin-bottom: 0px; font-size: 40px"";>&ensp;</p>","-","viewing","0","12","1C,7C,15C","","","","","","","","","","","","","","","","","","","","","",""
"","","","","","html-slider-response","194","1350022","0.0-21.0-1.27","f0c1d36b-8865-48bb-84c6-e0a67079d0c1","2323","
                  <p style=""text-align: center;"">₪36
                                                <br>60%</p>
                  <p id=""wtp"" style=""text-align:center; margin-top: 0px; margin-bottom: 0px; font-size: 40px"";>מוכנים לשלם: <span id=""c_p_y""></span></p>","8","evaluation","66","12","1C,7C,15C","60","36","8","","","","","","","","","","","","","","","","","","",""
"","","","","","html-keyboard-response","195","1350994","0.0-21.0-2.27","f0c1d36b-8865-48bb-84c6-e0a67079d0c1","null","<p style=""text-align: center;"">+</p>","null","fixation","","","","","","","","","","","","","","","","","","","","","","","","",""
"","","","","","html-slider-response","196","1351999","0.0-21.0-0.28","f0c1d36b-8865-48bb-84c6-e0a67079d0c1","1000","
                  <p style=""text-align: center;"">₪79
                                                <br>40%</p>
                  <p id=""wtp"" style=""text-align:center; margin-top: 0px; margin-bottom: 0px; font-size: 40px"";>&ensp;</p>","-","viewing","0","30","9B","","","","","","","","","","","","","","","","","","","","","",""
"","","","","","html-slider-response","197","1354286","0.0-21.0-1.28","f0c1d36b-8865-48bb-84c6-e0a67079d0c1","2286","
                  <p style=""text-align: center;"">₪79
                                                <br>40%</p>
                  <p id=""wtp"" style=""text-align:center; margin-top: 0px; margin-bottom: 0px; font-size: 40px"";>מוכנים לשלם: <span id=""c_p_y""></span></p>","6","evaluation","28","30","9B","40","79","6","","","","","","","","","","","","","","","","","","",""
"","","","","","html-keyboard-response","198","1355043","0.0-21.0-2.28","f0c1d36b-8865-48bb-84c6-e0a67079d0c1","null","<p style=""text-align: center;"">+</p>","null","fixation","","","","","","","","","","","","","","","","","","","","","","","","",""
"","","","","","html-slider-response","199","1356052","0.0-21.0-0.29","f0c1d36b-8865-48bb-84c6-e0a67079d0c1","1000","
                  <p style=""text-align: center;"">₪61
                                                <br>55%</p>
                  <p id=""wtp"" style=""text-align:center; margin-top: 0px; margin-bottom: 0px; font-size: 40px"";>&ensp;</p>","-","viewing","0","23","7B,26B","","","","","","","","","","","","","","","","","","","","","",""
"","","","","","html-slider-response","200","1357502","0.0-21.0-1.29","f0c1d36b-8865-48bb-84c6-e0a67079d0c1","1448","
                  <p style=""text-align: center;"">₪61
                                                <br>55%</p>
                  <p id=""wtp"" style=""text-align:center; margin-top: 0px; margin-bottom: 0px; font-size: 40px"";>מוכנים לשלם: <span id=""c_p_y""></span></p>","29","evaluation","37","23","7B,26B","55","61","29","","","","","","","","","","","","","","","","","","",""
"","","","","","html-keyboard-response","201","1358476","0.0-21.0-2.29","f0c1d36b-8865-48bb-84c6-e0a67079d0c1","null","<p style=""text-align: center;"">+</p>","null","fixation","","","","","","","","","","","","","","","","","","","","","","","","",""
"","","","","","html-slider-response","202","1359491","0.0-21.0-0.30","f0c1d36b-8865-48bb-84c6-e0a67079d0c1","1000","
                  <p style=""text-align: center;"">₪64
                                                <br>25%</p>
                  <p id=""wtp"" style=""text-align:center; margin-top: 0px; margin-bottom: 0px; font-size: 40px"";>&ensp;</p>","-","viewing","0","24","6A,21A","","","","","","","","","","","","","","","","","","","","","",""
"","","","","","html-slider-response","203","1361534","0.0-21.0-1.30","f0c1d36b-8865-48bb-84c6-e0a67079d0c1","2042","
                  <p style=""text-align: center;"">₪64
                                                <br>25%</p>
                  <p id=""wtp"" style=""text-align:center; margin-top: 0px; margin-bottom: 0px; font-size: 40px"";>מוכנים לשלם: <span id=""c_p_y""></span></p>","10","evaluation","37","24","6A,21A","25","64","10","","","","","","","","","","","","","","","","","","",""
"","","","","","html-keyboard-response","204","1362772","0.0-21.0-2.30","f0c1d36b-8865-48bb-84c6-e0a67079d0c1","null","<p style=""text-align: center;"">+</p>","null","fixation","","","","","","","","","","","","","","","","","","","","","","","","",""
"","","","","","html-keyboard-response","205","1363777","0.0-22.0","f0c1d36b-8865-48bb-84c6-e0a67079d0c1","null","<p style=""text-align: center;"">+</p>","null","fixation","","","","","","","","","","","","","","","","","","","","","","","","",""
"","","","","","html-keyboard-response","206","1364958","0.0-23.0","f0c1d36b-8865-48bb-84c6-e0a67079d0c1","null","<p>הפסקה.
          <br>לחצו כדי להמשיך.</p>","1","scan_wait","","","","","","","","","","","","","","","","","","","","","","","","",""
"","","","","","html-keyboard-response","207","1365960","0.0-24.0","f0c1d36b-8865-48bb-84c6-e0a67079d0c1","null","<p style=""text-align: center;"">+</p>","null","fixation","","","","","","","","","","","","","","","","","","","","","","","","",""
"","","","","","html-slider-response","208","1366966","0.0-25.0-0.0","f0c1d36b-8865-48bb-84c6-e0a67079d0c1","1000","
                  <p style=""text-align: center;"">₪71
                                                <br>75%</p>
                  <p id=""wtp"" style=""text-align:center; margin-top: 0px; margin-bottom: 0px; font-size: 40px"";>&ensp;</p>","-","viewing","0","28","8B","","","","","","","","","","","","","","","","","","","","","",""
"","","","","","html-slider-response","209","1369358","0.0-25.0-1.0","f0c1d36b-8865-48bb-84c6-e0a67079d0c1","2392","
                  <p style=""text-align: center;"">₪71
                                                <br>75%</p>
                  <p id=""wtp"" style=""text-align:center; margin-top: 0px; margin-bottom: 0px; font-size: 40px"";>מוכנים לשלם: <span id=""c_p_y""></span></p>","32","evaluation","7","28","8B","75","71","32","","","","","","","","","","","","","","","","","","",""
"","","","","","html-keyboard-response","210","1370817","0.0-25.0-2.0","f0c1d36b-8865-48bb-84c6-e0a67079d0c1","null","<p style=""text-align: center;"">+</p>","null","fixation","","","","","","","","","","","","","","","","","","","","","","","","",""
"","","","","","html-slider-response","211","1371821","0.0-25.0-0.1","f0c1d36b-8865-48bb-84c6-e0a67079d0c1","1000","
                  <p style=""text-align: center;"">₪36
                                                <br>30%</p>
                  <p id=""wtp"" style=""text-align:center; margin-top: 0px; margin-bottom: 0px; font-size: 40px"";>&ensp;</p>","-","viewing","0","11","3C,20A,22A","","","","","","","","","","","","","","","","","","","","","",""
"","","","","","html-slider-response","212","1373542","0.0-25.0-1.1","f0c1d36b-8865-48bb-84c6-e0a67079d0c1","1720","
                  <p style=""text-align: center;"">₪36
                                                <br>30%</p>
                  <p id=""wtp"" style=""text-align:center; margin-top: 0px; margin-bottom: 0px; font-size: 40px"";>מוכנים לשלם: <span id=""c_p_y""></span></p>","10","evaluation","75","11","3C,20A,22A","30","36","10","","","","","","","","","","","","","","","","","","",""
"","","","","","html-keyboard-response","213","1374890","0.0-25.0-2.1","f0c1d36b-8865-48bb-84c6-e0a67079d0c1","null","<p style=""text-align: center;"">+</p>","null","fixation","","","","","","","","","","","","","","","","","","","","","","","","",""
"","","","","","html-slider-response","214","1375903","0.0-25.0-0.2","f0c1d36b-8865-48bb-84c6-e0a67079d0c1","1000","
                  <p style=""text-align: center;"">₪61
                                                <br>55%</p>
                  <p id=""wtp"" style=""text-align:center; margin-top: 0px; margin-bottom: 0px; font-size: 40px"";>&ensp;</p>","-","viewing","0","23","7B,26B","","","","","","","","","","","","","","","","","","","","","",""
"","","","","","html-slider-response","215","1377750","0.0-25.0-1.2","f0c1d36b-8865-48bb-84c6-e0a67079d0c1","1845","
                  <p style=""text-align: center;"">₪61
                                                <br>55%</p>
                  <p id=""wtp"" style=""text-align:center; margin-top: 0px; margin-bottom: 0px; font-size: 40px"";>מוכנים לשלם: <span id=""c_p_y""></span></p>","30","evaluation","51","23","7B,26B","55","61","30","","","","","","","","","","","","","","","","","","",""
"","","","","","html-keyboard-response","216","1378540","0.0-25.0-2.2","f0c1d36b-8865-48bb-84c6-e0a67079d0c1","null","<p style=""text-align: center;"">+</p>","null","fixation","","","","","","","","","","","","","","","","","","","","","","","","",""
"","","","","","html-slider-response","217","1379546","0.0-25.0-0.3","f0c1d36b-8865-48bb-84c6-e0a67079d0c1","1000","
                  <p style=""text-align: center;"">₪64
                                                <br>50%</p>
                  <p id=""wtp"" style=""text-align:center; margin-top: 0px; margin-bottom: 0px; font-size: 40px"";>&ensp;</p>","-","viewing","0","25","1B,3B,4A","","","","","","","","","","","","","","","","","","","","","",""
"","","","","","html-slider-response","218","1382006","0.0-25.0-1.3","f0c1d36b-8865-48bb-84c6-e0a67079d0c1","2459","
                  <p style=""text-align: center;"">₪64
                                                <br>50%</p>
                  <p id=""wtp"" style=""text-align:center; margin-top: 0px; margin-bottom: 0px; font-size: 40px"";>מוכנים לשלם: <span id=""c_p_y""></span></p>","13","evaluation","49","25","1B,3B,4A","50","64","13","","","","","","","","","","","","","","","","","","",""
"","","","","","html-keyboard-response","219","1383300","0.0-25.0-2.3","f0c1d36b-8865-48bb-84c6-e0a67079d0c1","null","<p style=""text-align: center;"">+</p>","null","fixation","","","","","","","","","","","","","","","","","","","","","","","","",""
"","","","","","html-slider-response","220","1384314","0.0-25.0-0.4","f0c1d36b-8865-48bb-84c6-e0a67079d0c1","1000","
                  <p style=""text-align: center;"">₪18
                                                <br>50%</p>
                  <p id=""wtp"" style=""text-align:center; margin-top: 0px; margin-bottom: 0px; font-size: 40px"";>&ensp;</p>","-","viewing","0","10","2C,16C,22B,28A","","","","","","","","","","","","","","","","","","","","","",""
"","","","","","html-slider-response","221","1386910","0.0-25.0-1.4","f0c1d36b-8865-48bb-84c6-e0a67079d0c1","2595","
                  <p style=""text-align: center;"">₪18
                                                <br>50%</p>
                  <p id=""wtp"" style=""text-align:center; margin-top: 0px; margin-bottom: 0px; font-size: 40px"";>מוכנים לשלם: <span id=""c_p_y""></span></p>","7","evaluation","71","10","2C,16C,22B,28A","50","18","7","","","","","","","","","","","","","","","","","","",""
"","","","","","html-keyboard-response","222","1387961","0.0-25.0-2.4","f0c1d36b-8865-48bb-84c6-e0a67079d0c1","null","<p style=""text-align: center;"">+</p>","null","fixation","","","","","","","","","","","","","","","","","","","","","","","","",""
"","","","","","html-slider-response","223","1388967","0.0-25.0-0.5","f0c1d36b-8865-48bb-84c6-e0a67079d0c1","1000","
                  <p style=""text-align: center;"">₪36
                                                <br>75%</p>
                  <p id=""wtp"" style=""text-align:center; margin-top: 0px; margin-bottom: 0px; font-size: 40px"";>&ensp;</p>","-","viewing","0","14","4B,5A,13B,16B","","","","","","","","","","","","","","","","","","","","","",""
"","","","","","html-slider-response","224","1390661","0.0-25.0-1.5","f0c1d36b-8865-48bb-84c6-e0a67079d0c1","1693","
                  <p style=""text-align: center;"">₪36
                                                <br>75%</p>
                  <p id=""wtp"" style=""text-align:center; margin-top: 0px; margin-bottom: 0px; font-size: 40px"";>מוכנים לשלם: <span id=""c_p_y""></span></p>","6","evaluation","74","14","4B,5A,13B,16B","75","36","7","","","","","","","","","","","","","","","","","","",""
"","","","","","html-keyboard-response","225","1391988","0.0-25.0-2.5","f0c1d36b-8865-48bb-84c6-e0a67079d0c1","null","<p style=""text-align: center;"">+</p>","null","fixation","","","","","","","","","","","","","","","","","","","","","","","","",""
"","","","","","html-slider-response","226","1393001","0.0-25.0-0.6","f0c1d36b-8865-48bb-84c6-e0a67079d0c1","1000","
                  <p style=""text-align: center;"">₪36
                                                <br>60%</p>
                  <p id=""wtp"" style=""text-align:center; margin-top: 0px; margin-bottom: 0px; font-size: 40px"";>&ensp;</p>","-","viewing","0","12","1C,7C,15C","","","","","","","","","","","","","","","","","","","","","",""
"","","","","","html-slider-response","227","1395045","0.0-25.0-1.6","f0c1d36b-8865-48bb-84c6-e0a67079d0c1","2043","
                  <p style=""text-align: center;"">₪36
                                                <br>60%</p>
                  <p id=""wtp"" style=""text-align:center; margin-top: 0px; margin-bottom: 0px; font-size: 40px"";>מוכנים לשלם: <span id=""c_p_y""></span></p>","10","evaluation","3","12","1C,7C,15C","60","36","10","","","","","","","","","","","","","","","","","","",""
"","","","","","html-keyboard-response","228","1396049","0.0-25.0-2.6","f0c1d36b-8865-48bb-84c6-e0a67079d0c1","null","<p style=""text-align: center;"">+</p>","null","fixation","","","","","","","","","","","","","","","","","","","","","","","","",""
"","","","","","html-slider-response","229","1397062","0.0-25.0-0.7","f0c1d36b-8865-48bb-84c6-e0a67079d0c1","1000","
                  <p style=""text-align: center;"">₪11
                                                <br>25%</p>
                  <p id=""wtp"" style=""text-align:center; margin-top: 0px; margin-bottom: 0px; font-size: 40px"";>&ensp;</p>","-","viewing","0","5","12A,27B,28B,30B","","","","","","","","","","","","","","","","","","","","","",""
"","","","","","html-slider-response","230","1398501","0.0-25.0-1.7","f0c1d36b-8865-48bb-84c6-e0a67079d0c1","1438","
                  <p style=""text-align: center;"">₪11
                                                <br>25%</p>
                  <p id=""wtp"" style=""text-align:center; margin-top: 0px; margin-bottom: 0px; font-size: 40px"";>מוכנים לשלם: <span id=""c_p_y""></span></p>","0","evaluation","8","5","12A,27B,28B,30B","25","11","0","","","","","","","","","","","","","","","","","","",""
"","","","","","html-keyboard-response","231","1399613","0.0-25.0-2.7","f0c1d36b-8865-48bb-84c6-e0a67079d0c1","null","<p style=""text-align: center;"">+</p>","null","fixation","","","","","","","","","","","","","","","","","","","","","","","","",""
"","","","","","html-slider-response","232","1400614","0.0-25.0-0.8","f0c1d36b-8865-48bb-84c6-e0a67079d0c1","1000","
                  <p style=""text-align: center;"">₪71
                                                <br>45%</p>
                  <p id=""wtp"" style=""text-align:center; margin-top: 0px; margin-bottom: 0px; font-size: 40px"";>&ensp;</p>","-","viewing","0","26","2B,16A","","","","","","","","","","","","","","","","","","","","","",""
"","","","","","html-slider-response","233","1402861","0.0-25.0-1.8","f0c1d36b-8865-48bb-84c6-e0a67079d0c1","2246","
                  <p style=""text-align: center;"">₪71
                                                <br>45%</p>
                  <p id=""wtp"" style=""text-align:center; margin-top: 0px; margin-bottom: 0px; font-size: 40px"";>מוכנים לשלם: <span id=""c_p_y""></span></p>","20","evaluation","30","26","2B,16A","45","71","20","","","","","","","","","","","","","","","","","","",""
"","","","","","html-keyboard-response","234","1404208","0.0-25.0-2.8","f0c1d36b-8865-48bb-84c6-e0a67079d0c1","null","<p style=""text-align: center;"">+</p>","null","fixation","","","","","","","","","","","","","","","","","","","","","","","","",""
"","","","","","html-slider-response","235","1405221","0.0-25.0-0.9","f0c1d36b-8865-48bb-84c6-e0a67079d0c1","1000","
                  <p style=""text-align: center;"">₪58
                                                <br>40%</p>
                  <p id=""wtp"" style=""text-align:center; margin-top: 0px; margin-bottom: 0px; font-size: 40px"";>&ensp;</p>","-","viewing","0","20","10C,13A,19C,21B","","","","","","","","","","","","","","","","","","","","","",""
"","","","","","html-slider-response","236","1407805","0.0-25.0-1.9","f0c1d36b-8865-48bb-84c6-e0a67079d0c1","2583","
                  <p style=""text-align: center;"">₪58
                                                <br>40%</p>
                  <p id=""wtp"" style=""text-align:center; margin-top: 0px; margin-bottom: 0px; font-size: 40px"";>מוכנים לשלם: <span id=""c_p_y""></span></p>","5","evaluation","46","20","10C,13A,19C,21B","40","58","6","","","","","","","","","","","","","","","","","","",""
"","","","","","html-keyboard-response","237","1408838","0.0-25.0-2.9","f0c1d36b-8865-48bb-84c6-e0a67079d0c1","null","<p style=""text-align: center;"">+</p>","null","fixation","","","","","","","","","","","","","","","","","","","","","","","","",""
"","","","","","html-slider-response","238","1409839","0.0-25.0-0.10","f0c1d36b-8865-48bb-84c6-e0a67079d0c1","1000","
                  <p style=""text-align: center;"">₪11
                                                <br>75%</p>
                  <p id=""wtp"" style=""text-align:center; margin-top: 0px; margin-bottom: 0px; font-size: 40px"";>&ensp;</p>","-","viewing","0","7","6B,18B,22C,24C,29A","","","","","","","","","","","","","","","","","","","","","",""
"","","","","","html-slider-response","239","1411021","0.0-25.0-1.10","f0c1d36b-8865-48bb-84c6-e0a67079d0c1","1181","
                  <p style=""text-align: center;"">₪11
                                                <br>75%</p>
                  <p id=""wtp"" style=""text-align:center; margin-top: 0px; margin-bottom: 0px; font-size: 40px"";>מוכנים לשלם: <span id=""c_p_y""></span></p>","0","evaluation","33","7","6B,18B,22C,24C,29A","75","11","0","","","","","","","","","","","","","","","","","","",""
"","","","","","html-keyboard-response","240","1412066","0.0-25.0-2.10","f0c1d36b-8865-48bb-84c6-e0a67079d0c1","null","<p style=""text-align: center;"">+</p>","null","fixation","","","","","","","","","","","","","","","","","","","","","","","","",""
"","","","","","html-slider-response","241","1413077","0.0-25.0-0.11","f0c1d36b-8865-48bb-84c6-e0a67079d0c1","1000","
                  <p style=""text-align: center;"">₪71
                                                <br>55%</p>
                  <p id=""wtp"" style=""text-align:center; margin-top: 0px; margin-bottom: 0px; font-size: 40px"";>&ensp;</p>","-","viewing","0","27","5B,18A","","","","","","","","","","","","","","","","","","","","","",""
"","","","","","html-slider-response","242","1415901","0.0-25.0-1.11","f0c1d36b-8865-48bb-84c6-e0a67079d0c1","2823","
                  <p style=""text-align: center;"">₪71
                                                <br>55%</p>
                  <p id=""wtp"" style=""text-align:center; margin-top: 0px; margin-bottom: 0px; font-size: 40px"";>מוכנים לשלם: <span id=""c_p_y""></span></p>","20","evaluation","37","27","5B,18A","55","71","20","","","","","","","","","","","","","","","","","","",""
"","","","","","html-keyboard-response","243","1417036","0.0-25.0-2.11","f0c1d36b-8865-48bb-84c6-e0a67079d0c1","null","<p style=""text-align: center;"">+</p>","null","fixation","","","","","","","","","","","","","","","","","","","","","","","","",""
"","","","","","html-slider-response","244","1418050","0.0-25.0-0.12","f0c1d36b-8865-48bb-84c6-e0a67079d0c1","1000","
                  <p style=""text-align: center;"">₪79
                                                <br>40%</p>
                  <p id=""wtp"" style=""text-align:center; margin-top: 0px; margin-bottom: 0px; font-size: 40px"";>&ensp;</p>","-","viewing","0","30","9B","","","","","","","","","","","","","","","","","","","","","",""
"","","","","","html-slider-response","245","1421485","0.0-25.0-1.12","f0c1d36b-8865-48bb-84c6-e0a67079d0c1","3435","
                  <p style=""text-align: center;"">₪79
