"success","timeout","failed_images","failed_audio","failed_video","trial_type","trial_index","time_elapsed","internal_node_id","subject_id","rt","stimulus","response","part","slider_start","ID","set_ID","prob","amount","last_location","actual_choice","actual_EV","binary_id","trinary_id","catch","A_key","D_key","choice_prob","choice_amount","potential_prize_prob","potential_prize_amount","won_prize","total_prize","remaining_budget","accuracy"
"true","false","[]","[]","[]","preload","0","9","0.0-0.0","68dec006-5b04-4a9f-ac27-0939355af33c","","","","","","","","","","","","","","","","","","","","","","","","",""
"","","","","","html-keyboard-response","1","16099","0.0-1.0","68dec006-5b04-4a9f-ac27-0939355af33c","null","
          <h1>שלום וברוכים הבאים!</h1>
          <p>לפניכם ניסוי בקבלת החלטות עם שני חלקים.
          <br><br>לחצו על העכבר כדי להמשיך.</p>","0","example","","","","","","","","","","","","","","","","","","","","",""
"","","","","","html-keyboard-response","2","25571","0.0-2.0","68dec006-5b04-4a9f-ac27-0939355af33c","null","
        <h1>חלק 1</h1>
        <p>בקרוב יוצגו בפניכם הגרלות.
        <br>עליכם לבחור את המחיר המירבי שתהיו מוכנים לשלם כדי להשתתף בהגרלה שתוצג.
        <br>יש לכם תקציב של ₪80 לכל הגרלה. 
        <br>נסו להעריך כל הגרלה בנפרד ולחשוב כמה היא שווה עבורכם, ₪80 זמינים לכל הגרלה בנפרד.
        <br><br>לחצו על העכבר כדי להמשיך.</p>","1","instructions","","","","","","","","","","","","","","","","","","","","",""
"","","","","","html-keyboard-response","3","35827","0.0-3.0","68dec006-5b04-4a9f-ac27-0939355af33c","null","
        <p>בסוף הניסוי, המחשב יבחר את אחת ההגרלות ויקבע מחיר לכרטיס עבורה. 
        <br>במידה והמחיר שבחרתם נמוך מהמחיר שנבחר על ידי המחשב, לא תשתתפו בהגרלה ותשארו עם מלוא התקציב.
        <br>במידה והמחיר שבחרתם גבוה מהמחיר שנבחר על ידי המחשב, תשלמו את המחיר שנקבע ותשתתפו בהגרלה.
        <br><br>לחצו על העכבר כדי להמשיך.</p>","1","instructions","","","","","","","","","","","","","","","","","","","","",""
"","","","","","html-slider-response","4","46116","0.0-4.0","68dec006-5b04-4a9f-ac27-0939355af33c","10175","
        <p style=""font-size: 42px;"">נתחיל עם דוגמא: 
        <br>ההגרלה מטה מציעה 65% סיכוי לזכות ב-₪40 
        <br>&emsp;&emsp;&emsp;&emsp;&emsp;&emsp;&emsp;&emsp;&ensp;35% סיכוי לזכות ב-₪0.
        <br><br>מה המחיר המירבי שתהיו מוכנים לשלם על כרטיס להגרלה זו בין 0 ל-₪80?
        <br>הזיזו את העכבר על פני המלבן ולחצו כדי לבצע בחירה.</p>
        
        <p style=""text-align: center;"">₪40<br>65%</p>

        <p id=""wtp"" style=""text-align:center; margin-top: 0px; margin-bottom: 0px; font-size: 40px"";>מוכנים לשלם: <span id=""c_p_y""></span></p>","56","example","2","","","","","","","","","","","","","","","","","","","",""
"","","","","","html-keyboard-response","5","55507","0.0-5.0","68dec006-5b04-4a9f-ac27-0939355af33c","null","<p>יפה מאוד!
                <br> בחרתם שתהיו מוכנים לשלם ₪56 כדי להשתתף בהגרלה:
                <br><p style=""text-align: center;"">₪40<br>65%</p>
                <p>נשמע נכון?
                <br>נניח שהגרלה זו נבחרה בסוף הניסוי.
                <br>כעת המחשב יקבע מחיר עבורה באקראי.
                <br>לחצו על העכבר להמשך.</p>","1","example","","","","","","","","","","","","","","","","","","","","",""
"","","","","","html-keyboard-response","6","64611","0.0-6.0","68dec006-5b04-4a9f-ac27-0939355af33c","null","<p>המחשב קבע מחיר: ₪68
                <br>ואתם בחרתם לשלם לכל היותר: ₪56
                <br><br>מכיוון שהמחיר שבחרתם נמוך מהמחיר שנקבע, לא תתשתתפו בהגרלה.
                <br>במקרה כזה, בסוף הניסוי תקבלו את כל התקציב ההתחלתי של ₪80.
                <br><br>לחצו על העכבר להמשך.</p>","1","example","","","","","","","","","","","","","","","","","","","","",""
"","","","","","html-slider-response","7","71723","0.0-7.0","68dec006-5b04-4a9f-ac27-0939355af33c","6846","<p style=""font-size: 42px;"">הנה עוד דוגמא:
                <br>ההגרלה מטה מציעה 35% סיכוי לזכות ב-₪18 
                <br>&emsp;&emsp;&emsp;&emsp;&emsp;&emsp;&emsp;&emsp;&ensp;65% סיכוי לזכות ב-₪0.</p>
        
                <p style=""text-align: center;"">₪18<br>35%</p>
                <p id=""wtp"" style=""text-align:center; margin-top: 0px; margin-bottom: 0px; font-size: 40px"";>מוכנים לשלם: <span id=""c_p_y""></span></p>","22","example","28","","","","","","","","","","","","","","","","","","","",""
"","","","","","html-keyboard-response","8","76699","0.0-8.0","68dec006-5b04-4a9f-ac27-0939355af33c","null","<p>הייתם מוכנים לשלם  ₪22 כדי להשתתף בהגרלה:
                <p style=""text-align: center;"">₪18<br>35%</p>
                <p>כעת נניח שהמחשב בחר את ההגרלה הזו בסוף הניסוי, וקבע עבורה מחיר.
                <br><br>לחצו על העכבר כדי להמשיך.</p>","1","instructions","","","","","","","","","","","","","","","","","","","","",""
"","","","","","html-keyboard-response","9","95539","0.0-9.0","68dec006-5b04-4a9f-ac27-0939355af33c","null","<p>המחשב קבע מחיר להגרלה: ₪5<br>ואתם בחרתם לשלם לכל היותר: ₪22
                <br><br>כעת המחיר שנקבע נמוך מזה שבחרתם, אז תשלמו את המחיר שקבע המחשב (₪5) ותשתתפו בהגרלה.
                <br>במקרה כזה, תסיימו את הניסוי עם תקציב של ₪75 ועם סיכוי לזכות ב-₪18 נוספים מההגרלה.
                <br>כלומר, תוכלו לקבל ₪75 אם לא תזכו בהגרלה, או ₪93 אם תזכו בהגרלה.
                <br><br>לחצו על העכבר להמשך.</p>","1","example","","","","","","","","","","","","","","","","","","","","",""
"","","","","","html-keyboard-response","10","102755","0.0-10.0","68dec006-5b04-4a9f-ac27-0939355af33c","null","<p>במהלך הניסוי, קודם תראו את ההגרלה ורק לאחר מכן תוכלו לבחור.
                <p>כמו כן, יהיו לכם מספר שניות מוגבל להגיב.
                <p>בואו ננסה זאת עם ההגרלה הקודמת.
                <br>לחצו על העכבר כדי להמשיך.</p>","1","instructions","","","","","","","","","","","","","","","","","","","","",""
"","","","","","html-slider-response","11","104012","0.0-11.0","68dec006-5b04-4a9f-ac27-0939355af33c","1000","
                    <p style=""text-align: center;"">₪18<br>35%</p>
                    <p id=""wtp"" style=""text-align:center; margin-top: 0px; margin-bottom: 0px; font-size: 40px"";>&ensp;</p>","41","instructions","0","","","","","","","","","","","","","","","","","","","",""
"","","","","","html-slider-response","12","106339","0.0-12.0","68dec006-5b04-4a9f-ac27-0939355af33c","2072","
                    <p style=""text-align: center;"">₪18<br>35%</p>
                    <p id=""wtp"" style=""text-align:center; margin-top: 0px; margin-bottom: 0px; font-size: 40px"";>מוכנים לשלם: <span id=""c_p_y""></span></p>","3","instructions","77","","","","","","","","","","","","","","","","","","","",""
"","","","","","html-keyboard-response","13","107843","0.0-13.0","68dec006-5b04-4a9f-ac27-0939355af33c","null","<p>יפה. הפעם בחרתם לשלם לכל היותר ₪3.
                <br><br>לחצו על העכבר כדי להמשיך.</p>","1","instructions","","","","","","","","","","","","","","","","","","","","",""
"","","","","","html-keyboard-response","14","114611","0.0-15.0","68dec006-5b04-4a9f-ac27-0939355af33c","null","<p>כעת נתחיל את הניסוי.
                <br><br>אתם תראו הגרלות ותתבקשו לבחור כמה תהיו מוכנים לשלם כדי להשתתף בהן.
                <br>יש לכם תקציב של ₪80 עבור כל הגרלה.
                <br>בסוף הניסוי הגרלה אחת תבחר באקראי ותשוחק.
                <br><br>לחצו על העכבר כדי להתחיל את הניסוי.</p>","1","instructions","","","","","","","","","","","","","","","","","","","","",""
"","","","","","html-keyboard-response","15","115892","0.0-16.0","68dec006-5b04-4a9f-ac27-0939355af33c","null","<p style=""text-align: center;"">+</p>","null","fixation","","","","","","","","","","","","","","","","","","","","",""
"","","","","","html-slider-response","16","116905","0.0-17.0-0.0","68dec006-5b04-4a9f-ac27-0939355af33c","1000","
                  <p style=""text-align: center;"">₪61
                                                <br>45%</p>
                  <p id=""wtp"" style=""text-align:center; margin-top: 0px; margin-bottom: 0px; font-size: 40px"";>&ensp;</p>","-","viewing","0","22","10A,11A","","","","","","","","","","","","","","","","","",""
"","","","","","html-slider-response","17","120907","0.0-17.0-1.0","68dec006-5b04-4a9f-ac27-0939355af33c","null","
                  <p style=""text-align: center;"">₪61
                                                <br>45%</p>
                  <p id=""wtp"" style=""text-align:center; margin-top: 0px; margin-bottom: 0px; font-size: 40px"";>מוכנים לשלם: <span id=""c_p_y""></span></p>","null","evaluation","15","22","10A,11A","45","61","42","","","","","","","","","","","","","","",""
"","","","","","html-keyboard-response","18","122139","0.0-17.0-2.0","68dec006-5b04-4a9f-ac27-0939355af33c","null","<p style=""text-align: center;"">+</p>","null","fixation","","","","","","","","","","","","","","","","","","","","",""
"","","","","","html-slider-response","19","123151","0.0-17.0-0.1","68dec006-5b04-4a9f-ac27-0939355af33c","1000","
                  <p style=""text-align: center;"">₪36
                                                <br>30%</p>
                  <p id=""wtp"" style=""text-align:center; margin-top: 0px; margin-bottom: 0px; font-size: 40px"";>&ensp;</p>","-","viewing","0","11","3C,20A,22A","","","","","","","","","","","","","","","","","",""
"","","","","","html-slider-response","20","124691","0.0-17.0-1.1","68dec006-5b04-4a9f-ac27-0939355af33c","1539","
                  <p style=""text-align: center;"">₪36
                                                <br>30%</p>
                  <p id=""wtp"" style=""text-align:center; margin-top: 0px; margin-bottom: 0px; font-size: 40px"";>מוכנים לשלם: <span id=""c_p_y""></span></p>","30","evaluation","68","11","3C,20A,22A","30","36","30","","","","","","","","","","","","","","",""
"","","","","","html-keyboard-response","21","126067","0.0-17.0-2.1","68dec006-5b04-4a9f-ac27-0939355af33c","null","<p style=""text-align: center;"">+</p>","null","fixation","","","","","","","","","","","","","","","","","","","","",""
"","","","","","html-slider-response","22","127073","0.0-17.0-0.2","68dec006-5b04-4a9f-ac27-0939355af33c","1000","
                  <p style=""text-align: center;"">₪71
                                                <br>75%</p>
                  <p id=""wtp"" style=""text-align:center; margin-top: 0px; margin-bottom: 0px; font-size: 40px"";>&ensp;</p>","-","viewing","0","28","8B","","","","","","","","","","","","","","","","","",""
"","","","","","html-slider-response","23","127827","0.0-17.0-1.2","68dec006-5b04-4a9f-ac27-0939355af33c","753","
                  <p style=""text-align: center;"">₪71
                                                <br>75%</p>
                  <p id=""wtp"" style=""text-align:center; margin-top: 0px; margin-bottom: 0px; font-size: 40px"";>מוכנים לשלם: <span id=""c_p_y""></span></p>","71","evaluation","30","28","8B","75","71","71","","","","","","","","","","","","","","",""
"","","","","","html-keyboard-response","24","128938","0.0-17.0-2.2","68dec006-5b04-4a9f-ac27-0939355af33c","null","<p style=""text-align: center;"">+</p>","null","fixation","","","","","","","","","","","","","","","","","","","","",""
"","","","","","html-slider-response","25","129944","0.0-17.0-0.3","68dec006-5b04-4a9f-ac27-0939355af33c","1000","
                  <p style=""text-align: center;"">₪58
                                                <br>30%</p>
                  <p id=""wtp"" style=""text-align:center; margin-top: 0px; margin-bottom: 0px; font-size: 40px"";>&ensp;</p>","-","viewing","0","19","13C,30A","","","","","","","","","","","","","","","","","",""
"","","","","","html-slider-response","26","130707","0.0-17.0-1.3","68dec006-5b04-4a9f-ac27-0939355af33c","762","
                  <p style=""text-align: center;"">₪58
                                                <br>30%</p>
                  <p id=""wtp"" style=""text-align:center; margin-top: 0px; margin-bottom: 0px; font-size: 40px"";>מוכנים לשלם: <span id=""c_p_y""></span></p>","59","evaluation","56","19","13C,30A","30","58","59","","","","","","","","","","","","","","",""
"","","","","","html-keyboard-response","27","131805","0.0-17.0-2.3","68dec006-5b04-4a9f-ac27-0939355af33c","null","<p style=""text-align: center;"">+</p>","null","fixation","","","","","","","","","","","","","","","","","","","","",""
"","","","","","html-slider-response","28","132810","0.0-17.0-0.4","68dec006-5b04-4a9f-ac27-0939355af33c","1000","
                  <p style=""text-align: center;"">₪16
                                                <br>20%</p>
                  <p id=""wtp"" style=""text-align:center; margin-top: 0px; margin-bottom: 0px; font-size: 40px"";>&ensp;</p>","-","viewing","0","8","14C,17A,20C,27A","","","","","","","","","","","","","","","","","",""
"","","","","","html-slider-response","29","134099","0.0-17.0-1.4","68dec006-5b04-4a9f-ac27-0939355af33c","1288","
                  <p style=""text-align: center;"">₪16
                                                <br>20%</p>
                  <p id=""wtp"" style=""text-align:center; margin-top: 0px; margin-bottom: 0px; font-size: 40px"";>מוכנים לשלם: <span id=""c_p_y""></span></p>","2","evaluation","36","8","14C,17A,20C,27A","20","16","3","","","","","","","","","","","","","","",""
"","","","","","html-keyboard-response","30","134898","0.0-17.0-2.4","68dec006-5b04-4a9f-ac27-0939355af33c","null","<p style=""text-align: center;"">+</p>","null","fixation","","","","","","","","","","","","","","","","","","","","",""
"","","","","","html-slider-response","31","135900","0.0-17.0-0.5","68dec006-5b04-4a9f-ac27-0939355af33c","1000","
                  <p style=""text-align: center;"">₪64
                                                <br>50%</p>
                  <p id=""wtp"" style=""text-align:center; margin-top: 0px; margin-bottom: 0px; font-size: 40px"";>&ensp;</p>","-","viewing","0","25","1B,3B,4A","","","","","","","","","","","","","","","","","",""
"","","","","","html-slider-response","32","136859","0.0-17.0-1.5","68dec006-5b04-4a9f-ac27-0939355af33c","958","
                  <p style=""text-align: center;"">₪64
                                                <br>50%</p>
                  <p id=""wtp"" style=""text-align:center; margin-top: 0px; margin-bottom: 0px; font-size: 40px"";>מוכנים לשלם: <span id=""c_p_y""></span></p>","40","evaluation","44","25","1B,3B,4A","50","64","40","","","","","","","","","","","","","","",""
"","","","","","html-keyboard-response","33","137875","0.0-17.0-2.5","68dec006-5b04-4a9f-ac27-0939355af33c","null","<p style=""text-align: center;"">+</p>","null","fixation","","","","","","","","","","","","","","","","","","","","",""
"","","","","","html-slider-response","34","138889","0.0-17.0-0.6","68dec006-5b04-4a9f-ac27-0939355af33c","1000","
                  <p style=""text-align: center;"">₪18
                                                <br>25%</p>
                  <p id=""wtp"" style=""text-align:center; margin-top: 0px; margin-bottom: 0px; font-size: 40px"";>&ensp;</p>","-","viewing","0","9","14A,23A","","","","","","","","","","","","","","","","","",""
"","","","","","html-slider-response","35","139683","0.0-17.0-1.6","68dec006-5b04-4a9f-ac27-0939355af33c","792","
                  <p style=""text-align: center;"">₪18
                                                <br>25%</p>
                  <p id=""wtp"" style=""text-align:center; margin-top: 0px; margin-bottom: 0px; font-size: 40px"";>מוכנים לשלם: <span id=""c_p_y""></span></p>","12","evaluation","64","9","14A,23A","25","18","12","","","","","","","","","","","","","","",""
"","","","","","html-keyboard-response","36","140633","0.0-17.0-2.6","68dec006-5b04-4a9f-ac27-0939355af33c","null","<p style=""text-align: center;"">+</p>","null","fixation","","","","","","","","","","","","","","","","","","","","",""
"","","","","","html-slider-response","37","141642","0.0-17.0-0.7","68dec006-5b04-4a9f-ac27-0939355af33c","1000","
                  <p style=""text-align: center;"">₪58
                                                <br>45%</p>
                  <p id=""wtp"" style=""text-align:center; margin-top: 0px; margin-bottom: 0px; font-size: 40px"";>&ensp;</p>","-","viewing","0","21","11C,18C,25A","","","","","","","","","","","","","","","","","",""
"","","","","","html-slider-response","38","142963","0.0-17.0-1.7","68dec006-5b04-4a9f-ac27-0939355af33c","1319","
                  <p style=""text-align: center;"">₪58
                                                <br>45%</p>
                  <p id=""wtp"" style=""text-align:center; margin-top: 0px; margin-bottom: 0px; font-size: 40px"";>מוכנים לשלם: <span id=""c_p_y""></span></p>","65","evaluation","72","21","11C,18C,25A","45","58","65","","","","","","","","","","","","","","",""
"","","","","","html-keyboard-response","39","143834","0.0-17.0-2.7","68dec006-5b04-4a9f-ac27-0939355af33c","null","<p style=""text-align: center;"">+</p>","null","fixation","","","","","","","","","","","","","","","","","","","","",""
"","","","","","html-slider-response","40","144842","0.0-17.0-0.8","68dec006-5b04-4a9f-ac27-0939355af33c","1000","
                  <p style=""text-align: center;"">₪4
                                                <br>25%</p>
                  <p id=""wtp"" style=""text-align:center; margin-top: 0px; margin-bottom: 0px; font-size: 40px"";>&ensp;</p>","-","viewing","0","1","6C,29B,30C","","","","","","","","","","","","","","","","","",""
"","","","","","html-slider-response","41","146555","0.0-17.0-1.8","68dec006-5b04-4a9f-ac27-0939355af33c","1711","
                  <p style=""text-align: center;"">₪4
                                                <br>25%</p>
                  <p id=""wtp"" style=""text-align:center; margin-top: 0px; margin-bottom: 0px; font-size: 40px"";>מוכנים לשלם: <span id=""c_p_y""></span></p>","11","evaluation","15","1","6C,29B,30C","25","4","11","","","","","","","","","","","","","","",""
"","","","","","html-keyboard-response","42","147798","0.0-17.0-2.8","68dec006-5b04-4a9f-ac27-0939355af33c","null","<p style=""text-align: center;"">+</p>","null","fixation","","","","","","","","","","","","","","","","","","","","",""
"","","","","","html-slider-response","43","148808","0.0-17.0-0.9","68dec006-5b04-4a9f-ac27-0939355af33c","1000","
                  <p style=""text-align: center;"">₪11
                                                <br>25%</p>
                  <p id=""wtp"" style=""text-align:center; margin-top: 0px; margin-bottom: 0px; font-size: 40px"";>&ensp;</p>","-","viewing","0","5","12A,27B,28B,30B","","","","","","","","","","","","","","","","","",""
"","","","","","html-slider-response","44","150755","0.0-17.0-1.9","68dec006-5b04-4a9f-ac27-0939355af33c","1946","
                  <p style=""text-align: center;"">₪11
                                                <br>25%</p>
                  <p id=""wtp"" style=""text-align:center; margin-top: 0px; margin-bottom: 0px; font-size: 40px"";>מוכנים לשלם: <span id=""c_p_y""></span></p>","17","evaluation","42","5","12A,27B,28B,30B","25","11","17","","","","","","","","","","","","","","",""
"","","","","","html-keyboard-response","45","151671","0.0-17.0-2.9","68dec006-5b04-4a9f-ac27-0939355af33c","null","<p style=""text-align: center;"">+</p>","null","fixation","","","","","","","","","","","","","","","","","","","","",""
"","","","","","html-slider-response","46","152678","0.0-17.0-0.10","68dec006-5b04-4a9f-ac27-0939355af33c","1000","
                  <p style=""text-align: center;"">₪36
                                                <br>60%</p>
                  <p id=""wtp"" style=""text-align:center; margin-top: 0px; margin-bottom: 0px; font-size: 40px"";>&ensp;</p>","-","viewing","0","12","1C,7C,15C","","","","","","","","","","","","","","","","","",""
"","","","","","html-slider-response","47","155235","0.0-17.0-1.10","68dec006-5b04-4a9f-ac27-0939355af33c","2556","
                  <p style=""text-align: center;"">₪36
                                                <br>60%</p>
                  <p id=""wtp"" style=""text-align:center; margin-top: 0px; margin-bottom: 0px; font-size: 40px"";>מוכנים לשלם: <span id=""c_p_y""></span></p>","56","evaluation","79","12","1C,7C,15C","60","36","56","","","","","","","","","","","","","","",""
"","","","","","html-keyboard-response","48","156598","0.0-17.0-2.10","68dec006-5b04-4a9f-ac27-0939355af33c","null","<p style=""text-align: center;"">+</p>","null","fixation","","","","","","","","","","","","","","","","","","","","",""
"","","","","","html-slider-response","49","157614","0.0-17.0-0.11","68dec006-5b04-4a9f-ac27-0939355af33c","1000","
                  <p style=""text-align: center;"">₪71
                                                <br>45%</p>
                  <p id=""wtp"" style=""text-align:center; margin-top: 0px; margin-bottom: 0px; font-size: 40px"";>&ensp;</p>","-","viewing","0","26","2B,16A","","","","","","","","","","","","","","","","","",""
"","","","","","html-slider-response","50","159267","0.0-17.0-1.11","68dec006-5b04-4a9f-ac27-0939355af33c","1651","
                  <p style=""text-align: center;"">₪71
                                                <br>45%</p>
                  <p id=""wtp"" style=""text-align:center; margin-top: 0px; margin-bottom: 0px; font-size: 40px"";>מוכנים לשלם: <span id=""c_p_y""></span></p>","36","evaluation","13","26","2B,16A","45","71","36","","","","","","","","","","","","","","",""
"","","","","","html-keyboard-response","51","160124","0.0-17.0-2.11","68dec006-5b04-4a9f-ac27-0939355af33c","null","<p style=""text-align: center;"">+</p>","null","fixation","","","","","","","","","","","","","","","","","","","","",""
"","","","","","html-slider-response","52","161132","0.0-17.0-0.12","68dec006-5b04-4a9f-ac27-0939355af33c","1000","
                  <p style=""text-align: center;"">₪4
                                                <br>50%</p>
                  <p id=""wtp"" style=""text-align:center; margin-top: 0px; margin-bottom: 0px; font-size: 40px"";>&ensp;</p>","-","viewing","0","2","4C,17B","","","","","","","","","","","","","","","","","",""
"","","","","","html-slider-response","53","162363","0.0-17.0-1.12","68dec006-5b04-4a9f-ac27-0939355af33c","1230","
                  <p style=""text-align: center;"">₪4
                                                <br>50%</p>
                  <p id=""wtp"" style=""text-align:center; margin-top: 0px; margin-bottom: 0px; font-size: 40px"";>מוכנים לשלם: <span id=""c_p_y""></span></p>","5","evaluation","78","2","4C,17B","50","4","5","","","","","","","","","","","","","","",""
"","","","","","html-keyboard-response","54","163385","0.0-17.0-2.12","68dec006-5b04-4a9f-ac27-0939355af33c","null","<p style=""text-align: center;"">+</p>","null","fixation","","","","","","","","","","","","","","","","","","","","",""
"","","","","","html-slider-response","55","164387","0.0-17.0-0.13","68dec006-5b04-4a9f-ac27-0939355af33c","1000","
                  <p style=""text-align: center;"">₪11
                                                <br>45%</p>
                  <p id=""wtp"" style=""text-align:center; margin-top: 0px; margin-bottom: 0px; font-size: 40px"";>&ensp;</p>","-","viewing","0","6","14B,21C,25C","","","","","","","","","","","","","","","","","",""
"","","","","","html-slider-response","56","166563","0.0-17.0-1.13","68dec006-5b04-4a9f-ac27-0939355af33c","2175","
                  <p style=""text-align: center;"">₪11
                                                <br>45%</p>
                  <p id=""wtp"" style=""text-align:center; margin-top: 0px; margin-bottom: 0px; font-size: 40px"";>מוכנים לשלם: <span id=""c_p_y""></span></p>","23","evaluation","15","6","14B,21C,25C","45","11","23","","","","","","","","","","","","","","",""
"","","","","","html-keyboard-response","57","167232","0.0-17.0-2.13","68dec006-5b04-4a9f-ac27-0939355af33c","null","<p style=""text-align: center;"">+</p>","null","fixation","","","","","","","","","","","","","","","","","","","","",""
"","","","","","html-slider-response","58","168234","0.0-17.0-0.14","68dec006-5b04-4a9f-ac27-0939355af33c","1000","
                  <p style=""text-align: center;"">₪18
                                                <br>50%</p>
                  <p id=""wtp"" style=""text-align:center; margin-top: 0px; margin-bottom: 0px; font-size: 40px"";>&ensp;</p>","-","viewing","0","10","2C,16C,22B,28A","","","","","","","","","","","","","","","","","",""
"","","","","","html-slider-response","59","169827","0.0-17.0-1.14","68dec006-5b04-4a9f-ac27-0939355af33c","1592","
                  <p style=""text-align: center;"">₪18
                                                <br>50%</p>
                  <p id=""wtp"" style=""text-align:center; margin-top: 0px; margin-bottom: 0px; font-size: 40px"";>מוכנים לשלם: <span id=""c_p_y""></span></p>","16","evaluation","15","10","2C,16C,22B,28A","50","18","16","","","","","","","","","","","","","","",""
"","","","","","html-keyboard-response","60","170650","0.0-17.0-2.14","68dec006-5b04-4a9f-ac27-0939355af33c","null","<p style=""text-align: center;"">+</p>","null","fixation","","","","","","","","","","","","","","","","","","","","",""
"","","","","","html-slider-response","61","171656","0.0-17.0-0.15","68dec006-5b04-4a9f-ac27-0939355af33c","1000","
                  <p style=""text-align: center;"">₪4
                                                <br>75%</p>
                  <p id=""wtp"" style=""text-align:center; margin-top: 0px; margin-bottom: 0px; font-size: 40px"";>&ensp;</p>","-","viewing","0","3","12B,20B,23B,27C,29C","","","","","","","","","","","","","","","","","",""
"","","","","","html-slider-response","62","174155","0.0-17.0-1.15","68dec006-5b04-4a9f-ac27-0939355af33c","2498","
                  <p style=""text-align: center;"">₪4
                                                <br>75%</p>
                  <p id=""wtp"" style=""text-align:center; margin-top: 0px; margin-bottom: 0px; font-size: 40px"";>מוכנים לשלם: <span id=""c_p_y""></span></p>","40","evaluation","31","3","12B,20B,23B,27C,29C","75","4","40","","","","","","","","","","","","","","",""
"","","","","","html-keyboard-response","63","174914","0.0-17.0-2.15","68dec006-5b04-4a9f-ac27-0939355af33c","null","<p style=""text-align: center;"">+</p>","null","fixation","","","","","","","","","","","","","","","","","","","","",""
"","","","","","html-slider-response","64","175927","0.0-17.0-0.16","68dec006-5b04-4a9f-ac27-0939355af33c","1000","
                  <p style=""text-align: center;"">₪36
                                                <br>70%</p>
                  <p id=""wtp"" style=""text-align:center; margin-top: 0px; margin-bottom: 0px; font-size: 40px"";>&ensp;</p>","-","viewing","0","13","3A,5C,10B","","","","","","","","","","","","","","","","","",""
"","","","","","html-slider-response","65","178443","0.0-17.0-1.16","68dec006-5b04-4a9f-ac27-0939355af33c","2515","
                  <p style=""text-align: center;"">₪36
                                                <br>70%</p>
                  <p id=""wtp"" style=""text-align:center; margin-top: 0px; margin-bottom: 0px; font-size: 40px"";>מוכנים לשלם: <span id=""c_p_y""></span></p>","60","evaluation","60","13","3A,5C,10B","70","36","60","","","","","","","","","","","","","","",""
"","","","","","html-keyboard-response","66","179079","0.0-17.0-2.16","68dec006-5b04-4a9f-ac27-0939355af33c","null","<p style=""text-align: center;"">+</p>","null","fixation","","","","","","","","","","","","","","","","","","","","",""
"","","","","","html-slider-response","67","180083","0.0-17.0-0.17","68dec006-5b04-4a9f-ac27-0939355af33c","1000","
                  <p style=""text-align: center;"">₪58
                                                <br>40%</p>
                  <p id=""wtp"" style=""text-align:center; margin-top: 0px; margin-bottom: 0px; font-size: 40px"";>&ensp;</p>","-","viewing","0","20","10C,13A,19C,21B","","","","","","","","","","","","","","","","","",""
"","","","","","html-slider-response","68","181947","0.0-17.0-1.17","68dec006-5b04-4a9f-ac27-0939355af33c","1862","
                  <p style=""text-align: center;"">₪58
                                                <br>40%</p>
                  <p id=""wtp"" style=""text-align:center; margin-top: 0px; margin-bottom: 0px; font-size: 40px"";>מוכנים לשלם: <span id=""c_p_y""></span></p>","49","evaluation","54","20","10C,13A,19C,21B","40","58","49","","","","","","","","","","","","","","",""
"","","","","","html-keyboard-response","69","183305","0.0-17.0-2.17","68dec006-5b04-4a9f-ac27-0939355af33c","null","<p style=""text-align: center;"">+</p>","null","fixation","","","","","","","","","","","","","","","","","","","","",""
"","","","","","html-slider-response","70","184307","0.0-17.0-0.18","68dec006-5b04-4a9f-ac27-0939355af33c","1000","
                  <p style=""text-align: center;"">₪61
                                                <br>55%</p>
                  <p id=""wtp"" style=""text-align:center; margin-top: 0px; margin-bottom: 0px; font-size: 40px"";>&ensp;</p>","-","viewing","0","23","7B,26B","","","","","","","","","","","","","","","","","",""
"","","","","","html-slider-response","71","185315","0.0-17.0-1.18","68dec006-5b04-4a9f-ac27-0939355af33c","1006","
                  <p style=""text-align: center;"">₪61
                                                <br>55%</p>
                  <p id=""wtp"" style=""text-align:center; margin-top: 0px; margin-bottom: 0px; font-size: 40px"";>מוכנים לשלם: <span id=""c_p_y""></span></p>","66","evaluation","24","23","7B,26B","55","61","66","","","","","","","","","","","","","","",""
"","","","","","html-keyboard-response","72","185856","0.0-17.0-2.18","68dec006-5b04-4a9f-ac27-0939355af33c","null","<p style=""text-align: center;"">+</p>","null","fixation","","","","","","","","","","","","","","","","","","","","",""
"","","","","","html-slider-response","73","186868","0.0-17.0-0.19","68dec006-5b04-4a9f-ac27-0939355af33c","1000","
                  <p style=""text-align: center;"">₪43
                                                <br>75%</p>
                  <p id=""wtp"" style=""text-align:center; margin-top: 0px; margin-bottom: 0px; font-size: 40px"";>&ensp;</p>","-","viewing","0","18","11B,19B,24A,26A","","","","","","","","","","","","","","","","","",""
"","","","","","html-slider-response","74","188379","0.0-17.0-1.19","68dec006-5b04-4a9f-ac27-0939355af33c","1510","
                  <p style=""text-align: center;"">₪43
                                                <br>75%</p>
                  <p id=""wtp"" style=""text-align:center; margin-top: 0px; margin-bottom: 0px; font-size: 40px"";>מוכנים לשלם: <span id=""c_p_y""></span></p>","80","evaluation","33","18","11B,19B,24A,26A","75","43","80","","","","","","","","","","","","","","",""
"","","","","","html-keyboard-response","75","188916","0.0-17.0-2.19","68dec006-5b04-4a9f-ac27-0939355af33c","null","<p style=""text-align: center;"">+</p>","null","fixation","","","","","","","","","","","","","","","","","","","","",""
"","","","","","html-slider-response","76","189918","0.0-17.0-0.20","68dec006-5b04-4a9f-ac27-0939355af33c","1000","
                  <p style=""text-align: center;"">₪11
                                                <br>75%</p>
                  <p id=""wtp"" style=""text-align:center; margin-top: 0px; margin-bottom: 0px; font-size: 40px"";>&ensp;</p>","-","viewing","0","7","6B,18B,22C,24C,29A","","","","","","","","","","","","","","","","","",""
"","","","","","html-slider-response","77","190763","0.0-17.0-1.20","68dec006-5b04-4a9f-ac27-0939355af33c","844","
                  <p style=""text-align: center;"">₪11
                                                <br>75%</p>
                  <p id=""wtp"" style=""text-align:center; margin-top: 0px; margin-bottom: 0px; font-size: 40px"";>מוכנים לשלם: <span id=""c_p_y""></span></p>","17","evaluation","1","7","6B,18B,22C,24C,29A","75","11","17","","","","","","","","","","","","","","",""
"","","","","","html-keyboard-response","78","191322","0.0-17.0-2.20","68dec006-5b04-4a9f-ac27-0939355af33c","null","<p style=""text-align: center;"">+</p>","null","fixation","","","","","","","","","","","","","","","","","","","","",""
"","","","","","html-slider-response","79","192330","0.0-17.0-0.21","68dec006-5b04-4a9f-ac27-0939355af33c","1000","
                  <p style=""text-align: center;"">₪11
                                                <br>20%</p>
                  <p id=""wtp"" style=""text-align:center; margin-top: 0px; margin-bottom: 0px; font-size: 40px"";>&ensp;</p>","-","viewing","0","4","12C,17C,23C,28C","","","","","","","","","","","","","","","","","",""
"","","","","","html-slider-response","80","193603","0.0-17.0-1.21","68dec006-5b04-4a9f-ac27-0939355af33c","1271","
                  <p style=""text-align: center;"">₪11
                                                <br>20%</p>
                  <p id=""wtp"" style=""text-align:center; margin-top: 0px; margin-bottom: 0px; font-size: 40px"";>מוכנים לשלם: <span id=""c_p_y""></span></p>","4","evaluation","38","4","12C,17C,23C,28C","20","11","5","","","","","","","","","","","","","","",""
"","","","","","html-keyboard-response","81","194292","0.0-17.0-2.21","68dec006-5b04-4a9f-ac27-0939355af33c","null","<p style=""text-align: center;"">+</p>","null","fixation","","","","","","","","","","","","","","","","","","","","",""
"","","","","","html-slider-response","82","195306","0.0-17.0-0.22","68dec006-5b04-4a9f-ac27-0939355af33c","1000","
                  <p style=""text-align: center;"">₪43
                                                <br>60%</p>
                  <p id=""wtp"" style=""text-align:center; margin-top: 0px; margin-bottom: 0px; font-size: 40px"";>&ensp;</p>","-","viewing","0","17","2A,7A,9A,15B","","","","","","","","","","","","","","","","","",""
"","","","","","html-slider-response","83","196211","0.0-17.0-1.22","68dec006-5b04-4a9f-ac27-0939355af33c","904","
                  <p style=""text-align: center;"">₪43
                                                <br>60%</p>
                  <p id=""wtp"" style=""text-align:center; margin-top: 0px; margin-bottom: 0px; font-size: 40px"";>מוכנים לשלם: <span id=""c_p_y""></span></p>","59","evaluation","68","17","2A,7A,9A,15B","60","43","59","","","","","","","","","","","","","","",""
"","","","","","html-keyboard-response","84","196740","0.0-17.0-2.22","68dec006-5b04-4a9f-ac27-0939355af33c","null","<p style=""text-align: center;"">+</p>","null","fixation","","","","","","","","","","","","","","","","","","","","",""
"","","","","","html-slider-response","85","197751","0.0-17.0-0.23","68dec006-5b04-4a9f-ac27-0939355af33c","1000","
                  <p style=""text-align: center;"">₪39
                                                <br>65%</p>
                  <p id=""wtp"" style=""text-align:center; margin-top: 0px; margin-bottom: 0px; font-size: 40px"";>&ensp;</p>","-","viewing","0","16","1A,15A,26C","","","","","","","","","","","","","","","","","",""
"","","","","","html-slider-response","86","198547","0.0-17.0-1.23","68dec006-5b04-4a9f-ac27-0939355af33c","794","
                  <p style=""text-align: center;"">₪39
                                                <br>65%</p>
                  <p id=""wtp"" style=""text-align:center; margin-top: 0px; margin-bottom: 0px; font-size: 40px"";>מוכנים לשלם: <span id=""c_p_y""></span></p>","71","evaluation","62","16","1A,15A,26C","65","39","71","","","","","","","","","","","","","","",""
"","","","","","html-keyboard-response","87","199950","0.0-17.0-2.23","68dec006-5b04-4a9f-ac27-0939355af33c","null","<p style=""text-align: center;"">+</p>","null","fixation","","","","","","","","","","","","","","","","","","","","",""
"","","","","","html-slider-response","88","200958","0.0-17.0-0.24","68dec006-5b04-4a9f-ac27-0939355af33c","1000","
                  <p style=""text-align: center;"">₪36
                                                <br>75%</p>
                  <p id=""wtp"" style=""text-align:center; margin-top: 0px; margin-bottom: 0px; font-size: 40px"";>&ensp;</p>","-","viewing","0","14","4B,5A,13B,16B","","","","","","","","","","","","","","","","","",""
"","","","","","html-slider-response","89","201971","0.0-17.0-1.24","68dec006-5b04-4a9f-ac27-0939355af33c","1012","
                  <p style=""text-align: center;"">₪36
                                                <br>75%</p>
                  <p id=""wtp"" style=""text-align:center; margin-top: 0px; margin-bottom: 0px; font-size: 40px"";>מוכנים לשלם: <span id=""c_p_y""></span></p>","42","evaluation","57","14","4B,5A,13B,16B","75","36","42","","","","","","","","","","","","","","",""
"","","","","","html-keyboard-response","90","203081","0.0-17.0-2.24","68dec006-5b04-4a9f-ac27-0939355af33c","null","<p style=""text-align: center;"">+</p>","null","fixation","","","","","","","","","","","","","","","","","","","","",""
"","","","","","html-slider-response","91","204090","0.0-17.0-0.25","68dec006-5b04-4a9f-ac27-0939355af33c","1000","
                  <p style=""text-align: center;"">₪79
                                                <br>40%</p>
                  <p id=""wtp"" style=""text-align:center; margin-top: 0px; margin-bottom: 0px; font-size: 40px"";>&ensp;</p>","-","viewing","0","30","9B","","","","","","","","","","","","","","","","","",""
"","","","","","html-slider-response","92","205763","0.0-17.0-1.25","68dec006-5b04-4a9f-ac27-0939355af33c","1673","
                  <p style=""text-align: center;"">₪79
                                                <br>40%</p>
                  <p id=""wtp"" style=""text-align:center; margin-top: 0px; margin-bottom: 0px; font-size: 40px"";>מוכנים לשלם: <span id=""c_p_y""></span></p>","48","evaluation","18","30","9B","40","79","48","","","","","","","","","","","","","","",""
"","","","","","html-keyboard-response","93","207040","0.0-17.0-2.25","68dec006-5b04-4a9f-ac27-0939355af33c","null","<p style=""text-align: center;"">+</p>","null","fixation","","","","","","","","","","","","","","","","","","","","",""
"","","","","","html-slider-response","94","208049","0.0-17.0-0.26","68dec006-5b04-4a9f-ac27-0939355af33c","1000","
                  <p style=""text-align: center;"">₪76
                                                <br>65%</p>
                  <p id=""wtp"" style=""text-align:center; margin-top: 0px; margin-bottom: 0px; font-size: 40px"";>&ensp;</p>","-","viewing","0","29","8C,19A,24B","","","","","","","","","","","","","","","","","",""
"","","","","","html-slider-response","95","209434","0.0-17.0-1.26","68dec006-5b04-4a9f-ac27-0939355af33c","1383","
                  <p style=""text-align: center;"">₪76
                                                <br>65%</p>
                  <p id=""wtp"" style=""text-align:center; margin-top: 0px; margin-bottom: 0px; font-size: 40px"";>מוכנים לשלם: <span id=""c_p_y""></span></p>","67","evaluation","9","29","8C,19A,24B","65","76","67","","","","","","","","","","","","","","",""
"","","","","","html-keyboard-response","96","209966","0.0-17.0-2.26","68dec006-5b04-4a9f-ac27-0939355af33c","null","<p style=""text-align: center;"">+</p>","null","fixation","","","","","","","","","","","","","","","","","","","","",""
"","","","","","html-slider-response","97","210973","0.0-17.0-0.27","68dec006-5b04-4a9f-ac27-0939355af33c","1000","
                  <p style=""text-align: center;"">₪71
                                                <br>55%</p>
                  <p id=""wtp"" style=""text-align:center; margin-top: 0px; margin-bottom: 0px; font-size: 40px"";>&ensp;</p>","-","viewing","0","27","5B,18A","","","","","","","","","","","","","","","","","",""
"","","","","","html-slider-response","98","214387","0.0-17.0-1.27","68dec006-5b04-4a9f-ac27-0939355af33c","3413","
                  <p style=""text-align: center;"">₪71
                                                <br>55%</p>
                  <p id=""wtp"" style=""text-align:center; margin-top: 0px; margin-bottom: 0px; font-size: 40px"";>מוכנים לשלם: <span id=""c_p_y""></span></p>","71","evaluation","28","27","5B,18A","55","71","71","","","","","","","","","","","","","","",""
"","","","","","html-keyboard-response","99","214938","0.0-17.0-2.27","68dec006-5b04-4a9f-ac27-0939355af33c","null","<p style=""text-align: center;"">+</p>","null","fixation","","","","","","","","","","","","","","","","","","","","",""
"","","","","","html-slider-response","100","215940","0.0-17.0-0.28","68dec006-5b04-4a9f-ac27-0939355af33c","1000","
                  <p style=""text-align: center;"">₪64
                                                <br>25%</p>
                  <p id=""wtp"" style=""text-align:center; margin-top: 0px; margin-bottom: 0px; font-size: 40px"";>&ensp;</p>","-","viewing","0","24","6A,21A","","","","","","","","","","","","","","","","","",""
"","","","","","html-slider-response","101","216787","0.0-17.0-1.28","68dec006-5b04-4a9f-ac27-0939355af33c","845","
                  <p style=""text-align: center;"">₪64
                                                <br>25%</p>
                  <p id=""wtp"" style=""text-align:center; margin-top: 0px; margin-bottom: 0px; font-size: 40px"";>מוכנים לשלם: <span id=""c_p_y""></span></p>","19","evaluation","68","24","6A,21A","25","64","19","","","","","","","","","","","","","","",""
"","","","","","html-keyboard-response","102","217421","0.0-17.0-2.28","68dec006-5b04-4a9f-ac27-0939355af33c","null","<p style=""text-align: center;"">+</p>","null","fixation","","","","","","","","","","","","","","","","","","","","",""
"","","","","","html-slider-response","103","218437","0.0-17.0-0.29","68dec006-5b04-4a9f-ac27-0939355af33c","1000","
                  <p style=""text-align: center;"">₪39
                                                <br>60%</p>
                  <p id=""wtp"" style=""text-align:center; margin-top: 0px; margin-bottom: 0px; font-size: 40px"";>&ensp;</p>","-","viewing","0","15","9C,25B","","","","","","","","","","","","","","","","","",""
"","","","","","html-slider-response","104","219427","0.0-17.0-1.29","68dec006-5b04-4a9f-ac27-0939355af33c","989","
                  <p style=""text-align: center;"">₪39
                                                <br>60%</p>
                  <p id=""wtp"" style=""text-align:center; margin-top: 0px; margin-bottom: 0px; font-size: 40px"";>מוכנים לשלם: <span id=""c_p_y""></span></p>","49","evaluation","65","15","9C,25B","60","39","49","","","","","","","","","","","","","","",""
"","","","","","html-keyboard-response","105","220313","0.0-17.0-2.29","68dec006-5b04-4a9f-ac27-0939355af33c","null","<p style=""text-align: center;"">+</p>","null","fixation","","","","","","","","","","","","","","","","","","","","",""
"","","","","","html-slider-response","106","221317","0.0-17.0-0.30","68dec006-5b04-4a9f-ac27-0939355af33c","1000","
                  <p style=""text-align: center;"">₪79
                                                <br>65%</p>
                  <p id=""wtp"" style=""text-align:center; margin-top: 0px; margin-bottom: 0px; font-size: 40px"";>&ensp;</p>","-","viewing","0","31","8A","","","","","","","","","","","","","","","","","",""
"","","","","","html-slider-response","107","222931","0.0-17.0-1.30","68dec006-5b04-4a9f-ac27-0939355af33c","1613","
                  <p style=""text-align: center;"">₪79
                                                <br>65%</p>
                  <p id=""wtp"" style=""text-align:center; margin-top: 0px; margin-bottom: 0px; font-size: 40px"";>מוכנים לשלם: <span id=""c_p_y""></span></p>","57","evaluation","65","31","8A","65","79","57","","","","","","","","","","","","","","",""
"","","","","","html-keyboard-response","108","224033","0.0-17.0-2.30","68dec006-5b04-4a9f-ac27-0939355af33c","null","<p style=""text-align: center;"">+</p>","null","fixation","","","","","","","","","","","","","","","","","","","","",""
"","","","","","html-keyboard-response","109","225043","0.0-18.0","68dec006-5b04-4a9f-ac27-0939355af33c","null","<p style=""text-align: center;"">+</p>","null","fixation","","","","","","","","","","","","","","","","","","","","",""
"","","","","","html-keyboard-response","110","227979","0.0-19.0","68dec006-5b04-4a9f-ac27-0939355af33c","null","<p>הפסקה.
          <br>לחצו כדי להמשיך.</p>","1","scan_wait","","","","","","","","","","","","","","","","","","","","",""
"","","","","","html-keyboard-response","111","228994","0.0-20.0","68dec006-5b04-4a9f-ac27-0939355af33c","null","<p style=""text-align: center;"">+</p>","null","fixation","","","","","","","","","","","","","","","","","","","","",""
"","","","","","html-slider-response","112","230005","0.0-21.0-0.0","68dec006-5b04-4a9f-ac27-0939355af33c","1000","
                  <p style=""text-align: center;"">₪36
                                                <br>75%</p>
                  <p id=""wtp"" style=""text-align:center; margin-top: 0px; margin-bottom: 0px; font-size: 40px"";>&ensp;</p>","-","viewing","0","14","4B,5A,13B,16B","","","","","","","","","","","","","","","","","",""
"","","","","","html-slider-response","113","231043","0.0-21.0-1.0","68dec006-5b04-4a9f-ac27-0939355af33c","1036","
                  <p style=""text-align: center;"">₪36
                                                <br>75%</p>
                  <p id=""wtp"" style=""text-align:center; margin-top: 0px; margin-bottom: 0px; font-size: 40px"";>מוכנים לשלם: <span id=""c_p_y""></span></p>","70","evaluation","16","14","4B,5A,13B,16B","75","36","70","","","","","","","","","","","","","","",""
"","","","","","html-keyboard-response","114","231834","0.0-21.0-2.0","68dec006-5b04-4a9f-ac27-0939355af33c","null","<p style=""text-align: center;"">+</p>","null","fixation","","","","","","","","","","","","","","","","","","","","",""
"","","","","","html-slider-response","115","232836","0.0-21.0-0.1","68dec006-5b04-4a9f-ac27-0939355af33c","1000","
                  <p style=""text-align: center;"">₪64
                                                <br>50%</p>
                  <p id=""wtp"" style=""text-align:center; margin-top: 0px; margin-bottom: 0px; font-size: 40px"";>&ensp;</p>","-","viewing","0","25","1B,3B,4A","","","","","","","","","","","","","","","","","",""
"","","","","","html-slider-response","116","234491","0.0-21.0-1.1","68dec006-5b04-4a9f-ac27-0939355af33c","1653","
                  <p style=""text-align: center;"">₪64
                                                <br>50%</p>
                  <p id=""wtp"" style=""text-align:center; margin-top: 0px; margin-bottom: 0px; font-size: 40px"";>מוכנים לשלם: <span id=""c_p_y""></span></p>","47","evaluation","4","25","1B,3B,4A","50","64","47","","","","","","","","","","","","","","",""
"","","","","","html-keyboard-response","117","235372","0.0-21.0-2.1","68dec006-5b04-4a9f-ac27-0939355af33c","null","<p style=""text-align: center;"">+</p>","null","fixation","","","","","","","","","","","","","","","","","","","","",""
"","","","","","html-slider-response","118","236382","0.0-21.0-0.2","68dec006-5b04-4a9f-ac27-0939355af33c","1000","
                  <p style=""text-align: center;"">₪43
                                                <br>60%</p>
                  <p id=""wtp"" style=""text-align:center; margin-top: 0px; margin-bottom: 0px; font-size: 40px"";>&ensp;</p>","-","viewing","0","17","2A,7A,9A,15B","","","","","","","","","","","","","","","","","",""
"","","","","","html-slider-response","119","237619","0.0-21.0-1.2","68dec006-5b04-4a9f-ac27-0939355af33c","1236","
                  <p style=""text-align: center;"">₪43
                                                <br>60%</p>
                  <p id=""wtp"" style=""text-align:center; margin-top: 0px; margin-bottom: 0px; font-size: 40px"";>מוכנים לשלם: <span id=""c_p_y""></span></p>","65","evaluation","63","17","2A,7A,9A,15B","60","43","65","","","","","","","","","","","","","","",""
"","","","","","html-keyboard-response","120","238861","0.0-21.0-2.2","68dec006-5b04-4a9f-ac27-0939355af33c","null","<p style=""text-align: center;"">+</p>","null","fixation","","","","","","","","","","","","","","","","","","","","",""
"","","","","","html-slider-response","121","239865","0.0-21.0-0.3","68dec006-5b04-4a9f-ac27-0939355af33c","1000","
                  <p style=""text-align: center;"">₪79
                                                <br>40%</p>
                  <p id=""wtp"" style=""text-align:center; margin-top: 0px; margin-bottom: 0px; font-size: 40px"";>&ensp;</p>","-","viewing","0","30","9B","","","","","","","","","","","","","","","","","",""
"","","","","","html-slider-response","122","240907","0.0-21.0-1.3","68dec006-5b04-4a9f-ac27-0939355af33c","1040","
                  <p style=""text-align: center;"">₪79
                                                <br>40%</p>
                  <p id=""wtp"" style=""text-align:center; margin-top: 0px; margin-bottom: 0px; font-size: 40px"";>מוכנים לשלם: <span id=""c_p_y""></span></p>","45","evaluation","35","30","9B","40","79","45","","","","","","","","","","","","","","",""
"","","","","","html-keyboard-response","123","241929","0.0-21.0-2.3","68dec006-5b04-4a9f-ac27-0939355af33c","null","<p style=""text-align: center;"">+</p>","null","fixation","","","","","","","","","","","","","","","","","","","","",""
"","","","","","html-slider-response","124","242932","0.0-21.0-0.4","68dec006-5b04-4a9f-ac27-0939355af33c","1000","
                  <p style=""text-align: center;"">₪36
                                                <br>70%</p>
                  <p id=""wtp"" style=""text-align:center; margin-top: 0px; margin-bottom: 0px; font-size: 40px"";>&ensp;</p>","-","viewing","0","13","3A,5C,10B","","","","","","","","","","","","","","","","","",""
"","","","","","html-slider-response","125","243651","0.0-21.0-1.4","68dec006-5b04-4a9f-ac27-0939355af33c","718","
                  <p style=""text-align: center;"">₪36
                                                <br>70%</p>
                  <p id=""wtp"" style=""text-align:center; margin-top: 0px; margin-bottom: 0px; font-size: 40px"";>מוכנים לשלם: <span id=""c_p_y""></span></p>","59","evaluation","43","13","3A,5C,10B","70","36","58","","","","","","","","","","","","","","",""
"","","","","","html-keyboard-response","126","245162","0.0-21.0-2.4","68dec006-5b04-4a9f-ac27-0939355af33c","null","<p style=""text-align: center;"">+</p>","null","fixation","","","","","","","","","","","","","","","","","","","","",""
"","","","","","html-slider-response","127","246170","0.0-21.0-0.5","68dec006-5b04-4a9f-ac27-0939355af33c","1000","
                  <p style=""text-align: center;"">₪71
                                                <br>45%</p>
                  <p id=""wtp"" style=""text-align:center; margin-top: 0px; margin-bottom: 0px; font-size: 40px"";>&ensp;</p>","-","viewing","0","26","2B,16A","","","","","","","","","","","","","","","","","",""
"","","","","","html-slider-response","128","247387","0.0-21.0-1.5","68dec006-5b04-4a9f-ac27-0939355af33c","1216","
                  <p style=""text-align: center;"">₪71
                                                <br>45%</p>
                  <p id=""wtp"" style=""text-align:center; margin-top: 0px; margin-bottom: 0px; font-size: 40px"";>מוכנים לשלם: <span id=""c_p_y""></span></p>","65","evaluation","49","26","2B,16A","45","71","65","","","","","","","","","","","","","","",""
"","","","","","html-keyboard-response","129","248548","0.0-21.0-2.5","68dec006-5b04-4a9f-ac27-0939355af33c","null","<p style=""text-align: center;"">+</p>","null","fixation","","","","","","","","","","","","","","","","","","","","",""
"","","","","","html-slider-response","130","249558","0.0-21.0-0.6","68dec006-5b04-4a9f-ac27-0939355af33c","1000","
                  <p style=""text-align: center;"">₪79
                                                <br>65%</p>
                  <p id=""wtp"" style=""text-align:center; margin-top: 0px; margin-bottom: 0px; font-size: 40px"";>&ensp;</p>","-","viewing","0","31","8A","","","","","","","","","","","","","","","","","",""
"","","","","","html-slider-response","131","250779","0.0-21.0-1.6","68dec006-5b04-4a9f-ac27-0939355af33c","1220","
                  <p style=""text-align: center;"">₪79
                                                <br>65%</p>
                  <p id=""wtp"" style=""text-align:center; margin-top: 0px; margin-bottom: 0px; font-size: 40px"";>מוכנים לשלם: <span id=""c_p_y""></span></p>","43","evaluation","71","31","8A","65","79","43","","","","","","","","","","","","","","",""
"","","","","","html-keyboard-response","132","251433","0.0-21.0-2.6","68dec006-5b04-4a9f-ac27-0939355af33c","null","<p style=""text-align: center;"">+</p>","null","fixation","","","","","","","","","","","","","","","","","","","","",""
"","","","","","html-slider-response","133","252446","0.0-21.0-0.7","68dec006-5b04-4a9f-ac27-0939355af33c","1000","
                  <p style=""text-align: center;"">₪11
                                                <br>20%</p>
                  <p id=""wtp"" style=""text-align:center; margin-top: 0px; margin-bottom: 0px; font-size: 40px"";>&ensp;</p>","-","viewing","0","4","12C,17C,23C,28C","","","","","","","","","","","","","","","","","",""
"","","","","","html-slider-response","134","253755","0.0-21.0-1.7","68dec006-5b04-4a9f-ac27-0939355af33c","1307","
                  <p style=""text-align: center;"">₪11
                                                <br>20%</p>
                  <p id=""wtp"" style=""text-align:center; margin-top: 0px; margin-bottom: 0px; font-size: 40px"";>מוכנים לשלם: <span id=""c_p_y""></span></p>","24","evaluation","41","4","12C,17C,23C,28C","20","11","24","","","","","","","","","","","","","","",""
"","","","","","html-keyboard-response","135","254557","0.0-21.0-2.7","68dec006-5b04-4a9f-ac27-0939355af33c","null","<p style=""text-align: center;"">+</p>","null","fixation","","","","","","","","","","","","","","","","","","","","",""
"","","","","","html-slider-response","136","255559","0.0-21.0-0.8","68dec006-5b04-4a9f-ac27-0939355af33c","1000","
                  <p style=""text-align: center;"">₪18
                                                <br>25%</p>
                  <p id=""wtp"" style=""text-align:center; margin-top: 0px; margin-bottom: 0px; font-size: 40px"";>&ensp;</p>","-","viewing","0","9","14A,23A","","","","","","","","","","","","","","","","","",""
"","","","","","html-slider-response","137","256379","0.0-21.0-1.8","68dec006-5b04-4a9f-ac27-0939355af33c","819","
                  <p style=""text-align: center;"">₪18
                                                <br>25%</p>
                  <p id=""wtp"" style=""text-align:center; margin-top: 0px; margin-bottom: 0px; font-size: 40px"";>מוכנים לשלם: <span id=""c_p_y""></span></p>","16","evaluation","57","9","14A,23A","25","18","16","","","","","","","","","","","","","","",""
"","","","","","html-keyboard-response","138","257785","0.0-21.0-2.8","68dec006-5b04-4a9f-ac27-0939355af33c","null","<p style=""text-align: center;"">+</p>","null","fixation","","","","","","","","","","","","","","","","","","","","",""
"","","","","","html-slider-response","139","258792","0.0-21.0-0.9","68dec006-5b04-4a9f-ac27-0939355af33c","1000","
                  <p style=""text-align: center;"">₪18
                                                <br>50%</p>
                  <p id=""wtp"" style=""text-align:center; margin-top: 0px; margin-bottom: 0px; font-size: 40px"";>&ensp;</p>","-","viewing","0","10","2C,16C,22B,28A","","","","","","","","","","","","","","","","","",""
"","","","","","html-slider-response","140","259411","0.0-21.0-1.9","68dec006-5b04-4a9f-ac27-0939355af33c","618","
                  <p style=""text-align: center;"">₪18
                                                <br>50%</p>
                  <p id=""wtp"" style=""text-align:center; margin-top: 0px; margin-bottom: 0px; font-size: 40px"";>מוכנים לשלם: <span id=""c_p_y""></span></p>","46","evaluation","7","10","2C,16C,22B,28A","50","18","46","","","","","","","","","","","","","","",""
"","","","","","html-keyboard-response","141","260487","0.0-21.0-2.9","68dec006-5b04-4a9f-ac27-0939355af33c","null","<p style=""text-align: center;"">+</p>","null","fixation","","","","","","","","","","","","","","","","","","","","",""
"","","","","","html-slider-response","142","261502","0.0-21.0-0.10","68dec006-5b04-4a9f-ac27-0939355af33c","1000","
                  <p style=""text-align: center;"">₪11
                                                <br>45%</p>
                  <p id=""wtp"" style=""text-align:center; margin-top: 0px; margin-bottom: 0px; font-size: 40px"";>&ensp;</p>","-","viewing","0","6","14B,21C,25C","","","","","","","","","","","","","","","","","",""
"","","","","","html-slider-response","143","263067","0.0-21.0-1.10","68dec006-5b04-4a9f-ac27-0939355af33c","1565","
                  <p style=""text-align: center;"">₪11
                                                <br>45%</p>
                  <p id=""wtp"" style=""text-align:center; margin-top: 0px; margin-bottom: 0px; font-size: 40px"";>מוכנים לשלם: <span id=""c_p_y""></span></p>","17","evaluation","0","6","14B,21C,25C","45","11","17","","","","","","","","","","","","","","",""
"","","","","","html-keyboard-response","144","264421","0.0-21.0-2.10","68dec006-5b04-4a9f-ac27-0939355af33c","null","<p style=""text-align: center;"">+</p>","null","fixation","","","","","","","","","","","","","","","","","","","","",""
"","","","","","html-slider-response","145","265423","0.0-21.0-0.11","68dec006-5b04-4a9f-ac27-0939355af33c","1000","
                  <p style=""text-align: center;"">₪11
                                                <br>25%</p>
                  <p id=""wtp"" style=""text-align:center; margin-top: 0px; margin-bottom: 0px; font-size: 40px"";>&ensp;</p>","-","viewing","0","5","12A,27B,28B,30B","","","","","","","","","","","","","","","","","",""
"","","","","","html-slider-response","146","266491","0.0-21.0-1.11","68dec006-5b04-4a9f-ac27-0939355af33c","1067","
                  <p style=""text-align: center;"">₪11
                                                <br>25%</p>
                  <p id=""wtp"" style=""text-align:center; margin-top: 0px; margin-bottom: 0px; font-size: 40px"";>מוכנים לשלם: <span id=""c_p_y""></span></p>","5","evaluation","28","5","12A,27B,28B,30B","25","11","6","","","","","","","","","","","","","","",""
"","","","","","html-keyboard-response","147","267347","0.0-21.0-2.11","68dec006-5b04-4a9f-ac27-0939355af33c","null","<p style=""text-align: center;"">+</p>","null","fixation","","","","","","","","","","","","","","","","","","","","",""
"","","","","","html-slider-response","148","268349","0.0-21.0-0.12","68dec006-5b04-4a9f-ac27-0939355af33c","1000","
                  <p style=""text-align: center;"">₪61
                                                <br>45%</p>
                  <p id=""wtp"" style=""text-align:center; margin-top: 0px; margin-bottom: 0px; font-size: 40px"";>&ensp;</p>","-","viewing","0","22","10A,11A","","","","","","","","","","","","","","","","","",""
"","","","","","html-slider-response","149","268971","0.0-21.0-1.12","68dec006-5b04-4a9f-ac27-0939355af33c","621","
                  <p style=""text-align: center;"">₪61
                                                <br>45%</p>
                  <p id=""wtp"" style=""text-align:center; margin-top: 0px; margin-bottom: 0px; font-size: 40px"";>מוכנים לשלם: <span id=""c_p_y""></span></p>","45","evaluation","56","22","10A,11A","45","61","45","","","","","","","","","","","","","","",""
"","","","","","html-keyboard-response","150","270203","0.0-21.0-2.12","68dec006-5b04-4a9f-ac27-0939355af33c","null","<p style=""text-align: center;"">+</p>","null","fixation","","","","","","","","","","","","","","","","","","","","",""
"","","","","","html-slider-response","151","271205","0.0-21.0-0.13","68dec006-5b04-4a9f-ac27-0939355af33c","1000","
                  <p style=""text-align: center;"">₪36
                                                <br>60%</p>
                  <p id=""wtp"" style=""text-align:center; margin-top: 0px; margin-bottom: 0px; font-size: 40px"";>&ensp;</p>","-","viewing","0","12","1C,7C,15C","","","","","","","","","","","","","","","","","",""
"","","","","","html-slider-response","152","272067","0.0-21.0-1.13","68dec006-5b04-4a9f-ac27-0939355af33c","860","
                  <p style=""text-align: center;"">₪36
                                                <br>60%</p>
                  <p id=""wtp"" style=""text-align:center; margin-top: 0px; margin-bottom: 0px; font-size: 40px"";>מוכנים לשלם: <span id=""c_p_y""></span></p>","56","evaluation","62","12","1C,7C,15C","60","36","56","","","","","","","","","","","","","","",""
"","","","","","html-keyboard-response","153","272785","0.0-21.0-2.13","68dec006-5b04-4a9f-ac27-0939355af33c","null","<p style=""text-align: center;"">+</p>","null","fixation","","","","","","","","","","","","","","","","","","","","",""
"","","","","","html-slider-response","154","273787","0.0-21.0-0.14","68dec006-5b04-4a9f-ac27-0939355af33c","1000","
                  <p style=""text-align: center;"">₪58
                                                <br>30%</p>
                  <p id=""wtp"" style=""text-align:center; margin-top: 0px; margin-bottom: 0px; font-size: 40px"";>&ensp;</p>","-","viewing","0","19","13C,30A","","","","","","","","","","","","","","","","","",""
"","","","","","html-slider-response","155","275187","0.0-21.0-1.14","68dec006-5b04-4a9f-ac27-0939355af33c","1399","
                  <p style=""text-align: center;"">₪58
                                                <br>30%</p>
                  <p id=""wtp"" style=""text-align:center; margin-top: 0px; margin-bottom: 0px; font-size: 40px"";>מוכנים לשלם: <span id=""c_p_y""></span></p>","53","evaluation","39","19","13C,30A","30","58","53","","","","","","","","","","","","","","",""
"","","","","","html-keyboard-response","156","275926","0.0-21.0-2.14","68dec006-5b04-4a9f-ac27-0939355af33c","null","<p style=""text-align: center;"">+</p>","null","fixation","","","","","","","","","","","","","","","","","","","","",""
"","","","","","html-slider-response","157","276939","0.0-21.0-0.15","68dec006-5b04-4a9f-ac27-0939355af33c","1000","
                  <p style=""text-align: center;"">₪43
                                                <br>75%</p>
                  <p id=""wtp"" style=""text-align:center; margin-top: 0px; margin-bottom: 0px; font-size: 40px"";>&ensp;</p>","-","viewing","0","18","11B,19B,24A,26A","","","","","","","","","","","","","","","","","",""
"","","","","","html-slider-response","158","277755","0.0-21.0-1.15","68dec006-5b04-4a9f-ac27-0939355af33c","814","
                  <p style=""text-align: center;"">₪43
                                                <br>75%</p>
                  <p id=""wtp"" style=""text-align:center; margin-top: 0px; margin-bottom: 0px; font-size: 40px"";>מוכנים לשלם: <span id=""c_p_y""></span></p>","72","evaluation","61","18","11B,19B,24A,26A","75","43","71","","","","","","","","","","","","","","",""
"","","","","","html-keyboard-response","159","279241","0.0-21.0-2.15","68dec006-5b04-4a9f-ac27-0939355af33c","null","<p style=""text-align: center;"">+</p>","null","fixation","","","","","","","","","","","","","","","","","","","","",""
"","","","","","html-slider-response","160","280244","0.0-21.0-0.16","68dec006-5b04-4a9f-ac27-0939355af33c","1000","
                  <p style=""text-align: center;"">₪36
                                                <br>30%</p>
                  <p id=""wtp"" style=""text-align:center; margin-top: 0px; margin-bottom: 0px; font-size: 40px"";>&ensp;</p>","-","viewing","0","11","3C,20A,22A","","","","","","","","","","","","","","","","","",""
"","","","","","html-slider-response","161","281091","0.0-21.0-1.16","68dec006-5b04-4a9f-ac27-0939355af33c","846","
                  <p style=""text-align: center;"">₪36
                                                <br>30%</p>
                  <p id=""wtp"" style=""text-align:center; margin-top: 0px; margin-bottom: 0px; font-size: 40px"";>מוכנים לשלם: <span id=""c_p_y""></span></p>","10","evaluation","77","11","3C,20A,22A","30","36","10","","","","","","","","","","","","","","",""
"","","","","","html-keyboard-response","162","281780","0.0-21.0-2.16","68dec006-5b04-4a9f-ac27-0939355af33c","null","<p style=""text-align: center;"">+</p>","null","fixation","","","","","","","","","","","","","","","","","","","","",""
"","","","","","html-slider-response","163","282782","0.0-21.0-0.17","68dec006-5b04-4a9f-ac27-0939355af33c","1000","
                  <p style=""text-align: center;"">₪11
                                                <br>75%</p>
                  <p id=""wtp"" style=""text-align:center; margin-top: 0px; margin-bottom: 0px; font-size: 40px"";>&ensp;</p>","-","viewing","0","7","6B,18B,22C,24C,29A","","","","","","","","","","","","","","","","","",""
"","","","","","html-slider-response","164","283755","0.0-21.0-1.17","68dec006-5b04-4a9f-ac27-0939355af33c","972","
                  <p style=""text-align: center;"">₪11
                                                <br>75%</p>
                  <p id=""wtp"" style=""text-align:center; margin-top: 0px; margin-bottom: 0px; font-size: 40px"";>מוכנים לשלם: <span id=""c_p_y""></span></p>","31","evaluation","52","7","6B,18B,22C,24C,29A","75","11","31","","","","","","","","","","","","","","",""
"","","","","","html-keyboard-response","165","284451","0.0-21.0-2.17","68dec006-5b04-4a9f-ac27-0939355af33c","null","<p style=""text-align: center;"">+</p>","null","fixation","","","","","","","","","","","","","","","","","","","","",""
"","","","","","html-slider-response","166","285465","0.0-21.0-0.18","68dec006-5b04-4a9f-ac27-0939355af33c","1000","
                  <p style=""text-align: center;"">₪16
                                                <br>20%</p>
                  <p id=""wtp"" style=""text-align:center; margin-top: 0px; margin-bottom: 0px; font-size: 40px"";>&ensp;</p>","-","viewing","0","8","14C,17A,20C,27A","","","","","","","","","","","","","","","","","",""
"","","","","","html-slider-response","167","286979","0.0-21.0-1.18","68dec006-5b04-4a9f-ac27-0939355af33c","1513","
                  <p style=""text-align: center;"">₪16
                                                <br>20%</p>
                  <p id=""wtp"" style=""text-align:center; margin-top: 0px; margin-bottom: 0px; font-size: 40px"";>מוכנים לשלם: <span id=""c_p_y""></span></p>","42","evaluation","71","8","14C,17A,20C,27A","20","16","42","","","","","","","","","","","","","","",""
"","","","","","html-keyboard-response","168","288370","0.0-21.0-2.18","68dec006-5b04-4a9f-ac27-0939355af33c","null","<p style=""text-align: center;"">+</p>","null","fixation","","","","","","","","","","","","","","","","","","","","",""
"","","","","","html-slider-response","169","289372","0.0-21.0-0.19","68dec006-5b04-4a9f-ac27-0939355af33c","1000","
                  <p style=""text-align: center;"">₪64
                                                <br>25%</p>
                  <p id=""wtp"" style=""text-align:center; margin-top: 0px; margin-bottom: 0px; font-size: 40px"";>&ensp;</p>","-","viewing","0","24","6A,21A","","","","","","","","","","","","","","","","","",""
"","","","","","html-slider-response","170","290555","0.0-21.0-1.19","68dec006-5b04-4a9f-ac27-0939355af33c","1181","
                  <p style=""text-align: center;"">₪64
                                                <br>25%</p>
                  <p id=""wtp"" style=""text-align:center; margin-top: 0px; margin-bottom: 0px; font-size: 40px"";>מוכנים לשלם: <span id=""c_p_y""></span></p>","50","evaluation","12","24","6A,21A","25","64","50","","","","","","","","","","","","","","",""
"","","","","","html-keyboard-response","171","292019","0.0-21.0-2.19","68dec006-5b04-4a9f-ac27-0939355af33c","null","<p style=""text-align: center;"">+</p>","null","fixation","","","","","","","","","","","","","","","","","","","","",""
"","","","","","html-slider-response","172","293025","0.0-21.0-0.20","68dec006-5b04-4a9f-ac27-0939355af33c","1000","
                  <p style=""text-align: center;"">₪58
                                                <br>40%</p>
                  <p id=""wtp"" style=""text-align:center; margin-top: 0px; margin-bottom: 0px; font-size: 40px"";>&ensp;</p>","-","viewing","0","20","10C,13A,19C,21B","","","","","","","","","","","","","","","","","",""
"","","","","","html-slider-response","173","294468","0.0-21.0-1.20","68dec006-5b04-4a9f-ac27-0939355af33c","1442","
                  <p style=""text-align: center;"">₪58
                                                <br>40%</p>
                  <p id=""wtp"" style=""text-align:center; margin-top: 0px; margin-bottom: 0px; font-size: 40px"";>מוכנים לשלם: <span id=""c_p_y""></span></p>","71","evaluation","58","20","10C,13A,19C,21B","40","58","71","","","","","","","","","","","","","","",""
"","","","","","html-keyboard-response","174","294972","0.0-21.0-2.20","68dec006-5b04-4a9f-ac27-0939355af33c","null","<p style=""text-align: center;"">+</p>","null","fixation","","","","","","","","","","","","","","","","","","","","",""
"","","","","","html-slider-response","175","295984","0.0-21.0-0.21","68dec006-5b04-4a9f-ac27-0939355af33c","1000","
                  <p style=""text-align: center;"">₪76
                                                <br>65%</p>
                  <p id=""wtp"" style=""text-align:center; margin-top: 0px; margin-bottom: 0px; font-size: 40px"";>&ensp;</p>","-","viewing","0","29","8C,19A,24B","","","","","","","","","","","","","","","","","",""
"","","","","","html-slider-response","176","297115","0.0-21.0-1.21","68dec006-5b04-4a9f-ac27-0939355af33c","1131","
                  <p style=""text-align: center;"">₪76
                                                <br>65%</p>
                  <p id=""wtp"" style=""text-align:center; margin-top: 0px; margin-bottom: 0px; font-size: 40px"";>מוכנים לשלם: <span id=""c_p_y""></span></p>","79","evaluation","27","29","8C,19A,24B","65","76","79","","","","","","","","","","","","","","",""
"","","","","","html-keyboard-response","177","298000","0.0-21.0-2.21","68dec006-5b04-4a9f-ac27-0939355af33c","null","<p style=""text-align: center;"">+</p>","null","fixation","","","","","","","","","","","","","","","","","","","","",""
"","","","","","html-slider-response","178","299001","0.0-21.0-0.22","68dec006-5b04-4a9f-ac27-0939355af33c","1000","
                  <p style=""text-align: center;"">₪71
                                                <br>75%</p>
                  <p id=""wtp"" style=""text-align:center; margin-top: 0px; margin-bottom: 0px; font-size: 40px"";>&ensp;</p>","-","viewing","0","28","8B","","","","","","","","","","","","","","","","","",""
"","","","","","html-slider-response","179","299843","0.0-21.0-1.22","68dec006-5b04-4a9f-ac27-0939355af33c","840","
                  <p style=""text-align: center;"">₪71
                                                <br>75%</p>
                  <p id=""wtp"" style=""text-align:center; margin-top: 0px; margin-bottom: 0px; font-size: 40px"";>מוכנים לשלם: <span id=""c_p_y""></span></p>","80","evaluation","31","28","8B","75","71","80","","","","","","","","","","","","","","",""
"","","","","","html-keyboard-response","180","300830","0.0-21.0-2.22","68dec006-5b04-4a9f-ac27-0939355af33c","null","<p style=""text-align: center;"">+</p>","null","fixation","","","","","","","","","","","","","","","","","","","","",""
"","","","","","html-slider-response","181","301832","0.0-21.0-0.23","68dec006-5b04-4a9f-ac27-0939355af33c","1000","
                  <p style=""text-align: center;"">₪4
                                                <br>50%</p>
                  <p id=""wtp"" style=""text-align:center; margin-top: 0px; margin-bottom: 0px; font-size: 40px"";>&ensp;</p>","-","viewing","0","2","4C,17B","","","","","","","","","","","","","","","","","",""
"","","","","","html-slider-response","182","303355","0.0-21.0-1.23","68dec006-5b04-4a9f-ac27-0939355af33c","1522","
                  <p style=""text-align: center;"">₪4
                                                <br>50%</p>
                  <p id=""wtp"" style=""text-align:center; margin-top: 0px; margin-bottom: 0px; font-size: 40px"";>מוכנים לשלם: <span id=""c_p_y""></span></p>","12","evaluation","66","2","4C,17B","50","4","12","","","","","","","","","","","","","","",""
"","","","","","html-keyboard-response","183","304122","0.0-21.0-2.23","68dec006-5b04-4a9f-ac27-0939355af33c","null","<p style=""text-align: center;"">+</p>","null","fixation","","","","","","","","","","","","","","","","","","","","",""
"","","","","","html-slider-response","184","305127","0.0-21.0-0.24","68dec006-5b04-4a9f-ac27-0939355af33c","1000","
                  <p style=""text-align: center;"">₪39
                                                <br>60%</p>
                  <p id=""wtp"" style=""text-align:center; margin-top: 0px; margin-bottom: 0px; font-size: 40px"";>&ensp;</p>","-","viewing","0","15","9C,25B","","","","","","","","","","","","","","","","","",""
"","","","","","html-slider-response","185","305940","0.0-21.0-1.24","68dec006-5b04-4a9f-ac27-0939355af33c","811","
                  <p style=""text-align: center;"">₪39
                                                <br>60%</p>
                  <p id=""wtp"" style=""text-align:center; margin-top: 0px; margin-bottom: 0px; font-size: 40px"";>מוכנים לשלם: <span id=""c_p_y""></span></p>","45","evaluation","65","15","9C,25B","60","39","45","","","","","","","","","","","","","","",""
"","","","","","html-keyboard-response","186","307419","0.0-21.0-2.24","68dec006-5b04-4a9f-ac27-0939355af33c","null","<p style=""text-align: center;"">+</p>","null","fixation","","","","","","","","","","","","","","","","","","","","",""
"","","","","","html-slider-response","187","308425","0.0-21.0-0.25","68dec006-5b04-4a9f-ac27-0939355af33c","1000","
                  <p style=""text-align: center;"">₪58
                                                <br>45%</p>
                  <p id=""wtp"" style=""text-align:center; margin-top: 0px; margin-bottom: 0px; font-size: 40px"";>&ensp;</p>","-","viewing","0","21","11C,18C,25A","","","","","","","","","","","","","","","","","",""
"","","","","","html-slider-response","188","309203","0.0-21.0-1.25","68dec006-5b04-4a9f-ac27-0939355af33c","777","
                  <p style=""text-align: center;"">₪58
                                                <br>45%</p>
                  <p id=""wtp"" style=""text-align:center; margin-top: 0px; margin-bottom: 0px; font-size: 40px"";>מוכנים לשלם: <span id=""c_p_y""></span></p>","35","evaluation","68","21","11C,18C,25A","45","58","35","","","","","","","","","","","","","","",""
"","","","","","html-keyboard-response","189","310107","0.0-21.0-2.25","68dec006-5b04-4a9f-ac27-0939355af33c","null","<p style=""text-align: center;"">+</p>","null","fixation","","","","","","","","","","","","","","","","","","","","",""
"","","","","","html-slider-response","190","311110","0.0-21.0-0.26","68dec006-5b04-4a9f-ac27-0939355af33c","1000","
                  <p style=""text-align: center;"">₪39
                                                <br>65%</p>
                  <p id=""wtp"" style=""text-align:center; margin-top: 0px; margin-bottom: 0px; font-size: 40px"";>&ensp;</p>","-","viewing","0","16","1A,15A,26C","","","","","","","","","","","","","","","","","",""
"","","","","","html-slider-response","191","311643","0.0-21.0-1.26","68dec006-5b04-4a9f-ac27-0939355af33c","532","
                  <p style=""text-align: center;"">₪39
                                                <br>65%</p>
                  <p id=""wtp"" style=""text-align:center; margin-top: 0px; margin-bottom: 0px; font-size: 40px"";>מוכנים לשלם: <span id=""c_p_y""></span></p>","65","evaluation","37","16","1A,15A,26C","65","39","65","","","","","","","","","","","","","","",""
"","","","","","html-keyboard-response","192","313068","0.0-21.0-2.26","68dec006-5b04-4a9f-ac27-0939355af33c","null","<p style=""text-align: center;"">+</p>","null","fixation","","","","","","","","","","","","","","","","","","","","",""
"","","","","","html-slider-response","193","314070","0.0-21.0-0.27","68dec006-5b04-4a9f-ac27-0939355af33c","1000","
                  <p style=""text-align: center;"">₪4
                                                <br>25%</p>
                  <p id=""wtp"" style=""text-align:center; margin-top: 0px; margin-bottom: 0px; font-size: 40px"";>&ensp;</p>","-","viewing","0","1","6C,29B,30C","","","","","","","","","","","","","","","","","",""
"","","","","","html-slider-response","194","315651","0.0-21.0-1.27","68dec006-5b04-4a9f-ac27-0939355af33c","1580","
                  <p style=""text-align: center;"">₪4
                                                <br>25%</p>
                  <p id=""wtp"" style=""text-align:center; margin-top: 0px; margin-bottom: 0px; font-size: 40px"";>מוכנים לשלם: <span id=""c_p_y""></span></p>","6","evaluation","1","1","6C,29B,30C","25","4","6","","","","","","","","","","","","","","",""
"","","","","","html-keyboard-response","195","317019","0.0-21.0-2.27","68dec006-5b04-4a9f-ac27-0939355af33c","null","<p style=""text-align: center;"">+</p>","null","fixation","","","","","","","","","","","","","","","","","","","","",""
"","","","","","html-slider-response","196","318021","0.0-21.0-0.28","68dec006-5b04-4a9f-ac27-0939355af33c","1000","
                  <p style=""text-align: center;"">₪61
                                                <br>55%</p>
                  <p id=""wtp"" style=""text-align:center; margin-top: 0px; margin-bottom: 0px; font-size: 40px"";>&ensp;</p>","-","viewing","0","23","7B,26B","","","","","","","","","","","","","","","","","",""
"","","","","","html-slider-response","197","318803","0.0-21.0-1.28","68dec006-5b04-4a9f-ac27-0939355af33c","781","
                  <p style=""text-align: center;"">₪61
                                                <br>55%</p>
                  <p id=""wtp"" style=""text-align:center; margin-top: 0px; margin-bottom: 0px; font-size: 40px"";>מוכנים לשלם: <span id=""c_p_y""></span></p>","52","evaluation","52","23","7B,26B","55","61","52","","","","","","","","","","","","","","",""
"","","","","","html-keyboard-response","198","319906","0.0-21.0-2.28","68dec006-5b04-4a9f-ac27-0939355af33c","null","<p style=""text-align: center;"">+</p>","null","fixation","","","","","","","","","","","","","","","","","","","","",""
"","","","","","html-slider-response","199","320909","0.0-21.0-0.29","68dec006-5b04-4a9f-ac27-0939355af33c","1000","
                  <p style=""text-align: center;"">₪4
                                                <br>75%</p>
                  <p id=""wtp"" style=""text-align:center; margin-top: 0px; margin-bottom: 0px; font-size: 40px"";>&ensp;</p>","-","viewing","0","3","12B,20B,23B,27C,29C","","","","","","","","","","","","","","","","","",""
"","","","","","html-slider-response","200","323579","0.0-21.0-1.29","68dec006-5b04-4a9f-ac27-0939355af33c","2669","
                  <p style=""text-align: center;"">₪4
                                                <br>75%</p>
                  <p id=""wtp"" style=""text-align:center; margin-top: 0px; margin-bottom: 0px; font-size: 40px"";>מוכנים לשלם: <span id=""c_p_y""></span></p>","24","evaluation","29","3","12B,20B,23B,27C,29C","75","4","24","","","","","","","","","","","","","","",""
"","","","","","html-keyboard-response","201","324570","0.0-21.0-2.29","68dec006-5b04-4a9f-ac27-0939355af33c","null","<p style=""text-align: center;"">+</p>","null","fixation","","","","","","","","","","","","","","","","","","","","",""
"","","","","","html-slider-response","202","325572","0.0-21.0-0.30","68dec006-5b04-4a9f-ac27-0939355af33c","1000","
                  <p style=""text-align: center;"">₪71
                                                <br>55%</p>
                  <p id=""wtp"" style=""text-align:center; margin-top: 0px; margin-bottom: 0px; font-size: 40px"";>&ensp;</p>","-","viewing","0","27","5B,18A","","","","","","","","","","","","","","","","","",""
"","","","","","html-slider-response","203","326603","0.0-21.0-1.30","68dec006-5b04-4a9f-ac27-0939355af33c","1029","
                  <p style=""text-align: center;"">₪71
                                                <br>55%</p>
                  <p id=""wtp"" style=""text-align:center; margin-top: 0px; margin-bottom: 0px; font-size: 40px"";>מוכנים לשלם: <span id=""c_p_y""></span></p>","54","evaluation","64","27","5B,18A","55","71","54","","","","","","","","","","","","","","",""
"","","","","","html-keyboard-response","204","327435","0.0-21.0-2.30","68dec006-5b04-4a9f-ac27-0939355af33c","null","<p style=""text-align: center;"">+</p>","null","fixation","","","","","","","","","","","","","","","","","","","","",""
"","","","","","html-keyboard-response","205","328442","0.0-22.0","68dec006-5b04-4a9f-ac27-0939355af33c","null","<p style=""text-align: center;"">+</p>","null","fixation","","","","","","","","","","","","","","","","","","","","",""
"","","","","","html-keyboard-response","206","332915","0.0-23.0","68dec006-5b04-4a9f-ac27-0939355af33c","null","<p>הפסקה.
          <br>לחצו כדי להמשיך.</p>","1","scan_wait","","","","","","","","","","","","","","","","","","","","",""
"","","","","","html-keyboard-response","207","333930","0.0-24.0","68dec006-5b04-4a9f-ac27-0939355af33c","null","<p style=""text-align: center;"">+</p>","null","fixation","","","","","","","","","","","","","","","","","","","","",""
"","","","","","html-slider-response","208","334946","0.0-25.0-0.0","68dec006-5b04-4a9f-ac27-0939355af33c","1000","
                  <p style=""text-align: center;"">₪18
                                                <br>25%</p>
                  <p id=""wtp"" style=""text-align:center; margin-top: 0px; margin-bottom: 0px; font-size: 40px"";>&ensp;</p>","-","viewing","0","9","14A,23A","","","","","","","","","","","","","","","","","",""
"","","","","","html-slider-response","209","336291","0.0-25.0-1.0","68dec006-5b04-4a9f-ac27-0939355af33c","1344","
                  <p style=""text-align: center;"">₪18
                                                <br>25%</p>
                  <p id=""wtp"" style=""text-align:center; margin-top: 0px; margin-bottom: 0px; font-size: 40px"";>מוכנים לשלם: <span id=""c_p_y""></span></p>","6","evaluation","2","9","14A,23A","25","18","7","","","","","","","","","","","","","","",""
"","","","","","html-keyboard-response","210","337448","0.0-25.0-2.0","68dec006-5b04-4a9f-ac27-0939355af33c","null","<p style=""text-align: center;"">+</p>","null","fixation","","","","","","","","","","","","","","","","","","","","",""
"","","","","","html-slider-response","211","338459","0.0-25.0-0.1","68dec006-5b04-4a9f-ac27-0939355af33c","1000","
                  <p style=""text-align: center;"">₪36
                                                <br>70%</p>
                  <p id=""wtp"" style=""text-align:center; margin-top: 0px; margin-bottom: 0px; font-size: 40px"";>&ensp;</p>","-","viewing","0","13","3A,5C,10B","","","","","","","","","","","","","","","","","",""
"","","","","","html-slider-response","212","339203","0.0-25.0-1.1","68dec006-5b04-4a9f-ac27-0939355af33c","743","
                  <p style=""text-align: center;"">₪36
                                                <br>70%</p>
                  <p id=""wtp"" style=""text-align:center; margin-top: 0px; margin-bottom: 0px; font-size: 40px"";>מוכנים לשלם: <span id=""c_p_y""></span></p>","63","evaluation","20","13","3A,5C,10B","70","36","63","","","","","","","","","","","","","","",""
"","","","","","html-keyboard-response","213","339855","0.0-25.0-2.1","68dec006-5b04-4a9f-ac27-0939355af33c","null","<p style=""text-align: center;"">+</p>","null","fixation","","","","","","","","","","","","","","","","","","","","",""
"","","","","","html-slider-response","214","340858","0.0-25.0-0.2","68dec006-5b04-4a9f-ac27-0939355af33c","1000","
                  <p style=""text-align: center;"">₪61
                                                <br>55%</p>
                  <p id=""wtp"" style=""text-align:center; margin-top: 0px; margin-bottom: 0px; font-size: 40px"";>&ensp;</p>","-","viewing","0","23","7B,26B","","","","","","","","","","","","","","","","","",""
"","","","","","html-slider-response","215","341803","0.0-25.0-1.2","68dec006-5b04-4a9f-ac27-0939355af33c","943","
                  <p style=""text-align: center;"">₪61
                                                <br>55%</p>
                  <p id=""wtp"" style=""text-align:center; margin-top: 0px; margin-bottom: 0px; font-size: 40px"";>מוכנים לשלם: <span id=""c_p_y""></span></p>","52","evaluation","44","23","7B,26B","55","61","52","","","","","","","","","","","","","","",""
"","","","","","html-keyboard-response","216","343240","0.0-25.0-2.2","68dec006-5b04-4a9f-ac27-0939355af33c","null","<p style=""text-align: center;"">+</p>","null","fixation","","","","","","","","","","","","","","","","","","","","",""
"","","","","","html-slider-response","217","344249","0.0-25.0-0.3","68dec006-5b04-4a9f-ac27-0939355af33c","1000","
                  <p style=""text-align: center;"">₪58
                                                <br>40%</p>
                  <p id=""wtp"" style=""text-align:center; margin-top: 0px; margin-bottom: 0px; font-size: 40px"";>&ensp;</p>","-","viewing","0","20","10C,13A,19C,21B","","","","","","","","","","","","","","","","","",""
"","","","","","html-slider-response","218","345227","0.0-25.0-1.3","68dec006-5b04-4a9f-ac27-0939355af33c","977","
                  <p style=""text-align: center;"">₪58
                                                <br>40%</p>
                  <p id=""wtp"" style=""text-align:center; margin-top: 0px; margin-bottom: 0px; font-size: 40px"";>מוכנים לשלם: <span id=""c_p_y""></span></p>","38","evaluation","35","20","10C,13A,19C,21B","40","58","38","","","","","","","","","","","","","","",""
"","","","","","html-keyboard-response","219","345786","0.0-25.0-2.3","68dec006-5b04-4a9f-ac27-0939355af33c","null","<p style=""text-align: center;"">+</p>","null","fixation","","","","","","","","","","","","","","","","","","","","",""
"","","","","","html-slider-response","220","346793","0.0-25.0-0.4","68dec006-5b04-4a9f-ac27-0939355af33c","1000","
                  <p style=""text-align: center;"">₪11
                                                <br>75%</p>
                  <p id=""wtp"" style=""text-align:center; margin-top: 0px; margin-bottom: 0px; font-size: 40px"";>&ensp;</p>","-","viewing","0","7","6B,18B,22C,24C,29A","","","","","","","","","","","","","","","","","",""
"","","","","","html-slider-response","221","349163","0.0-25.0-1.4","68dec006-5b04-4a9f-ac27-0939355af33c","2369","
                  <p style=""text-align: center;"">₪11
                                                <br>75%</p>
                  <p id=""wtp"" style=""text-align:center; margin-top: 0px; margin-bottom: 0px; font-size: 40px"";>מוכנים לשלם: <span id=""c_p_y""></span></p>","34","evaluation","77","7","6B,18B,22C,24C,29A","75","11","34","","","","","","","","","","","","","","",""
"","","","","","html-keyboard-response","222","350550","0.0-25.0-2.4","68dec006-5b04-4a9f-ac27-0939355af33c","null","<p style=""text-align: center;"">+</p>","null","fixation","","","","","","","","","","","","","","","","","","","","",""
"","","","","","html-slider-response","223","351552","0.0-25.0-0.5","68dec006-5b04-4a9f-ac27-0939355af33c","1000","
                  <p style=""text-align: center;"">₪39
                                                <br>65%</p>
                  <p id=""wtp"" style=""text-align:center; margin-top: 0px; margin-bottom: 0px; font-size: 40px"";>&ensp;</p>","-","viewing","0","16","1A,15A,26C","","","","","","","","","","","","","","","","","",""
"","","","","","html-slider-response","224","352811","0.0-25.0-1.5","68dec006-5b04-4a9f-ac27-0939355af33c","1258","
                  <p style=""text-align: center;"">₪39
                                                <br>65%</p>
                  <p id=""wtp"" style=""text-align:center; margin-top: 0px; margin-bottom: 0px; font-size: 40px"";>מוכנים לשלם: <span id=""c_p_y""></span></p>","71","evaluation","55","16","1A,15A,26C","65","39","71","","","","","","","","","","","","","","",""
"","","","","","html-keyboard-response","225","354064","0.0-25.0-2.5","68dec006-5b04-4a9f-ac27-0939355af33c","null","<p style=""text-align: center;"">+</p>","null","fixation","","","","","","","","","","","","","","","","","","","","",""
"","","","","","html-slider-response","226","355066","0.0-25.0-0.6","68dec006-5b04-4a9f-ac27-0939355af33c","1000","
                  <p style=""text-align: center;"">₪4
                                                <br>50%</p>
                  <p id=""wtp"" style=""text-align:center; margin-top: 0px; margin-bottom: 0px; font-size: 40px"";>&ensp;</p>","-","viewing","0","2","4C,17B","","","","","","","","","","","","","","","","","",""
"","","","","","html-slider-response","227","357131","0.0-25.0-1.6","68dec006-5b04-4a9f-ac27-0939355af33c","2064","
                  <p style=""text-align: center;"">₪4
                                                <br>50%</p>
                  <p id=""wtp"" style=""text-align:center; margin-top: 0px; margin-bottom: 0px; font-size: 40px"";>מוכנים לשלם: <span id=""c_p_y""></span></p>","3","evaluation","56","2","4C,17B","50","4","3","","","","","","","","","","","","","","",""
"","","","","","html-keyboard-response","228","358108","0.0-25.0-2.6","68dec006-5b04-4a9f-ac27-0939355af33c","null","<p style=""text-align: center;"">+</p>","null","fixation","","","","","","","","","","","","","","","","","","","","",""
"","","","","","html-slider-response","229","359110","0.0-25.0-0.7","68dec006-5b04-4a9f-ac27-0939355af33c","1000","
                  <p style=""text-align: center;"">₪18
                                                <br>50%</p>
                  <p id=""wtp"" style=""text-align:center; margin-top: 0px; margin-bottom: 0px; font-size: 40px"";>&ensp;</p>","-","viewing","0","10","2C,16C,22B,28A","","","","","","","","","","","","","","","","","",""
"","","","","","html-slider-response","230","360723","0.0-25.0-1.7","68dec006-5b04-4a9f-ac27-0939355af33c","1613","
                  <p style=""text-align: center;"">₪18
                                                <br>50%</p>
                  <p id=""wtp"" style=""text-align:center; margin-top: 0px; margin-bottom: 0px; font-size: 40px"";>מוכנים לשלם: <span id=""c_p_y""></span></p>","20","evaluation","46","10","2C,16C,22B,28A","50","18","20","","","","","","","","","","","","","","",""
"","","","","","html-keyboard-response","231","361411","0.0-25.0-2.7","68dec006-5b04-4a9f-ac27-0939355af33c","null","<p style=""text-align: center;"">+</p>","null","fixation","","","","","","","","","","","","","","","","","","","","",""
"","","","","","html-slider-response","232","362417","0.0-25.0-0.8","68dec006-5b04-4a9f-ac27-0939355af33c","1000","
                  <p style=""text-align: center;"">₪11
                                                <br>45%</p>
                  <p id=""wtp"" style=""text-align:center; margin-top: 0px; margin-bottom: 0px; font-size: 40px"";>&ensp;</p>","-","viewing","0","6","14B,21C,25C","","","","","","","","","","","","","","","","","",""
"","","","","","html-slider-response","233","363619","0.0-25.0-1.8","68dec006-5b04-4a9f-ac27-0939355af33c","1201","
                  <p style=""text-align: center;"">₪11
                                                <br>45%</p>
                  <p id=""wtp"" style=""text-align:center; margin-top: 0px; margin-bottom: 0px; font-size: 40px"";>מוכנים לשלם: <span id=""c_p_y""></span></p>","15","evaluation","9","6","14B,21C,25C","45","11","15","","","","","","","","","","","","","","",""
"","","","","","html-keyboard-response","234","364334","0.0-25.0-2.8","68dec006-5b04-4a9f-ac27-0939355af33c","null","<p style=""text-align: center;"">+</p>","null","fixation","","","","","","","","","","","","","","","","","","","","",""
"","","","","","html-slider-response","235","365335","0.0-25.0-0.9","68dec006-5b04-4a9f-ac27-0939355af33c","1000","
                  <p style=""text-align: center;"">₪36
                                                <br>60%</p>
                  <p id=""wtp"" style=""text-align:center; margin-top: 0px; margin-bottom: 0px; font-size: 40px"";>&ensp;</p>","-","viewing","0","12","1C,7C,15C","","","","","","","","","","","","","","","","","",""
"","","","","","html-slider-response","236","366244","0.0-25.0-1.9","68dec006-5b04-4a9f-ac27-0939355af33c","908","
                  <p style=""text-align: center;"">₪36
                                                <br>60%</p>
                  <p id=""wtp"" style=""text-align:center; margin-top: 0px; margin-bottom: 0px; font-size: 40px"";>מוכנים לשלם: <span id=""c_p_y""></span></p>","63","evaluation","31","12","1C,7C,15C","60","36","62","","","","","","","","","","","","","","",""
"","","","","","html-keyboard-response","237","366897","0.0-25.0-2.9","68dec006-5b04-4a9f-ac27-0939355af33c","null","<p style=""text-align: center;"">+</p>","null","fixation","","","","","","","","","","","","","","","","","","","","",""
"","","","","","html-slider-response","238","367900","0.0-25.0-0.10","68dec006-5b04-4a9f-ac27-0939355af33c","1000","
                  <p style=""text-align: center;"">₪79
                                                <br>65%</p>
                  <p id=""wtp"" style=""text-align:center; margin-top: 0px; margin-bottom: 0px; font-size: 40px"";>&ensp;</p>","-","viewing","0","31","8A","","","","","","","","","","","","","","","","","",""
"","","","","","html-slider-response","239","368963","0.0-25.0-1.10","68dec006-5b04-4a9f-ac27-0939355af33c","1062","
                  <p style=""text-align: center;"">₪79
                                                <br>65%</p>
                  <p id=""wtp"" style=""text-align:center; margin-top: 0px; margin-bottom: 0px; font-size: 40px"";>מוכנים לשלם: <span id=""c_p_y""></span></p>","78","evaluation","59","31","8A","65","79","78","","","","","","","","","","","","","","",""
"","","","","","html-keyboard-response","240","369556","0.0-25.0-2.10","68dec006-5b04-4a9f-ac27-0939355af33c","null","<p style=""text-align: center;"">+</p>","null","fixation","","","","","","","","","","","","","","","","","","","","",""
"","","","","","html-slider-response","241","370572","0.0-25.0-0.11","68dec006-5b04-4a9f-ac27-0939355af33c","1000","
                  <p style=""text-align: center;"">₪43
                                                <br>60%</p>
                  <p id=""wtp"" style=""text-align:center; margin-top: 0px; margin-bottom: 0px; font-size: 40px"";>&ensp;</p>","-","viewing","0","17","2A,7A,9A,15B","","","","","","","","","","","","","","","","","",""
"","","","","","html-slider-response","242","371467","0.0-25.0-1.11","68dec006-5b04-4a9f-ac27-0939355af33c","895","
                  <p style=""text-align: center;"">₪43
                                                <br>60%</p>
                  <p id=""wtp"" style=""text-align:center; margin-top: 0px; margin-bottom: 0px; font-size: 40px"";>מוכנים לשלם: <span id=""c_p_y""></span></p>","79","evaluation","29","17","2A,7A,9A,15B","60","43","79","","","","","","","","","","","","","","",""
"","","","","","html-keyboard-response","243","372247","0.0-25.0-2.11","68dec006-5b04-4a9f-ac27-0939355af33c","null","<p style=""text-align: center;"">+</p>","null","fixation","","","","","","","","","","","","","","","","","","","","",""
"","","","","","html-slider-response","244","373259","0.0-25.0-0.12","68dec006-5b04-4a9f-ac27-0939355af33c","1000","
                  <p style=""text-align: center;"">₪43
                                                <br>75%</p>
                  <p id=""wtp"" style=""text-align:center; margin-top: 0px; margin-bottom: 0px; font-size: 40px"";>&ensp;</p>","-","viewing","0","18","11B,19B,24A,26A","","","","","","","","","","","","","","","","","",""
"","","","","","html-slider-response","245","373851","0.0-25.0-1.12","68dec006-5b04-4a9f-ac27-0939355af33c","591","
                  <p style=""text-align: center;"">₪43
                                                <br>75%</p>
                  <p id=""wtp"" style=""text-align:center; margin-top: 0px; margin-bottom: 0px; font-size: 40px"";>מוכנים לשלם: <span id=""c_p_y""></span></p>","23","evaluation","23","18","11B,19B,24A,26A","75","43","23","","","","","","","","","","","","","","",""
"","","","","","html-keyboard-response","246","374781","0.0-25.0-2.12","68dec006-5b04-4a9f-ac27-0939355af33c","null","<p style=""text-align: center;"">+</p>","null","fixation","","","","","","","","","","","","","","","","","","","","",""
"","","","","","html-slider-response","247","375783","0.0-25.0-0.13","68dec006-5b04-4a9f-ac27-0939355af33c","1000","
                  <p style=""text-align: center;"">₪11
                                                <br>25%</p>
                  <p id=""wtp"" style=""text-align:center; margin-top: 0px; margin-bottom: 0px; font-size: 40px"";>&ensp;</p>","-","viewing","0","5","12A,27B,28B,30B","","","","","","","","","","","","","","","","","",""
"","","","","","html-slider-response","248","378107","0.0-25.0-1.13","68dec006-5b04-4a9f-ac27-0939355af33c","2323","
                  <p style=""text-align: center;"">₪11
                                                <br>25%</p>
                  <p id=""wtp"" style=""text-align:center; margin-top: 0px; margin-bottom: 0px; font-size: 40px"";>מוכנים לשלם: <span id=""c_p_y""></span></p>","2","evaluation","9","5","12A,27B,28B,30B","25","11","2","","","","","","","","","","","","","","",""
"","","","","","html-keyboard-response","249","379394","0.0-25.0-2.13","68dec006-5b04-4a9f-ac27-0939355af33c","null","<p style=""text-align: center;"">+</p>","null","fixation","","","","","","","","","","","","","","","","","","","","",""
"","","","","","html-slider-response","250","380396","0.0-25.0-0.14","68dec006-5b04-4a9f-ac27-0939355af33c","1000","
                  <p style=""text-align: center;"">₪36
                                                <br>75%</p>
                  <p id=""wtp"" style=""text-align:center; margin-top: 0px; margin-bottom: 0px; font-size: 40px"";>&ensp;</p>","-","viewing","0","14","4B,5A,13B,16B","","","","","","","","","","","","","","","","","",""
"","","","","","html-slider-response","251","381396","0.0-25.0-1.14","68dec006-5b04-4a9f-ac27-0939355af33c","998","
                  <p style=""text-align: center;"">₪36
                                                <br>75%</p>
                  <p id=""wtp"" style=""text-align:center; margin-top: 0px; margin-bottom: 0px; font-size: 40px"";>מוכנים לשלם: <span id=""c_p_y""></span></p>","75","evaluation","44","14","4B,5A,13B,16B","75","36","75","","","","","","","","","","","","","","",""
"","","","","","html-keyboard-response","252","382546","0.0-25.0-2.14","68dec006-5b04-4a9f-ac27-0939355af33c","null","<p style=""text-align: center;"">+</p>","null","fixation","","","","","","","","","","","","","","","","","","","","",""
