"success","timeout","failed_images","failed_audio","failed_video","trial_type","trial_index","time_elapsed","internal_node_id","subject_id","rt","stimulus","response","part","slider_start","ID","set_ID","prob","amount","last_location","actual_choice","actual_EV","binary_id","trinary_id","catch","direction","A_key","S_key","D_key","choice_prob","choice_amount","potential_prize_prob","potential_prize_amount","won_prize","total_prize","remaining_budget","accuracy"
"true","false","[]","[]","[]","preload","0","4","0.0-0.0","3975af8a-b2cb-4111-bdc5-9d989e64c4ac","","","","","","","","","","","","","","","","","","","","","","","","","","",""
"","","","","","html-keyboard-response","1","7975","0.0-1.0","3975af8a-b2cb-4111-bdc5-9d989e64c4ac","null","
          <h1>שלום וברוכים הבאים!</h1>
          <p>לפניכם ניסוי בקבלת החלטות עם שני חלקים.
          <br><br>לחצו על העכבר כדי להמשיך.</p>","0","example","","","","","","","","","","","","","","","","","","","","","","",""
"","","","","","html-keyboard-response","2","16183","0.0-2.0","3975af8a-b2cb-4111-bdc5-9d989e64c4ac","null","
        <h1>חלק 1</h1>
        <p>בקרוב יוצגו בפניכם הגרלות.
        <br>עליכם לבחור את המחיר המירבי שתהיו מוכנים לשלם כדי להשתתף בהגרלה שתוצג.
        <br>יש לכם תקציב של ₪80 לכל הגרלה. 
        <br>נסו להעריך כל הגרלה בנפרד ולחשוב כמה היא שווה עבורכם, ₪80 זמינים לכל הגרלה בנפרד.
        <br><br>לחצו על העכבר כדי להמשיך.</p>","1","instructions","","","","","","","","","","","","","","","","","","","","","","",""
"","","","","","html-keyboard-response","3","18543","0.0-3.0","3975af8a-b2cb-4111-bdc5-9d989e64c4ac","null","
        <p>בסוף הניסוי, המחשב יבחר את אחת ההגרלות ויקבע מחיר לכרטיס עבורה. 
        <br>במידה והמחיר שבחרתם נמוך מהמחיר שנבחר על ידי המחשב, לא תשתתפו בהגרלה ותשארו עם מלוא התקציב.
        <br>במידה והמחיר שבחרתם גבוה מהמחיר שנבחר על ידי המחשב, תשלמו את המחיר שנקבע ותשתתפו בהגרלה.
        <br><br>לחצו על העכבר כדי להמשיך.</p>","1","instructions","","","","","","","","","","","","","","","","","","","","","","",""
"","","","","","html-slider-response","4","70407","0.0-4.0","3975af8a-b2cb-4111-bdc5-9d989e64c4ac","51759","
        <p style=""font-size: 42px;"">נתחיל עם דוגמא: 
        <br>ההגרלה מטה מציעה 65% סיכוי לזכות ב-₪40 
        <br>&emsp;&emsp;&emsp;&emsp;&emsp;&emsp;&emsp;&emsp;&ensp;35% סיכוי לזכות ב-₪0.
        <br><br>מה המחיר המירבי שתהיו מוכנים לשלם על כרטיס להגרלה זו בין 0 ל-₪80?
        <br>הזיזו את העכבר על פני המלבן ולחצו כדי לבצע בחירה.</p>
        
        <p style=""text-align: center;"">₪40<br>65%</p>

        <p id=""wtp"" style=""text-align:center; margin-top: 0px; margin-bottom: 0px; font-size: 40px"";>מוכנים לשלם: <span id=""c_p_y""></span></p>","15","example","72","","","","","","","","","","","","","","","","","","","","","",""
"","","","","","html-keyboard-response","5","81903","0.0-5.0","3975af8a-b2cb-4111-bdc5-9d989e64c4ac","null","<p>יפה מאוד!
                <br> בחרתם שתהיו מוכנים לשלם ₪15 כדי להשתתף בהגרלה:
                <br><p style=""text-align: center;"">₪40<br>65%</p>
                <p>נשמע נכון?
                <br>נניח שהגרלה זו נבחרה בסוף הניסוי.
                <br>כעת המחשב יקבע מחיר עבורה באקראי.
                <br>לחצו על העכבר להמשך.</p>","1","example","","","","","","","","","","","","","","","","","","","","","","",""
"","","","","","html-keyboard-response","6","85623","0.0-6.0","3975af8a-b2cb-4111-bdc5-9d989e64c4ac","null","<p>המחשב קבע מחיר: ₪43
                <br>ואתם בחרתם לשלם לכל היותר: ₪15
                <br><br>מכיוון שהמחיר שבחרתם נמוך מהמחיר שנקבע, לא תתשתתפו בהגרלה.
                <br>במקרה כזה, בסוף הניסוי תקבלו את כל התקציב ההתחלתי של ₪80.
                <br><br>לחצו על העכבר להמשך.</p>","1","example","","","","","","","","","","","","","","","","","","","","","","",""
"","","","","","html-slider-response","7","94359","0.0-7.0","3975af8a-b2cb-4111-bdc5-9d989e64c4ac","8484","<p style=""font-size: 42px;"">הנה עוד דוגמא:
                <br>ההגרלה מטה מציעה 35% סיכוי לזכות ב-₪18 
                <br>&emsp;&emsp;&emsp;&emsp;&emsp;&emsp;&emsp;&emsp;&ensp;65% סיכוי לזכות ב-₪0.</p>
        
                <p style=""text-align: center;"">₪18<br>35%</p>
                <p id=""wtp"" style=""text-align:center; margin-top: 0px; margin-bottom: 0px; font-size: 40px"";>מוכנים לשלם: <span id=""c_p_y""></span></p>","3","example","62","","","","","","","","","","","","","","","","","","","","","",""
"","","","","","html-keyboard-response","8","97247","0.0-8.0","3975af8a-b2cb-4111-bdc5-9d989e64c4ac","null","<p>הייתם מוכנים לשלם  ₪3 כדי להשתתף בהגרלה:
                <p style=""text-align: center;"">₪18<br>35%</p>
                <p>כעת נניח שהמחשב בחר את ההגרלה הזו בסוף הניסוי, וקבע עבורה מחיר.
                <br><br>לחצו על העכבר כדי להמשיך.</p>","1","instructions","","","","","","","","","","","","","","","","","","","","","","",""
"","","","","","html-keyboard-response","9","106487","0.0-9.0","3975af8a-b2cb-4111-bdc5-9d989e64c4ac","null","<p>המחשב קבע מחיר להגרלה: ₪2<br>ואתם בחרתם לשלם לכל היותר: ₪3
                <br><br>כעת המחיר שנקבע נמוך מזה שבחרתם, אז תשלמו את המחיר שקבע המחשב (₪2) ותשתתפו בהגרלה.
                <br>במקרה כזה, תסיימו את הניסוי עם תקציב של ₪78 ועם סיכוי לזכות ב-₪18 נוספים מההגרלה.
                <br>כלומר, תוכלו לקבל ₪78 אם לא תזכו בהגרלה, או ₪96 אם תזכו בהגרלה.
                <br><br>לחצו על העכבר להמשך.</p>","1","example","","","","","","","","","","","","","","","","","","","","","","",""
"","","","","","html-keyboard-response","10","111975","0.0-10.0","3975af8a-b2cb-4111-bdc5-9d989e64c4ac","null","<p>במהלך הניסוי, קודם תראו את ההגרלה ורק לאחר מכן תוכלו לבחור.
                <p>כמו כן, יהיו לכם מספר שניות מוגבל להגיב.
                <p>בואו ננסה זאת עם ההגרלה הקודמת.
                <br>לחצו על העכבר כדי להמשיך.</p>","1","instructions","","","","","","","","","","","","","","","","","","","","","","",""
"","","","","","html-slider-response","11","113230","0.0-11.0","3975af8a-b2cb-4111-bdc5-9d989e64c4ac","1000","
                    <p style=""text-align: center;"">₪18<br>35%</p>
                    <p id=""wtp"" style=""text-align:center; margin-top: 0px; margin-bottom: 0px; font-size: 40px"";>&ensp;</p>","6","instructions","0","","","","","","","","","","","","","","","","","","","","","",""
"","","","","","html-slider-response","12","116303","0.0-12.0","3975af8a-b2cb-4111-bdc5-9d989e64c4ac","2816","
                    <p style=""text-align: center;"">₪18<br>35%</p>
                    <p id=""wtp"" style=""text-align:center; margin-top: 0px; margin-bottom: 0px; font-size: 40px"";>מוכנים לשלם: <span id=""c_p_y""></span></p>","4","instructions","54","","","","","","","","","","","","","","","","","","","","","",""
"","","","","","html-keyboard-response","13","118511","0.0-13.0","3975af8a-b2cb-4111-bdc5-9d989e64c4ac","null","<p>יפה. הפעם בחרתם לשלם לכל היותר ₪4.
                <br><br>לחצו על העכבר כדי להמשיך.</p>","1","instructions","","","","","","","","","","","","","","","","","","","","","","",""
"","","","","","html-keyboard-response","14","125399","0.0-15.0","3975af8a-b2cb-4111-bdc5-9d989e64c4ac","null","<p>כעת נתחיל את הניסוי.
                <br><br>אתם תראו הגרלות ותתבקשו לבחור כמה תהיו מוכנים לשלם כדי להשתתף בהן.
                <br>יש לכם תקציב של ₪80 עבור כל הגרלה.
                <br>בסוף הניסוי הגרלה אחת תבחר באקראי ותשוחק.
                <br><br>לחצו על העכבר כדי להתחיל את הניסוי.</p>","1","instructions","","","","","","","","","","","","","","","","","","","","","","",""
"","","","","","html-keyboard-response","15","126652","0.0-16.0","3975af8a-b2cb-4111-bdc5-9d989e64c4ac","null","<p style=""text-align: center;"">+</p>","null","fixation","","","","","","","","","","","","","","","","","","","","","","",""
"","","","","","html-slider-response","16","127660","0.0-17.0-0.0","3975af8a-b2cb-4111-bdc5-9d989e64c4ac","1000","
                  <p style=""text-align: center;"">₪64
                                                <br>50%</p>
                  <p id=""wtp"" style=""text-align:center; margin-top: 0px; margin-bottom: 0px; font-size: 40px"";>&ensp;</p>","-","viewing","0","25","1B,3B,4A","","","","","","","","","","","","","","","","","","","",""
"","","","","","html-slider-response","17","131071","0.0-17.0-1.0","3975af8a-b2cb-4111-bdc5-9d989e64c4ac","3410","
                  <p style=""text-align: center;"">₪64
                                                <br>50%</p>
                  <p id=""wtp"" style=""text-align:center; margin-top: 0px; margin-bottom: 0px; font-size: 40px"";>מוכנים לשלם: <span id=""c_p_y""></span></p>","20","evaluation","29","25","1B,3B,4A","50","64","20","","","","","","","","","","","","","","","","",""
"","","","","","html-keyboard-response","18","131809","0.0-17.0-2.0","3975af8a-b2cb-4111-bdc5-9d989e64c4ac","null","<p style=""text-align: center;"">+</p>","null","fixation","","","","","","","","","","","","","","","","","","","","","","",""
"","","","","","html-slider-response","19","132824","0.0-17.0-0.1","3975af8a-b2cb-4111-bdc5-9d989e64c4ac","1000","
                  <p style=""text-align: center;"">₪39
                                                <br>65%</p>
                  <p id=""wtp"" style=""text-align:center; margin-top: 0px; margin-bottom: 0px; font-size: 40px"";>&ensp;</p>","-","viewing","0","16","1A,15A,26C","","","","","","","","","","","","","","","","","","","",""
"","","","","","html-slider-response","20","136711","0.0-17.0-1.1","3975af8a-b2cb-4111-bdc5-9d989e64c4ac","3886","
                  <p style=""text-align: center;"">₪39
                                                <br>65%</p>
                  <p id=""wtp"" style=""text-align:center; margin-top: 0px; margin-bottom: 0px; font-size: 40px"";>מוכנים לשלם: <span id=""c_p_y""></span></p>","20","evaluation","54","16","1A,15A,26C","65","39","20","","","","","","","","","","","","","","","","",""
"","","","","","html-keyboard-response","21","137783","0.0-17.0-2.1","3975af8a-b2cb-4111-bdc5-9d989e64c4ac","null","<p style=""text-align: center;"">+</p>","null","fixation","","","","","","","","","","","","","","","","","","","","","","",""
"","","","","","html-slider-response","22","138795","0.0-17.0-0.2","3975af8a-b2cb-4111-bdc5-9d989e64c4ac","1000","
                  <p style=""text-align: center;"">₪58
                                                <br>45%</p>
                  <p id=""wtp"" style=""text-align:center; margin-top: 0px; margin-bottom: 0px; font-size: 40px"";>&ensp;</p>","-","viewing","0","21","11C,18C,25A","","","","","","","","","","","","","","","","","","","",""
"","","","","","html-slider-response","23","142799","0.0-17.0-1.2","3975af8a-b2cb-4111-bdc5-9d989e64c4ac","null","
                  <p style=""text-align: center;"">₪58
                                                <br>45%</p>
                  <p id=""wtp"" style=""text-align:center; margin-top: 0px; margin-bottom: 0px; font-size: 40px"";>מוכנים לשלם: <span id=""c_p_y""></span></p>","null","evaluation","42","21","11C,18C,25A","45","58","14","","","","","","","","","","","","","","","","",""
"","","","","","html-keyboard-response","24","143487","0.0-17.0-2.2","3975af8a-b2cb-4111-bdc5-9d989e64c4ac","null","<p style=""text-align: center;"">+</p>","null","fixation","","","","","","","","","","","","","","","","","","","","","","",""
"","","","","","html-slider-response","25","144495","0.0-17.0-0.3","3975af8a-b2cb-4111-bdc5-9d989e64c4ac","1000","
                  <p style=""text-align: center;"">₪79
                                                <br>65%</p>
                  <p id=""wtp"" style=""text-align:center; margin-top: 0px; margin-bottom: 0px; font-size: 40px"";>&ensp;</p>","-","viewing","0","31","8A","","","","","","","","","","","","","","","","","","","",""
"","","","","","html-slider-response","26","146327","0.0-17.0-1.3","3975af8a-b2cb-4111-bdc5-9d989e64c4ac","1831","
                  <p style=""text-align: center;"">₪79
                                                <br>65%</p>
                  <p id=""wtp"" style=""text-align:center; margin-top: 0px; margin-bottom: 0px; font-size: 40px"";>מוכנים לשלם: <span id=""c_p_y""></span></p>","59","evaluation","61","31","8A","65","79","59","","","","","","","","","","","","","","","","",""
"","","","","","html-keyboard-response","27","146948","0.0-17.0-2.3","3975af8a-b2cb-4111-bdc5-9d989e64c4ac","null","<p style=""text-align: center;"">+</p>","null","fixation","","","","","","","","","","","","","","","","","","","","","","",""
"","","","","","html-slider-response","28","147959","0.0-17.0-0.4","3975af8a-b2cb-4111-bdc5-9d989e64c4ac","1000","
                  <p style=""text-align: center;"">₪79
                                                <br>40%</p>
                  <p id=""wtp"" style=""text-align:center; margin-top: 0px; margin-bottom: 0px; font-size: 40px"";>&ensp;</p>","-","viewing","0","30","9B","","","","","","","","","","","","","","","","","","","",""
"","","","","","html-slider-response","29","149519","0.0-17.0-1.4","3975af8a-b2cb-4111-bdc5-9d989e64c4ac","1559","
                  <p style=""text-align: center;"">₪79
                                                <br>40%</p>
                  <p id=""wtp"" style=""text-align:center; margin-top: 0px; margin-bottom: 0px; font-size: 40px"";>מוכנים לשלם: <span id=""c_p_y""></span></p>","26","evaluation","65","30","9B","40","79","26","","","","","","","","","","","","","","","","",""
"","","","","","html-keyboard-response","30","150395","0.0-17.0-2.4","3975af8a-b2cb-4111-bdc5-9d989e64c4ac","null","<p style=""text-align: center;"">+</p>","null","fixation","","","","","","","","","","","","","","","","","","","","","","",""
"","","","","","html-slider-response","31","151398","0.0-17.0-0.5","3975af8a-b2cb-4111-bdc5-9d989e64c4ac","1000","
                  <p style=""text-align: center;"">₪18
                                                <br>50%</p>
                  <p id=""wtp"" style=""text-align:center; margin-top: 0px; margin-bottom: 0px; font-size: 40px"";>&ensp;</p>","-","viewing","0","10","2C,16C,22B,28A","","","","","","","","","","","","","","","","","","","",""
"","","","","","html-slider-response","32","152751","0.0-17.0-1.5","3975af8a-b2cb-4111-bdc5-9d989e64c4ac","1353","
                  <p style=""text-align: center;"">₪18
                                                <br>50%</p>
                  <p id=""wtp"" style=""text-align:center; margin-top: 0px; margin-bottom: 0px; font-size: 40px"";>מוכנים לשלם: <span id=""c_p_y""></span></p>","3","evaluation","3","10","2C,16C,22B,28A","50","18","4","","","","","","","","","","","","","","","","",""
"","","","","","html-keyboard-response","33","153879","0.0-17.0-2.5","3975af8a-b2cb-4111-bdc5-9d989e64c4ac","null","<p style=""text-align: center;"">+</p>","null","fixation","","","","","","","","","","","","","","","","","","","","","","",""
"","","","","","html-slider-response","34","154881","0.0-17.0-0.6","3975af8a-b2cb-4111-bdc5-9d989e64c4ac","1000","
                  <p style=""text-align: center;"">₪61
                                                <br>55%</p>
                  <p id=""wtp"" style=""text-align:center; margin-top: 0px; margin-bottom: 0px; font-size: 40px"";>&ensp;</p>","-","viewing","0","23","7B,26B","","","","","","","","","","","","","","","","","","","",""
"","","","","","html-slider-response","35","156127","0.0-17.0-1.6","3975af8a-b2cb-4111-bdc5-9d989e64c4ac","1244","
                  <p style=""text-align: center;"">₪61
                                                <br>55%</p>
                  <p id=""wtp"" style=""text-align:center; margin-top: 0px; margin-bottom: 0px; font-size: 40px"";>מוכנים לשלם: <span id=""c_p_y""></span></p>","20","evaluation","23","23","7B,26B","55","61","20","","","","","","","","","","","","","","","","",""
"","","","","","html-keyboard-response","36","157229","0.0-17.0-2.6","3975af8a-b2cb-4111-bdc5-9d989e64c4ac","null","<p style=""text-align: center;"">+</p>","null","fixation","","","","","","","","","","","","","","","","","","","","","","",""
"","","","","","html-slider-response","37","158246","0.0-17.0-0.7","3975af8a-b2cb-4111-bdc5-9d989e64c4ac","1000","
                  <p style=""text-align: center;"">₪58
                                                <br>40%</p>
                  <p id=""wtp"" style=""text-align:center; margin-top: 0px; margin-bottom: 0px; font-size: 40px"";>&ensp;</p>","-","viewing","0","20","10C,13A,19C,21B","","","","","","","","","","","","","","","","","","","",""
"","","","","","html-slider-response","38","159967","0.0-17.0-1.7","3975af8a-b2cb-4111-bdc5-9d989e64c4ac","1719","
                  <p style=""text-align: center;"">₪58
                                                <br>40%</p>
                  <p id=""wtp"" style=""text-align:center; margin-top: 0px; margin-bottom: 0px; font-size: 40px"";>מוכנים לשלם: <span id=""c_p_y""></span></p>","8","evaluation","3","20","10C,13A,19C,21B","40","58","8","","","","","","","","","","","","","","","","",""
"","","","","","html-keyboard-response","39","161325","0.0-17.0-2.7","3975af8a-b2cb-4111-bdc5-9d989e64c4ac","null","<p style=""text-align: center;"">+</p>","null","fixation","","","","","","","","","","","","","","","","","","","","","","",""
"","","","","","html-slider-response","40","162328","0.0-17.0-0.8","3975af8a-b2cb-4111-bdc5-9d989e64c4ac","1000","
                  <p style=""text-align: center;"">₪61
                                                <br>45%</p>
                  <p id=""wtp"" style=""text-align:center; margin-top: 0px; margin-bottom: 0px; font-size: 40px"";>&ensp;</p>","-","viewing","0","22","10A,11A","","","","","","","","","","","","","","","","","","","",""
"","","","","","html-slider-response","41","162999","0.0-17.0-1.8","3975af8a-b2cb-4111-bdc5-9d989e64c4ac","670","
                  <p style=""text-align: center;"">₪61
                                                <br>45%</p>
                  <p id=""wtp"" style=""text-align:center; margin-top: 0px; margin-bottom: 0px; font-size: 40px"";>מוכנים לשלם: <span id=""c_p_y""></span></p>","13","evaluation","67","22","10A,11A","45","61","14","","","","","","","","","","","","","","","","",""
"","","","","","html-keyboard-response","42","164393","0.0-17.0-2.8","3975af8a-b2cb-4111-bdc5-9d989e64c4ac","null","<p style=""text-align: center;"">+</p>","null","fixation","","","","","","","","","","","","","","","","","","","","","","",""
"","","","","","html-slider-response","43","165405","0.0-17.0-0.9","3975af8a-b2cb-4111-bdc5-9d989e64c4ac","1000","
                  <p style=""text-align: center;"">₪36
                                                <br>70%</p>
                  <p id=""wtp"" style=""text-align:center; margin-top: 0px; margin-bottom: 0px; font-size: 40px"";>&ensp;</p>","-","viewing","0","13","3A,5C,10B","","","","","","","","","","","","","","","","","","","",""
"","","","","","html-slider-response","44","166999","0.0-17.0-1.9","3975af8a-b2cb-4111-bdc5-9d989e64c4ac","1593","
                  <p style=""text-align: center;"">₪36
                                                <br>70%</p>
                  <p id=""wtp"" style=""text-align:center; margin-top: 0px; margin-bottom: 0px; font-size: 40px"";>מוכנים לשלם: <span id=""c_p_y""></span></p>","19","evaluation","44","13","3A,5C,10B","70","36","19","","","","","","","","","","","","","","","","",""
"","","","","","html-keyboard-response","45","168094","0.0-17.0-2.9","3975af8a-b2cb-4111-bdc5-9d989e64c4ac","null","<p style=""text-align: center;"">+</p>","null","fixation","","","","","","","","","","","","","","","","","","","","","","",""
"","","","","","html-slider-response","46","169098","0.0-17.0-0.10","3975af8a-b2cb-4111-bdc5-9d989e64c4ac","1000","
                  <p style=""text-align: center;"">₪11
                                                <br>45%</p>
                  <p id=""wtp"" style=""text-align:center; margin-top: 0px; margin-bottom: 0px; font-size: 40px"";>&ensp;</p>","-","viewing","0","6","14B,21C,25C","","","","","","","","","","","","","","","","","","","",""
"","","","","","html-slider-response","47","169991","0.0-17.0-1.10","3975af8a-b2cb-4111-bdc5-9d989e64c4ac","892","
                  <p style=""text-align: center;"">₪11
                                                <br>45%</p>
                  <p id=""wtp"" style=""text-align:center; margin-top: 0px; margin-bottom: 0px; font-size: 40px"";>מוכנים לשלם: <span id=""c_p_y""></span></p>","2","evaluation","35","6","14B,21C,25C","45","11","2","","","","","","","","","","","","","","","","",""
"","","","","","html-keyboard-response","48","171350","0.0-17.0-2.10","3975af8a-b2cb-4111-bdc5-9d989e64c4ac","null","<p style=""text-align: center;"">+</p>","null","fixation","","","","","","","","","","","","","","","","","","","","","","",""
"","","","","","html-slider-response","49","172366","0.0-17.0-0.11","3975af8a-b2cb-4111-bdc5-9d989e64c4ac","1000","
                  <p style=""text-align: center;"">₪71
                                                <br>45%</p>
                  <p id=""wtp"" style=""text-align:center; margin-top: 0px; margin-bottom: 0px; font-size: 40px"";>&ensp;</p>","-","viewing","0","26","2B,16A","","","","","","","","","","","","","","","","","","","",""
"","","","","","html-slider-response","50","174095","0.0-17.0-1.11","3975af8a-b2cb-4111-bdc5-9d989e64c4ac","1728","
                  <p style=""text-align: center;"">₪71
                                                <br>45%</p>
                  <p id=""wtp"" style=""text-align:center; margin-top: 0px; margin-bottom: 0px; font-size: 40px"";>מוכנים לשלם: <span id=""c_p_y""></span></p>","17","evaluation","75","26","2B,16A","45","71","18","","","","","","","","","","","","","","","","",""
"","","","","","html-keyboard-response","51","175605","0.0-17.0-2.11","3975af8a-b2cb-4111-bdc5-9d989e64c4ac","null","<p style=""text-align: center;"">+</p>","null","fixation","","","","","","","","","","","","","","","","","","","","","","",""
"","","","","","html-slider-response","52","176612","0.0-17.0-0.12","3975af8a-b2cb-4111-bdc5-9d989e64c4ac","1000","
                  <p style=""text-align: center;"">₪43
                                                <br>60%</p>
                  <p id=""wtp"" style=""text-align:center; margin-top: 0px; margin-bottom: 0px; font-size: 40px"";>&ensp;</p>","-","viewing","0","17","2A,7A,9A,15B","","","","","","","","","","","","","","","","","","","",""
"","","","","","html-slider-response","53","178383","0.0-17.0-1.12","3975af8a-b2cb-4111-bdc5-9d989e64c4ac","1770","
                  <p style=""text-align: center;"">₪43
                                                <br>60%</p>
                  <p id=""wtp"" style=""text-align:center; margin-top: 0px; margin-bottom: 0px; font-size: 40px"";>מוכנים לשלם: <span id=""c_p_y""></span></p>","30","evaluation","8","17","2A,7A,9A,15B","60","43","30","","","","","","","","","","","","","","","","",""
"","","","","","html-keyboard-response","54","179618","0.0-17.0-2.12","3975af8a-b2cb-4111-bdc5-9d989e64c4ac","null","<p style=""text-align: center;"">+</p>","null","fixation","","","","","","","","","","","","","","","","","","","","","","",""
"","","","","","html-slider-response","55","180631","0.0-17.0-0.13","3975af8a-b2cb-4111-bdc5-9d989e64c4ac","1000","
                  <p style=""text-align: center;"">₪11
                                                <br>75%</p>
                  <p id=""wtp"" style=""text-align:center; margin-top: 0px; margin-bottom: 0px; font-size: 40px"";>&ensp;</p>","-","viewing","0","7","6B,18B,22C,24C,29A","","","","","","","","","","","","","","","","","","","",""
"","","","","","html-slider-response","56","182311","0.0-17.0-1.13","3975af8a-b2cb-4111-bdc5-9d989e64c4ac","1679","
                  <p style=""text-align: center;"">₪11
                                                <br>75%</p>
                  <p id=""wtp"" style=""text-align:center; margin-top: 0px; margin-bottom: 0px; font-size: 40px"";>מוכנים לשלם: <span id=""c_p_y""></span></p>","3","evaluation","6","7","6B,18B,22C,24C,29A","75","11","3","","","","","","","","","","","","","","","","",""
"","","","","","html-keyboard-response","57","183120","0.0-17.0-2.13","3975af8a-b2cb-4111-bdc5-9d989e64c4ac","null","<p style=""text-align: center;"">+</p>","null","fixation","","","","","","","","","","","","","","","","","","","","","","",""
"","","","","","html-slider-response","58","184135","0.0-17.0-0.14","3975af8a-b2cb-4111-bdc5-9d989e64c4ac","1000","
                  <p style=""text-align: center;"">₪36
                                                <br>30%</p>
                  <p id=""wtp"" style=""text-align:center; margin-top: 0px; margin-bottom: 0px; font-size: 40px"";>&ensp;</p>","-","viewing","0","11","3C,20A,22A","","","","","","","","","","","","","","","","","","","",""
"","","","","","html-slider-response","59","186511","0.0-17.0-1.14","3975af8a-b2cb-4111-bdc5-9d989e64c4ac","2375","
                  <p style=""text-align: center;"">₪36
                                                <br>30%</p>
                  <p id=""wtp"" style=""text-align:center; margin-top: 0px; margin-bottom: 0px; font-size: 40px"";>מוכנים לשלם: <span id=""c_p_y""></span></p>","6","evaluation","66","11","3C,20A,22A","30","36","6","","","","","","","","","","","","","","","","",""
"","","","","","html-keyboard-response","60","187119","0.0-17.0-2.14","3975af8a-b2cb-4111-bdc5-9d989e64c4ac","null","<p style=""text-align: center;"">+</p>","null","fixation","","","","","","","","","","","","","","","","","","","","","","",""
"","","","","","html-slider-response","61","188125","0.0-17.0-0.15","3975af8a-b2cb-4111-bdc5-9d989e64c4ac","1000","
                  <p style=""text-align: center;"">₪11
                                                <br>20%</p>
                  <p id=""wtp"" style=""text-align:center; margin-top: 0px; margin-bottom: 0px; font-size: 40px"";>&ensp;</p>","-","viewing","0","4","12C,17C,23C,28C","","","","","","","","","","","","","","","","","","","",""
"","","","","","html-slider-response","62","189527","0.0-17.0-1.15","3975af8a-b2cb-4111-bdc5-9d989e64c4ac","1401","
                  <p style=""text-align: center;"">₪11
                                                <br>20%</p>
                  <p id=""wtp"" style=""text-align:center; margin-top: 0px; margin-bottom: 0px; font-size: 40px"";>מוכנים לשלם: <span id=""c_p_y""></span></p>","1","evaluation","37","4","12C,17C,23C,28C","20","11","1","","","","","","","","","","","","","","","","",""
"","","","","","html-keyboard-response","63","190832","0.0-17.0-2.15","3975af8a-b2cb-4111-bdc5-9d989e64c4ac","null","<p style=""text-align: center;"">+</p>","null","fixation","","","","","","","","","","","","","","","","","","","","","","",""
"","","","","","html-slider-response","64","191839","0.0-17.0-0.16","3975af8a-b2cb-4111-bdc5-9d989e64c4ac","1000","
                  <p style=""text-align: center;"">₪71
                                                <br>55%</p>
                  <p id=""wtp"" style=""text-align:center; margin-top: 0px; margin-bottom: 0px; font-size: 40px"";>&ensp;</p>","-","viewing","0","27","5B,18A","","","","","","","","","","","","","","","","","","","",""
"","","","","","html-slider-response","65","193191","0.0-17.0-1.16","3975af8a-b2cb-4111-bdc5-9d989e64c4ac","1352","
                  <p style=""text-align: center;"">₪71
                                                <br>55%</p>
                  <p id=""wtp"" style=""text-align:center; margin-top: 0px; margin-bottom: 0px; font-size: 40px"";>מוכנים לשלם: <span id=""c_p_y""></span></p>","41","evaluation","67","27","5B,18A","55","71","41","","","","","","","","","","","","","","","","",""
"","","","","","html-keyboard-response","66","194478","0.0-17.0-2.16","3975af8a-b2cb-4111-bdc5-9d989e64c4ac","null","<p style=""text-align: center;"">+</p>","null","fixation","","","","","","","","","","","","","","","","","","","","","","",""
"","","","","","html-slider-response","67","195483","0.0-17.0-0.17","3975af8a-b2cb-4111-bdc5-9d989e64c4ac","1000","
                  <p style=""text-align: center;"">₪11
                                                <br>25%</p>
                  <p id=""wtp"" style=""text-align:center; margin-top: 0px; margin-bottom: 0px; font-size: 40px"";>&ensp;</p>","-","viewing","0","5","12A,27B,28B,30B","","","","","","","","","","","","","","","","","","","",""
"","","","","","html-slider-response","68","196999","0.0-17.0-1.17","3975af8a-b2cb-4111-bdc5-9d989e64c4ac","1515","
                  <p style=""text-align: center;"">₪11
                                                <br>25%</p>
                  <p id=""wtp"" style=""text-align:center; margin-top: 0px; margin-bottom: 0px; font-size: 40px"";>מוכנים לשלם: <span id=""c_p_y""></span></p>","1","evaluation","2","5","12A,27B,28B,30B","25","11","2","","","","","","","","","","","","","","","","",""
"","","","","","html-keyboard-response","69","197845","0.0-17.0-2.17","3975af8a-b2cb-4111-bdc5-9d989e64c4ac","null","<p style=""text-align: center;"">+</p>","null","fixation","","","","","","","","","","","","","","","","","","","","","","",""
"","","","","","html-slider-response","70","198862","0.0-17.0-0.18","3975af8a-b2cb-4111-bdc5-9d989e64c4ac","1000","
                  <p style=""text-align: center;"">₪4
                                                <br>25%</p>
                  <p id=""wtp"" style=""text-align:center; margin-top: 0px; margin-bottom: 0px; font-size: 40px"";>&ensp;</p>","-","viewing","0","1","6C,29B,30C","","","","","","","","","","","","","","","","","","","",""
"","","","","","html-slider-response","71","199671","0.0-17.0-1.18","3975af8a-b2cb-4111-bdc5-9d989e64c4ac","807","
                  <p style=""text-align: center;"">₪4
                                                <br>25%</p>
                  <p id=""wtp"" style=""text-align:center; margin-top: 0px; margin-bottom: 0px; font-size: 40px"";>מוכנים לשלם: <span id=""c_p_y""></span></p>","0","evaluation","57","1","6C,29B,30C","25","4","0","","","","","","","","","","","","","","","","",""
"","","","","","html-keyboard-response","72","200867","0.0-17.0-2.18","3975af8a-b2cb-4111-bdc5-9d989e64c4ac","null","<p style=""text-align: center;"">+</p>","null","fixation","","","","","","","","","","","","","","","","","","","","","","",""
"","","","","","html-slider-response","73","201872","0.0-17.0-0.19","3975af8a-b2cb-4111-bdc5-9d989e64c4ac","1000","
                  <p style=""text-align: center;"">₪76
                                                <br>65%</p>
                  <p id=""wtp"" style=""text-align:center; margin-top: 0px; margin-bottom: 0px; font-size: 40px"";>&ensp;</p>","-","viewing","0","29","8C,19A,24B","","","","","","","","","","","","","","","","","","","",""
"","","","","","html-slider-response","74","203263","0.0-17.0-1.19","3975af8a-b2cb-4111-bdc5-9d989e64c4ac","1389","
                  <p style=""text-align: center;"">₪76
                                                <br>65%</p>
                  <p id=""wtp"" style=""text-align:center; margin-top: 0px; margin-bottom: 0px; font-size: 40px"";>מוכנים לשלם: <span id=""c_p_y""></span></p>","28","evaluation","5","29","8C,19A,24B","65","76","28","","","","","","","","","","","","","","","","",""
"","","","","","html-keyboard-response","75","204365","0.0-17.0-2.19","3975af8a-b2cb-4111-bdc5-9d989e64c4ac","null","<p style=""text-align: center;"">+</p>","null","fixation","","","","","","","","","","","","","","","","","","","","","","",""
"","","","","","html-slider-response","76","205367","0.0-17.0-0.20","3975af8a-b2cb-4111-bdc5-9d989e64c4ac","1000","
                  <p style=""text-align: center;"">₪64
                                                <br>25%</p>
                  <p id=""wtp"" style=""text-align:center; margin-top: 0px; margin-bottom: 0px; font-size: 40px"";>&ensp;</p>","-","viewing","0","24","6A,21A","","","","","","","","","","","","","","","","","","","",""
"","","","","","html-slider-response","77","207064","0.0-17.0-1.20","3975af8a-b2cb-4111-bdc5-9d989e64c4ac","1695","
                  <p style=""text-align: center;"">₪64
                                                <br>25%</p>
                  <p id=""wtp"" style=""text-align:center; margin-top: 0px; margin-bottom: 0px; font-size: 40px"";>מוכנים לשלם: <span id=""c_p_y""></span></p>","11","evaluation","14","24","6A,21A","25","64","11","","","","","","","","","","","","","","","","",""
"","","","","","html-keyboard-response","78","208408","0.0-17.0-2.20","3975af8a-b2cb-4111-bdc5-9d989e64c4ac","null","<p style=""text-align: center;"">+</p>","null","fixation","","","","","","","","","","","","","","","","","","","","","","",""
"","","","","","html-slider-response","79","209411","0.0-17.0-0.21","3975af8a-b2cb-4111-bdc5-9d989e64c4ac","1000","
                  <p style=""text-align: center;"">₪4
                                                <br>75%</p>
                  <p id=""wtp"" style=""text-align:center; margin-top: 0px; margin-bottom: 0px; font-size: 40px"";>&ensp;</p>","-","viewing","0","3","12B,20B,23B,27C,29C","","","","","","","","","","","","","","","","","","","",""
"","","","","","html-slider-response","80","210951","0.0-17.0-1.21","3975af8a-b2cb-4111-bdc5-9d989e64c4ac","1539","
                  <p style=""text-align: center;"">₪4
                                                <br>75%</p>
                  <p id=""wtp"" style=""text-align:center; margin-top: 0px; margin-bottom: 0px; font-size: 40px"";>מוכנים לשלם: <span id=""c_p_y""></span></p>","0","evaluation","3","3","12B,20B,23B,27C,29C","75","4","1","","","","","","","","","","","","","","","","",""
"","","","","","html-keyboard-response","81","211767","0.0-17.0-2.21","3975af8a-b2cb-4111-bdc5-9d989e64c4ac","null","<p style=""text-align: center;"">+</p>","null","fixation","","","","","","","","","","","","","","","","","","","","","","",""
"","","","","","html-slider-response","82","212783","0.0-17.0-0.22","3975af8a-b2cb-4111-bdc5-9d989e64c4ac","1000","
                  <p style=""text-align: center;"">₪71
                                                <br>75%</p>
                  <p id=""wtp"" style=""text-align:center; margin-top: 0px; margin-bottom: 0px; font-size: 40px"";>&ensp;</p>","-","viewing","0","28","8B","","","","","","","","","","","","","","","","","","","",""
"","","","","","html-slider-response","83","214711","0.0-17.0-1.22","3975af8a-b2cb-4111-bdc5-9d989e64c4ac","1927","
                  <p style=""text-align: center;"">₪71
                                                <br>75%</p>
                  <p id=""wtp"" style=""text-align:center; margin-top: 0px; margin-bottom: 0px; font-size: 40px"";>מוכנים לשלם: <span id=""c_p_y""></span></p>","42","evaluation","1","28","8B","75","71","42","","","","","","","","","","","","","","","","",""
"","","","","","html-keyboard-response","84","216214","0.0-17.0-2.22","3975af8a-b2cb-4111-bdc5-9d989e64c4ac","null","<p style=""text-align: center;"">+</p>","null","fixation","","","","","","","","","","","","","","","","","","","","","","",""
"","","","","","html-slider-response","85","217217","0.0-17.0-0.23","3975af8a-b2cb-4111-bdc5-9d989e64c4ac","1000","
                  <p style=""text-align: center;"">₪18
                                                <br>25%</p>
                  <p id=""wtp"" style=""text-align:center; margin-top: 0px; margin-bottom: 0px; font-size: 40px"";>&ensp;</p>","-","viewing","0","9","14A,23A","","","","","","","","","","","","","","","","","","","",""
"","","","","","html-slider-response","86","219375","0.0-17.0-1.23","3975af8a-b2cb-4111-bdc5-9d989e64c4ac","2157","
                  <p style=""text-align: center;"">₪18
                                                <br>25%</p>
                  <p id=""wtp"" style=""text-align:center; margin-top: 0px; margin-bottom: 0px; font-size: 40px"";>מוכנים לשלם: <span id=""c_p_y""></span></p>","4","evaluation","39","9","14A,23A","25","18","5","","","","","","","","","","","","","","","","",""
"","","","","","html-keyboard-response","87","220693","0.0-17.0-2.23","3975af8a-b2cb-4111-bdc5-9d989e64c4ac","null","<p style=""text-align: center;"">+</p>","null","fixation","","","","","","","","","","","","","","","","","","","","","","",""
"","","","","","html-slider-response","88","221700","0.0-17.0-0.24","3975af8a-b2cb-4111-bdc5-9d989e64c4ac","1000","
                  <p style=""text-align: center;"">₪39
                                                <br>60%</p>
                  <p id=""wtp"" style=""text-align:center; margin-top: 0px; margin-bottom: 0px; font-size: 40px"";>&ensp;</p>","-","viewing","0","15","9C,25B","","","","","","","","","","","","","","","","","","","",""
"","","","","","html-slider-response","89","222887","0.0-17.0-1.24","3975af8a-b2cb-4111-bdc5-9d989e64c4ac","1186","
                  <p style=""text-align: center;"">₪39
                                                <br>60%</p>
                  <p id=""wtp"" style=""text-align:center; margin-top: 0px; margin-bottom: 0px; font-size: 40px"";>מוכנים לשלם: <span id=""c_p_y""></span></p>","20","evaluation","78","15","9C,25B","60","39","20","","","","","","","","","","","","","","","","",""
"","","","","","html-keyboard-response","90","224140","0.0-17.0-2.24","3975af8a-b2cb-4111-bdc5-9d989e64c4ac","null","<p style=""text-align: center;"">+</p>","null","fixation","","","","","","","","","","","","","","","","","","","","","","",""
"","","","","","html-slider-response","91","225144","0.0-17.0-0.25","3975af8a-b2cb-4111-bdc5-9d989e64c4ac","1000","
                  <p style=""text-align: center;"">₪58
                                                <br>30%</p>
                  <p id=""wtp"" style=""text-align:center; margin-top: 0px; margin-bottom: 0px; font-size: 40px"";>&ensp;</p>","-","viewing","0","19","13C,30A","","","","","","","","","","","","","","","","","","","",""
"","","","","","html-slider-response","92","226319","0.0-17.0-1.25","3975af8a-b2cb-4111-bdc5-9d989e64c4ac","1174","
                  <p style=""text-align: center;"">₪58
                                                <br>30%</p>
                  <p id=""wtp"" style=""text-align:center; margin-top: 0px; margin-bottom: 0px; font-size: 40px"";>מוכנים לשלם: <span id=""c_p_y""></span></p>","4","evaluation","77","19","13C,30A","30","58","5","","","","","","","","","","","","","","","","",""
"","","","","","html-keyboard-response","93","227818","0.0-17.0-2.25","3975af8a-b2cb-4111-bdc5-9d989e64c4ac","null","<p style=""text-align: center;"">+</p>","null","fixation","","","","","","","","","","","","","","","","","","","","","","",""
"","","","","","html-slider-response","94","228820","0.0-17.0-0.26","3975af8a-b2cb-4111-bdc5-9d989e64c4ac","1000","
                  <p style=""text-align: center;"">₪36
                                                <br>60%</p>
                  <p id=""wtp"" style=""text-align:center; margin-top: 0px; margin-bottom: 0px; font-size: 40px"";>&ensp;</p>","-","viewing","0","12","1C,7C,15C","","","","","","","","","","","","","","","","","","","",""
"","","","","","html-slider-response","95","230807","0.0-17.0-1.26","3975af8a-b2cb-4111-bdc5-9d989e64c4ac","1986","
                  <p style=""text-align: center;"">₪36
                                                <br>60%</p>
                  <p id=""wtp"" style=""text-align:center; margin-top: 0px; margin-bottom: 0px; font-size: 40px"";>מוכנים לשלם: <span id=""c_p_y""></span></p>","12","evaluation","31","12","1C,7C,15C","60","36","13","","","","","","","","","","","","","","","","",""
"","","","","","html-keyboard-response","96","232088","0.0-17.0-2.26","3975af8a-b2cb-4111-bdc5-9d989e64c4ac","null","<p style=""text-align: center;"">+</p>","null","fixation","","","","","","","","","","","","","","","","","","","","","","",""
"","","","","","html-slider-response","97","233099","0.0-17.0-0.27","3975af8a-b2cb-4111-bdc5-9d989e64c4ac","1000","
                  <p style=""text-align: center;"">₪16
                                                <br>20%</p>
                  <p id=""wtp"" style=""text-align:center; margin-top: 0px; margin-bottom: 0px; font-size: 40px"";>&ensp;</p>","-","viewing","0","8","14C,17A,20C,27A","","","","","","","","","","","","","","","","","","","",""
"","","","","","html-slider-response","98","234103","0.0-17.0-1.27","3975af8a-b2cb-4111-bdc5-9d989e64c4ac","1003","
                  <p style=""text-align: center;"">₪16
                                                <br>20%</p>
                  <p id=""wtp"" style=""text-align:center; margin-top: 0px; margin-bottom: 0px; font-size: 40px"";>מוכנים לשלם: <span id=""c_p_y""></span></p>","1","evaluation","36","8","14C,17A,20C,27A","20","16","2","","","","","","","","","","","","","","","","",""
"","","","","","html-keyboard-response","99","234738","0.0-17.0-2.27","3975af8a-b2cb-4111-bdc5-9d989e64c4ac","null","<p style=""text-align: center;"">+</p>","null","fixation","","","","","","","","","","","","","","","","","","","","","","",""
"","","","","","html-slider-response","100","235739","0.0-17.0-0.28","3975af8a-b2cb-4111-bdc5-9d989e64c4ac","1000","
                  <p style=""text-align: center;"">₪4
                                                <br>50%</p>
                  <p id=""wtp"" style=""text-align:center; margin-top: 0px; margin-bottom: 0px; font-size: 40px"";>&ensp;</p>","-","viewing","0","2","4C,17B","","","","","","","","","","","","","","","","","","","",""
"","","","","","html-slider-response","101","237679","0.0-17.0-1.28","3975af8a-b2cb-4111-bdc5-9d989e64c4ac","1938","
                  <p style=""text-align: center;"">₪4
                                                <br>50%</p>
                  <p id=""wtp"" style=""text-align:center; margin-top: 0px; margin-bottom: 0px; font-size: 40px"";>מוכנים לשלם: <span id=""c_p_y""></span></p>","0","evaluation","63","2","4C,17B","50","4","1","","","","","","","","","","","","","","","","",""
"","","","","","html-keyboard-response","102","238674","0.0-17.0-2.28","3975af8a-b2cb-4111-bdc5-9d989e64c4ac","null","<p style=""text-align: center;"">+</p>","null","fixation","","","","","","","","","","","","","","","","","","","","","","",""
"","","","","","html-slider-response","103","239683","0.0-17.0-0.29","3975af8a-b2cb-4111-bdc5-9d989e64c4ac","1000","
                  <p style=""text-align: center;"">₪43
                                                <br>75%</p>
                  <p id=""wtp"" style=""text-align:center; margin-top: 0px; margin-bottom: 0px; font-size: 40px"";>&ensp;</p>","-","viewing","0","18","11B,19B,24A,26A","","","","","","","","","","","","","","","","","","","",""
"","","","","","html-slider-response","104","241327","0.0-17.0-1.29","3975af8a-b2cb-4111-bdc5-9d989e64c4ac","1643","
                  <p style=""text-align: center;"">₪43
                                                <br>75%</p>
                  <p id=""wtp"" style=""text-align:center; margin-top: 0px; margin-bottom: 0px; font-size: 40px"";>מוכנים לשלם: <span id=""c_p_y""></span></p>","16","evaluation","72","18","11B,19B,24A,26A","75","43","17","","","","","","","","","","","","","","","","",""
"","","","","","html-keyboard-response","105","242015","0.0-17.0-2.29","3975af8a-b2cb-4111-bdc5-9d989e64c4ac","null","<p style=""text-align: center;"">+</p>","null","fixation","","","","","","","","","","","","","","","","","","","","","","",""
"","","","","","html-slider-response","106","243027","0.0-17.0-0.30","3975af8a-b2cb-4111-bdc5-9d989e64c4ac","1000","
                  <p style=""text-align: center;"">₪36
                                                <br>75%</p>
                  <p id=""wtp"" style=""text-align:center; margin-top: 0px; margin-bottom: 0px; font-size: 40px"";>&ensp;</p>","-","viewing","0","14","4B,5A,13B,16B","","","","","","","","","","","","","","","","","","","",""
"","","","","","html-slider-response","107","245367","0.0-17.0-1.30","3975af8a-b2cb-4111-bdc5-9d989e64c4ac","2338","
                  <p style=""text-align: center;"">₪36
                                                <br>75%</p>
                  <p id=""wtp"" style=""text-align:center; margin-top: 0px; margin-bottom: 0px; font-size: 40px"";>מוכנים לשלם: <span id=""c_p_y""></span></p>","25","evaluation","75","14","4B,5A,13B,16B","75","36","25","","","","","","","","","","","","","","","","",""
"","","","","","html-keyboard-response","108","246368","0.0-17.0-2.30","3975af8a-b2cb-4111-bdc5-9d989e64c4ac","null","<p style=""text-align: center;"">+</p>","null","fixation","","","","","","","","","","","","","","","","","","","","","","",""
"","","","","","html-keyboard-response","109","247372","0.0-18.0","3975af8a-b2cb-4111-bdc5-9d989e64c4ac","null","<p style=""text-align: center;"">+</p>","null","fixation","","","","","","","","","","","","","","","","","","","","","","",""
"","","","","","html-keyboard-response","110","248911","0.0-19.0","3975af8a-b2cb-4111-bdc5-9d989e64c4ac","null","<p>הפסקה.
          <br>לחצו כדי להמשיך.</p>","1","scan_wait","","","","","","","","","","","","","","","","","","","","","","",""
"","","","","","html-keyboard-response","111","249914","0.0-20.0","3975af8a-b2cb-4111-bdc5-9d989e64c4ac","null","<p style=""text-align: center;"">+</p>","null","fixation","","","","","","","","","","","","","","","","","","","","","","",""
"","","","","","html-slider-response","112","250917","0.0-21.0-0.0","3975af8a-b2cb-4111-bdc5-9d989e64c4ac","1000","
                  <p style=""text-align: center;"">₪58
                                                <br>45%</p>
                  <p id=""wtp"" style=""text-align:center; margin-top: 0px; margin-bottom: 0px; font-size: 40px"";>&ensp;</p>","-","viewing","0","21","11C,18C,25A","","","","","","","","","","","","","","","","","","","",""
"","","","","","html-slider-response","113","253287","0.0-21.0-1.0","3975af8a-b2cb-4111-bdc5-9d989e64c4ac","2369","
                  <p style=""text-align: center;"">₪58
                                                <br>45%</p>
                  <p id=""wtp"" style=""text-align:center; margin-top: 0px; margin-bottom: 0px; font-size: 40px"";>מוכנים לשלם: <span id=""c_p_y""></span></p>","13","evaluation","23","21","11C,18C,25A","45","58","13","","","","","","","","","","","","","","","","",""
"","","","","","html-keyboard-response","114","254783","0.0-21.0-2.0","3975af8a-b2cb-4111-bdc5-9d989e64c4ac","null","<p style=""text-align: center;"">+</p>","null","fixation","","","","","","","","","","","","","","","","","","","","","","",""
"","","","","","html-slider-response","115","255800","0.0-21.0-0.1","3975af8a-b2cb-4111-bdc5-9d989e64c4ac","1000","
                  <p style=""text-align: center;"">₪71
                                                <br>75%</p>
                  <p id=""wtp"" style=""text-align:center; margin-top: 0px; margin-bottom: 0px; font-size: 40px"";>&ensp;</p>","-","viewing","0","28","8B","","","","","","","","","","","","","","","","","","","",""
"","","","","","html-slider-response","116","256999","0.0-21.0-1.1","3975af8a-b2cb-4111-bdc5-9d989e64c4ac","1198","
                  <p style=""text-align: center;"">₪71
                                                <br>75%</p>
                  <p id=""wtp"" style=""text-align:center; margin-top: 0px; margin-bottom: 0px; font-size: 40px"";>מוכנים לשלם: <span id=""c_p_y""></span></p>","51","evaluation","49","28","8B","75","71","51","","","","","","","","","","","","","","","","",""
"","","","","","html-keyboard-response","117","258445","0.0-21.0-2.1","3975af8a-b2cb-4111-bdc5-9d989e64c4ac","null","<p style=""text-align: center;"">+</p>","null","fixation","","","","","","","","","","","","","","","","","","","","","","",""
"","","","","","html-slider-response","118","259448","0.0-21.0-0.2","3975af8a-b2cb-4111-bdc5-9d989e64c4ac","1000","
                  <p style=""text-align: center;"">₪4
                                                <br>50%</p>
                  <p id=""wtp"" style=""text-align:center; margin-top: 0px; margin-bottom: 0px; font-size: 40px"";>&ensp;</p>","-","viewing","0","2","4C,17B","","","","","","","","","","","","","","","","","","","",""
"","","","","","html-slider-response","119","260415","0.0-21.0-1.2","3975af8a-b2cb-4111-bdc5-9d989e64c4ac","966","
                  <p style=""text-align: center;"">₪4
                                                <br>50%</p>
                  <p id=""wtp"" style=""text-align:center; margin-top: 0px; margin-bottom: 0px; font-size: 40px"";>מוכנים לשלם: <span id=""c_p_y""></span></p>","0","evaluation","30","2","4C,17B","50","4","1","","","","","","","","","","","","","","","","",""
"","","","","","html-keyboard-response","120","261668","0.0-21.0-2.2","3975af8a-b2cb-4111-bdc5-9d989e64c4ac","null","<p style=""text-align: center;"">+</p>","null","fixation","","","","","","","","","","","","","","","","","","","","","","",""
"","","","","","html-slider-response","121","262680","0.0-21.0-0.3","3975af8a-b2cb-4111-bdc5-9d989e64c4ac","1000","
                  <p style=""text-align: center;"">₪36
                                                <br>60%</p>
                  <p id=""wtp"" style=""text-align:center; margin-top: 0px; margin-bottom: 0px; font-size: 40px"";>&ensp;</p>","-","viewing","0","12","1C,7C,15C","","","","","","","","","","","","","","","","","","","",""
"","","","","","html-slider-response","122","264263","0.0-21.0-1.3","3975af8a-b2cb-4111-bdc5-9d989e64c4ac","1582","
                  <p style=""text-align: center;"">₪36
                                                <br>60%</p>
                  <p id=""wtp"" style=""text-align:center; margin-top: 0px; margin-bottom: 0px; font-size: 40px"";>מוכנים לשלם: <span id=""c_p_y""></span></p>","12","evaluation","67","12","1C,7C,15C","60","36","13","","","","","","","","","","","","","","","","",""
"","","","","","html-keyboard-response","123","265244","0.0-21.0-2.3","3975af8a-b2cb-4111-bdc5-9d989e64c4ac","null","<p style=""text-align: center;"">+</p>","null","fixation","","","","","","","","","","","","","","","","","","","","","","",""
"","","","","","html-slider-response","124","266257","0.0-21.0-0.4","3975af8a-b2cb-4111-bdc5-9d989e64c4ac","1000","
                  <p style=""text-align: center;"">₪58
                                                <br>40%</p>
                  <p id=""wtp"" style=""text-align:center; margin-top: 0px; margin-bottom: 0px; font-size: 40px"";>&ensp;</p>","-","viewing","0","20","10C,13A,19C,21B","","","","","","","","","","","","","","","","","","","",""
"","","","","","html-slider-response","125","268807","0.0-21.0-1.4","3975af8a-b2cb-4111-bdc5-9d989e64c4ac","2549","
                  <p style=""text-align: center;"">₪58
                                                <br>40%</p>
                  <p id=""wtp"" style=""text-align:center; margin-top: 0px; margin-bottom: 0px; font-size: 40px"";>מוכנים לשלם: <span id=""c_p_y""></span></p>","17","evaluation","39","20","10C,13A,19C,21B","40","58","17","","","","","","","","","","","","","","","","",""
"","","","","","html-keyboard-response","126","270130","0.0-21.0-2.4","3975af8a-b2cb-4111-bdc5-9d989e64c4ac","null","<p style=""text-align: center;"">+</p>","null","fixation","","","","","","","","","","","","","","","","","","","","","","",""
"","","","","","html-slider-response","127","271144","0.0-21.0-0.5","3975af8a-b2cb-4111-bdc5-9d989e64c4ac","1000","
                  <p style=""text-align: center;"">₪4
                                                <br>25%</p>
                  <p id=""wtp"" style=""text-align:center; margin-top: 0px; margin-bottom: 0px; font-size: 40px"";>&ensp;</p>","-","viewing","0","1","6C,29B,30C","","","","","","","","","","","","","","","","","","","",""
"","","","","","html-slider-response","128","271647","0.0-21.0-1.5","3975af8a-b2cb-4111-bdc5-9d989e64c4ac","502","
                  <p style=""text-align: center;"">₪4
                                                <br>25%</p>
                  <p id=""wtp"" style=""text-align:center; margin-top: 0px; margin-bottom: 0px; font-size: 40px"";>מוכנים לשלם: <span id=""c_p_y""></span></p>","0","evaluation","56","1","6C,29B,30C","25","4","0","","","","","","","","","","","","","","","","",""
"","","","","","html-keyboard-response","129","272494","0.0-21.0-2.5","3975af8a-b2cb-4111-bdc5-9d989e64c4ac","null","<p style=""text-align: center;"">+</p>","null","fixation","","","","","","","","","","","","","","","","","","","","","","",""
"","","","","","html-slider-response","130","273500","0.0-21.0-0.6","3975af8a-b2cb-4111-bdc5-9d989e64c4ac","1000","
                  <p style=""text-align: center;"">₪71
                                                <br>55%</p>
                  <p id=""wtp"" style=""text-align:center; margin-top: 0px; margin-bottom: 0px; font-size: 40px"";>&ensp;</p>","-","viewing","0","27","5B,18A","","","","","","","","","","","","","","","","","","","",""
"","","","","","html-slider-response","131","276023","0.0-21.0-1.6","3975af8a-b2cb-4111-bdc5-9d989e64c4ac","2522","
                  <p style=""text-align: center;"">₪71
                                                <br>55%</p>
                  <p id=""wtp"" style=""text-align:center; margin-top: 0px; margin-bottom: 0px; font-size: 40px"";>מוכנים לשלם: <span id=""c_p_y""></span></p>","49","evaluation","17","27","5B,18A","55","71","49","","","","","","","","","","","","","","","","",""
"","","","","","html-keyboard-response","132","277430","0.0-21.0-2.6","3975af8a-b2cb-4111-bdc5-9d989e64c4ac","null","<p style=""text-align: center;"">+</p>","null","fixation","","","","","","","","","","","","","","","","","","","","","","",""
"","","","","","html-slider-response","133","278434","0.0-21.0-0.7","3975af8a-b2cb-4111-bdc5-9d989e64c4ac","1000","
                  <p style=""text-align: center;"">₪11
                                                <br>75%</p>
                  <p id=""wtp"" style=""text-align:center; margin-top: 0px; margin-bottom: 0px; font-size: 40px"";>&ensp;</p>","-","viewing","0","7","6B,18B,22C,24C,29A","","","","","","","","","","","","","","","","","","","",""
"","","","","","html-slider-response","134","279863","0.0-21.0-1.7","3975af8a-b2cb-4111-bdc5-9d989e64c4ac","1428","
                  <p style=""text-align: center;"">₪11
                                                <br>75%</p>
                  <p id=""wtp"" style=""text-align:center; margin-top: 0px; margin-bottom: 0px; font-size: 40px"";>מוכנים לשלם: <span id=""c_p_y""></span></p>","4","evaluation","52","7","6B,18B,22C,24C,29A","75","11","4","","","","","","","","","","","","","","","","",""
"","","","","","html-keyboard-response","135","280415","0.0-21.0-2.7","3975af8a-b2cb-4111-bdc5-9d989e64c4ac","null","<p style=""text-align: center;"">+</p>","null","fixation","","","","","","","","","","","","","","","","","","","","","","",""
"","","","","","html-slider-response","136","281416","0.0-21.0-0.8","3975af8a-b2cb-4111-bdc5-9d989e64c4ac","1000","
                  <p style=""text-align: center;"">₪4
                                                <br>75%</p>
                  <p id=""wtp"" style=""text-align:center; margin-top: 0px; margin-bottom: 0px; font-size: 40px"";>&ensp;</p>","-","viewing","0","3","12B,20B,23B,27C,29C","","","","","","","","","","","","","","","","","","","",""
"","","","","","html-slider-response","137","283167","0.0-21.0-1.8","3975af8a-b2cb-4111-bdc5-9d989e64c4ac","1749","
                  <p style=""text-align: center;"">₪4
                                                <br>75%</p>
                  <p id=""wtp"" style=""text-align:center; margin-top: 0px; margin-bottom: 0px; font-size: 40px"";>מוכנים לשלם: <span id=""c_p_y""></span></p>","0","evaluation","11","3","12B,20B,23B,27C,29C","75","4","1","","","","","","","","","","","","","","","","",""
"","","","","","html-keyboard-response","138","284210","0.0-21.0-2.8","3975af8a-b2cb-4111-bdc5-9d989e64c4ac","null","<p style=""text-align: center;"">+</p>","null","fixation","","","","","","","","","","","","","","","","","","","","","","",""
"","","","","","html-slider-response","139","285213","0.0-21.0-0.9","3975af8a-b2cb-4111-bdc5-9d989e64c4ac","1000","
                  <p style=""text-align: center;"">₪36
                                                <br>70%</p>
                  <p id=""wtp"" style=""text-align:center; margin-top: 0px; margin-bottom: 0px; font-size: 40px"";>&ensp;</p>","-","viewing","0","13","3A,5C,10B","","","","","","","","","","","","","","","","","","","",""
"","","","","","html-slider-response","140","287135","0.0-21.0-1.9","3975af8a-b2cb-4111-bdc5-9d989e64c4ac","1921","
                  <p style=""text-align: center;"">₪36
                                                <br>70%</p>
                  <p id=""wtp"" style=""text-align:center; margin-top: 0px; margin-bottom: 0px; font-size: 40px"";>מוכנים לשלם: <span id=""c_p_y""></span></p>","21","evaluation","80","13","3A,5C,10B","70","36","21","","","","","","","","","","","","","","","","",""
"","","","","","html-keyboard-response","141","288416","0.0-21.0-2.9","3975af8a-b2cb-4111-bdc5-9d989e64c4ac","null","<p style=""text-align: center;"">+</p>","null","fixation","","","","","","","","","","","","","","","","","","","","","","",""
"","","","","","html-slider-response","142","289417","0.0-21.0-0.10","3975af8a-b2cb-4111-bdc5-9d989e64c4ac","1000","
                  <p style=""text-align: center;"">₪11
                                                <br>45%</p>
                  <p id=""wtp"" style=""text-align:center; margin-top: 0px; margin-bottom: 0px; font-size: 40px"";>&ensp;</p>","-","viewing","0","6","14B,21C,25C","","","","","","","","","","","","","","","","","","","",""
"","","","","","html-slider-response","143","290511","0.0-21.0-1.10","3975af8a-b2cb-4111-bdc5-9d989e64c4ac","1092","
                  <p style=""text-align: center;"">₪11
                                                <br>45%</p>
                  <p id=""wtp"" style=""text-align:center; margin-top: 0px; margin-bottom: 0px; font-size: 40px"";>מוכנים לשלם: <span id=""c_p_y""></span></p>","1","evaluation","17","6","14B,21C,25C","45","11","2","","","","","","","","","","","","","","","","",""
"","","","","","html-keyboard-response","144","291848","0.0-21.0-2.10","3975af8a-b2cb-4111-bdc5-9d989e64c4ac","null","<p style=""text-align: center;"">+</p>","null","fixation","","","","","","","","","","","","","","","","","","","","","","",""
"","","","","","html-slider-response","145","292860","0.0-21.0-0.11","3975af8a-b2cb-4111-bdc5-9d989e64c4ac","1000","
                  <p style=""text-align: center;"">₪64
                                                <br>25%</p>
                  <p id=""wtp"" style=""text-align:center; margin-top: 0px; margin-bottom: 0px; font-size: 40px"";>&ensp;</p>","-","viewing","0","24","6A,21A","","","","","","","","","","","","","","","","","","","",""
"","","","","","html-slider-response","146","294142","0.0-21.0-1.11","3975af8a-b2cb-4111-bdc5-9d989e64c4ac","1282","
                  <p style=""text-align: center;"">₪64
                                                <br>25%</p>
                  <p id=""wtp"" style=""text-align:center; margin-top: 0px; margin-bottom: 0px; font-size: 40px"";>מוכנים לשלם: <span id=""c_p_y""></span></p>","8","evaluation","25","24","6A,21A","25","64","8","","","","","","","","","","","","","","","","",""
"","","","","","html-keyboard-response","147","295197","0.0-21.0-2.11","3975af8a-b2cb-4111-bdc5-9d989e64c4ac","null","<p style=""text-align: center;"">+</p>","null","fixation","","","","","","","","","","","","","","","","","","","","","","",""
"","","","","","html-slider-response","148","296198","0.0-21.0-0.12","3975af8a-b2cb-4111-bdc5-9d989e64c4ac","1000","
                  <p style=""text-align: center;"">₪58
                                                <br>30%</p>
                  <p id=""wtp"" style=""text-align:center; margin-top: 0px; margin-bottom: 0px; font-size: 40px"";>&ensp;</p>","-","viewing","0","19","13C,30A","","","","","","","","","","","","","","","","","","","",""
"","","","","","html-slider-response","149","299606","0.0-21.0-1.12","3975af8a-b2cb-4111-bdc5-9d989e64c4ac","3406","
                  <p style=""text-align: center;"">₪58
                                                <br>30%</p>
                  <p id=""wtp"" style=""text-align:center; margin-top: 0px; margin-bottom: 0px; font-size: 40px"";>מוכנים לשלם: <span id=""c_p_y""></span></p>","8","evaluation","36","19","13C,30A","30","58","9","","","","","","","","","","","","","","","","",""
"","","","","","html-keyboard-response","150","301030","0.0-21.0-2.12","3975af8a-b2cb-4111-bdc5-9d989e64c4ac","null","<p style=""text-align: center;"">+</p>","null","fixation","","","","","","","","","","","","","","","","","","","","","","",""
"","","","","","html-slider-response","151","302039","0.0-21.0-0.13","3975af8a-b2cb-4111-bdc5-9d989e64c4ac","1000","
                  <p style=""text-align: center;"">₪71
                                                <br>45%</p>
                  <p id=""wtp"" style=""text-align:center; margin-top: 0px; margin-bottom: 0px; font-size: 40px"";>&ensp;</p>","-","viewing","0","26","2B,16A","","","","","","","","","","","","","","","","","","","",""
"","","","","","html-slider-response","152","303806","0.0-21.0-1.13","3975af8a-b2cb-4111-bdc5-9d989e64c4ac","1765","
                  <p style=""text-align: center;"">₪71
                                                <br>45%</p>
                  <p id=""wtp"" style=""text-align:center; margin-top: 0px; margin-bottom: 0px; font-size: 40px"";>מוכנים לשלם: <span id=""c_p_y""></span></p>","26","evaluation","50","26","2B,16A","45","71","26","","","","","","","","","","","","","","","","",""
"","","","","","html-keyboard-response","153","304569","0.0-21.0-2.13","3975af8a-b2cb-4111-bdc5-9d989e64c4ac","null","<p style=""text-align: center;"">+</p>","null","fixation","","","","","","","","","","","","","","","","","","","","","","",""
"","","","","","html-slider-response","154","305571","0.0-21.0-0.14","3975af8a-b2cb-4111-bdc5-9d989e64c4ac","1000","
                  <p style=""text-align: center;"">₪79
                                                <br>40%</p>
                  <p id=""wtp"" style=""text-align:center; margin-top: 0px; margin-bottom: 0px; font-size: 40px"";>&ensp;</p>","-","viewing","0","30","9B","","","","","","","","","","","","","","","","","","","",""
"","","","","","html-slider-response","155","306694","0.0-21.0-1.14","3975af8a-b2cb-4111-bdc5-9d989e64c4ac","1121","
                  <p style=""text-align: center;"">₪79
                                                <br>40%</p>
                  <p id=""wtp"" style=""text-align:center; margin-top: 0px; margin-bottom: 0px; font-size: 40px"";>מוכנים לשלם: <span id=""c_p_y""></span></p>","30","evaluation","65","30","9B","40","79","31","","","","","","","","","","","","","","","","",""
"","","","","","html-keyboard-response","156","307537","0.0-21.0-2.14","3975af8a-b2cb-4111-bdc5-9d989e64c4ac","null","<p style=""text-align: center;"">+</p>","null","fixation","","","","","","","","","","","","","","","","","","","","","","",""
"","","","","","html-slider-response","157","308545","0.0-21.0-0.15","3975af8a-b2cb-4111-bdc5-9d989e64c4ac","1000","
                  <p style=""text-align: center;"">₪36
                                                <br>75%</p>
                  <p id=""wtp"" style=""text-align:center; margin-top: 0px; margin-bottom: 0px; font-size: 40px"";>&ensp;</p>","-","viewing","0","14","4B,5A,13B,16B","","","","","","","","","","","","","","","","","","","",""
"","","","","","html-slider-response","158","310902","0.0-21.0-1.15","3975af8a-b2cb-4111-bdc5-9d989e64c4ac","2355","
                  <p style=""text-align: center;"">₪36
                                                <br>75%</p>
                  <p id=""wtp"" style=""text-align:center; margin-top: 0px; margin-bottom: 0px; font-size: 40px"";>מוכנים לשלם: <span id=""c_p_y""></span></p>","25","evaluation","40","14","4B,5A,13B,16B","75","36","25","","","","","","","","","","","","","","","","",""
"","","","","","html-keyboard-response","159","312244","0.0-21.0-2.15","3975af8a-b2cb-4111-bdc5-9d989e64c4ac","null","<p style=""text-align: center;"">+</p>","null","fixation","","","","","","","","","","","","","","","","","","","","","","",""
"","","","","","html-slider-response","160","313252","0.0-21.0-0.16","3975af8a-b2cb-4111-bdc5-9d989e64c4ac","1000","
                  <p style=""text-align: center;"">₪43
                                                <br>60%</p>
                  <p id=""wtp"" style=""text-align:center; margin-top: 0px; margin-bottom: 0px; font-size: 40px"";>&ensp;</p>","-","viewing","0","17","2A,7A,9A,15B","","","","","","","","","","","","","","","","","","","",""
"","","","","","html-slider-response","161","315270","0.0-21.0-1.16","3975af8a-b2cb-4111-bdc5-9d989e64c4ac","2017","
                  <p style=""text-align: center;"">₪43
                                                <br>60%</p>
                  <p id=""wtp"" style=""text-align:center; margin-top: 0px; margin-bottom: 0px; font-size: 40px"";>מוכנים לשלם: <span id=""c_p_y""></span></p>","25","evaluation","19","17","2A,7A,9A,15B","60","43","25","","","","","","","","","","","","","","","","",""
"","","","","","html-keyboard-response","162","316085","0.0-21.0-2.16","3975af8a-b2cb-4111-bdc5-9d989e64c4ac","null","<p style=""text-align: center;"">+</p>","null","fixation","","","","","","","","","","","","","","","","","","","","","","",""
"","","","","","html-slider-response","163","317097","0.0-21.0-0.17","3975af8a-b2cb-4111-bdc5-9d989e64c4ac","1000","
                  <p style=""text-align: center;"">₪18
                                                <br>25%</p>
                  <p id=""wtp"" style=""text-align:center; margin-top: 0px; margin-bottom: 0px; font-size: 40px"";>&ensp;</p>","-","viewing","0","9","14A,23A","","","","","","","","","","","","","","","","","","","",""
"","","","","","html-slider-response","164","318198","0.0-21.0-1.17","3975af8a-b2cb-4111-bdc5-9d989e64c4ac","1100","
                  <p style=""text-align: center;"">₪18
                                                <br>25%</p>
                  <p id=""wtp"" style=""text-align:center; margin-top: 0px; margin-bottom: 0px; font-size: 40px"";>מוכנים לשלם: <span id=""c_p_y""></span></p>","1","evaluation","32","9","14A,23A","25","18","2","","","","","","","","","","","","","","","","",""
"","","","","","html-keyboard-response","165","319434","0.0-21.0-2.17","3975af8a-b2cb-4111-bdc5-9d989e64c4ac","null","<p style=""text-align: center;"">+</p>","null","fixation","","","","","","","","","","","","","","","","","","","","","","",""
"","","","","","html-slider-response","166","320443","0.0-21.0-0.18","3975af8a-b2cb-4111-bdc5-9d989e64c4ac","1000","
                  <p style=""text-align: center;"">₪11
                                                <br>25%</p>
                  <p id=""wtp"" style=""text-align:center; margin-top: 0px; margin-bottom: 0px; font-size: 40px"";>&ensp;</p>","-","viewing","0","5","12A,27B,28B,30B","","","","","","","","","","","","","","","","","","","",""
"","","","","","html-slider-response","167","321838","0.0-21.0-1.18","3975af8a-b2cb-4111-bdc5-9d989e64c4ac","1393","
                  <p style=""text-align: center;"">₪11
                                                <br>25%</p>
                  <p id=""wtp"" style=""text-align:center; margin-top: 0px; margin-bottom: 0px; font-size: 40px"";>מוכנים לשלם: <span id=""c_p_y""></span></p>","3","evaluation","19","5","12A,27B,28B,30B","25","11","3","","","","","","","","","","","","","","","","",""
"","","","","","html-keyboard-response","168","323143","0.0-21.0-2.18","3975af8a-b2cb-4111-bdc5-9d989e64c4ac","null","<p style=""text-align: center;"">+</p>","null","fixation","","","","","","","","","","","","","","","","","","","","","","",""
"","","","","","html-slider-response","169","324160","0.0-21.0-0.19","3975af8a-b2cb-4111-bdc5-9d989e64c4ac","1000","
                  <p style=""text-align: center;"">₪79
                                                <br>65%</p>
                  <p id=""wtp"" style=""text-align:center; margin-top: 0px; margin-bottom: 0px; font-size: 40px"";>&ensp;</p>","-","viewing","0","31","8A","","","","","","","","","","","","","","","","","","","",""
"","","","","","html-slider-response","170","325814","0.0-21.0-1.19","3975af8a-b2cb-4111-bdc5-9d989e64c4ac","1653","
                  <p style=""text-align: center;"">₪79
                                                <br>65%</p>
                  <p id=""wtp"" style=""text-align:center; margin-top: 0px; margin-bottom: 0px; font-size: 40px"";>מוכנים לשלם: <span id=""c_p_y""></span></p>","58","evaluation","47","31","8A","65","79","57","","","","","","","","","","","","","","","","",""
"","","","","","html-keyboard-response","171","326771","0.0-21.0-2.19","3975af8a-b2cb-4111-bdc5-9d989e64c4ac","null","<p style=""text-align: center;"">+</p>","null","fixation","","","","","","","","","","","","","","","","","","","","","","",""
"","","","","","html-slider-response","172","327775","0.0-21.0-0.20","3975af8a-b2cb-4111-bdc5-9d989e64c4ac","1000","
                  <p style=""text-align: center;"">₪11
                                                <br>20%</p>
                  <p id=""wtp"" style=""text-align:center; margin-top: 0px; margin-bottom: 0px; font-size: 40px"";>&ensp;</p>","-","viewing","0","4","12C,17C,23C,28C","","","","","","","","","","","","","","","","","","","",""
"","","","","","html-slider-response","173","330206","0.0-21.0-1.20","3975af8a-b2cb-4111-bdc5-9d989e64c4ac","2429","
                  <p style=""text-align: center;"">₪11
                                                <br>20%</p>
                  <p id=""wtp"" style=""text-align:center; margin-top: 0px; margin-bottom: 0px; font-size: 40px"";>מוכנים לשלם: <span id=""c_p_y""></span></p>","4","evaluation","77","4","12C,17C,23C,28C","20","11","4","","","","","","","","","","","","","","","","",""
"","","","","","html-keyboard-response","174","331486","0.0-21.0-2.20","3975af8a-b2cb-4111-bdc5-9d989e64c4ac","null","<p style=""text-align: center;"">+</p>","null","fixation","","","","","","","","","","","","","","","","","","","","","","",""
"","","","","","html-slider-response","175","332489","0.0-21.0-0.21","3975af8a-b2cb-4111-bdc5-9d989e64c4ac","1000","
                  <p style=""text-align: center;"">₪36
                                                <br>30%</p>
                  <p id=""wtp"" style=""text-align:center; margin-top: 0px; margin-bottom: 0px; font-size: 40px"";>&ensp;</p>","-","viewing","0","11","3C,20A,22A","","","","","","","","","","","","","","","","","","","",""
"","","","","","html-slider-response","176","334446","0.0-21.0-1.21","3975af8a-b2cb-4111-bdc5-9d989e64c4ac","1956","
                  <p style=""text-align: center;"">₪36
                                                <br>30%</p>
                  <p id=""wtp"" style=""text-align:center; margin-top: 0px; margin-bottom: 0px; font-size: 40px"";>מוכנים לשלם: <span id=""c_p_y""></span></p>","4","evaluation","27","11","3C,20A,22A","30","36","5","","","","","","","","","","","","","","","","",""
"","","","","","html-keyboard-response","177","335903","0.0-21.0-2.21","3975af8a-b2cb-4111-bdc5-9d989e64c4ac","null","<p style=""text-align: center;"">+</p>","null","fixation","","","","","","","","","","","","","","","","","","","","","","",""
"","","","","","html-slider-response","178","336906","0.0-21.0-0.22","3975af8a-b2cb-4111-bdc5-9d989e64c4ac","1000","
                  <p style=""text-align: center;"">₪61
                                                <br>45%</p>
                  <p id=""wtp"" style=""text-align:center; margin-top: 0px; margin-bottom: 0px; font-size: 40px"";>&ensp;</p>","-","viewing","0","22","10A,11A","","","","","","","","","","","","","","","","","","","",""
"","","","","","html-slider-response","179","338110","0.0-21.0-1.22","3975af8a-b2cb-4111-bdc5-9d989e64c4ac","1203","
                  <p style=""text-align: center;"">₪61
                                                <br>45%</p>
                  <p id=""wtp"" style=""text-align:center; margin-top: 0px; margin-bottom: 0px; font-size: 40px"";>מוכנים לשלם: <span id=""c_p_y""></span></p>","22","evaluation","51","22","10A,11A","45","61","22","","","","","","","","","","","","","","","","",""
"","","","","","html-keyboard-response","180","339326","0.0-21.0-2.22","3975af8a-b2cb-4111-bdc5-9d989e64c4ac","null","<p style=""text-align: center;"">+</p>","null","fixation","","","","","","","","","","","","","","","","","","","","","","",""
"","","","","","html-slider-response","181","340327","0.0-21.0-0.23","3975af8a-b2cb-4111-bdc5-9d989e64c4ac","1000","
                  <p style=""text-align: center;"">₪64
                                                <br>50%</p>
                  <p id=""wtp"" style=""text-align:center; margin-top: 0px; margin-bottom: 0px; font-size: 40px"";>&ensp;</p>","-","viewing","0","25","1B,3B,4A","","","","","","","","","","","","","","","","","","","",""
"","","","","","html-slider-response","182","341886","0.0-21.0-1.23","3975af8a-b2cb-4111-bdc5-9d989e64c4ac","1558","
                  <p style=""text-align: center;"">₪64
                                                <br>50%</p>
                  <p id=""wtp"" style=""text-align:center; margin-top: 0px; margin-bottom: 0px; font-size: 40px"";>מוכנים לשלם: <span id=""c_p_y""></span></p>","29","evaluation","67","25","1B,3B,4A","50","64","29","","","","","","","","","","","","","","","","",""
"","","","","","html-keyboard-response","183","343019","0.0-21.0-2.23","3975af8a-b2cb-4111-bdc5-9d989e64c4ac","null","<p style=""text-align: center;"">+</p>","null","fixation","","","","","","","","","","","","","","","","","","","","","","",""
"","","","","","html-slider-response","184","344023","0.0-21.0-0.24","3975af8a-b2cb-4111-bdc5-9d989e64c4ac","1000","
                  <p style=""text-align: center;"">₪16
                                                <br>20%</p>
                  <p id=""wtp"" style=""text-align:center; margin-top: 0px; margin-bottom: 0px; font-size: 40px"";>&ensp;</p>","-","viewing","0","8","14C,17A,20C,27A","","","","","","","","","","","","","","","","","","","",""
"","","","","","html-slider-response","185","345958","0.0-21.0-1.24","3975af8a-b2cb-4111-bdc5-9d989e64c4ac","1933","
                  <p style=""text-align: center;"">₪16
                                                <br>20%</p>
                  <p id=""wtp"" style=""text-align:center; margin-top: 0px; margin-bottom: 0px; font-size: 40px"";>מוכנים לשלם: <span id=""c_p_y""></span></p>","0","evaluation","8","8","14C,17A,20C,27A","20","16","1","","","","","","","","","","","","","","","","",""
"","","","","","html-keyboard-response","186","346652","0.0-21.0-2.24","3975af8a-b2cb-4111-bdc5-9d989e64c4ac","null","<p style=""text-align: center;"">+</p>","null","fixation","","","","","","","","","","","","","","","","","","","","","","",""
"","","","","","html-slider-response","187","347654","0.0-21.0-0.25","3975af8a-b2cb-4111-bdc5-9d989e64c4ac","1000","
                  <p style=""text-align: center;"">₪61
                                                <br>55%</p>
                  <p id=""wtp"" style=""text-align:center; margin-top: 0px; margin-bottom: 0px; font-size: 40px"";>&ensp;</p>","-","viewing","0","23","7B,26B","","","","","","","","","","","","","","","","","","","",""
"","","","","","html-slider-response","188","349542","0.0-21.0-1.25","3975af8a-b2cb-4111-bdc5-9d989e64c4ac","1888","
                  <p style=""text-align: center;"">₪61
                                                <br>55%</p>
                  <p id=""wtp"" style=""text-align:center; margin-top: 0px; margin-bottom: 0px; font-size: 40px"";>מוכנים לשלם: <span id=""c_p_y""></span></p>","30","evaluation","14","23","7B,26B","55","61","30","","","","","","","","","","","","","","","","",""
"","","","","","html-keyboard-response","189","350555","0.0-21.0-2.25","3975af8a-b2cb-4111-bdc5-9d989e64c4ac","null","<p style=""text-align: center;"">+</p>","null","fixation","","","","","","","","","","","","","","","","","","","","","","",""
"","","","","","html-slider-response","190","351559","0.0-21.0-0.26","3975af8a-b2cb-4111-bdc5-9d989e64c4ac","1000","
                  <p style=""text-align: center;"">₪43
                                                <br>75%</p>
                  <p id=""wtp"" style=""text-align:center; margin-top: 0px; margin-bottom: 0px; font-size: 40px"";>&ensp;</p>","-","viewing","0","18","11B,19B,24A,26A","","","","","","","","","","","","","","","","","","","",""
"","","","","","html-slider-response","191","354264","0.0-21.0-1.26","3975af8a-b2cb-4111-bdc5-9d989e64c4ac","2702","
                  <p style=""text-align: center;"">₪43
                                                <br>75%</p>
                  <p id=""wtp"" style=""text-align:center; margin-top: 0px; margin-bottom: 0px; font-size: 40px"";>מוכנים לשלם: <span id=""c_p_y""></span></p>","39","evaluation","4","18","11B,19B,24A,26A","75","43","39","","","","","","","","","","","","","","","","",""
"","","","","","html-keyboard-response","192","355566","0.0-21.0-2.26","3975af8a-b2cb-4111-bdc5-9d989e64c4ac","null","<p style=""text-align: center;"">+</p>","null","fixation","","","","","","","","","","","","","","","","","","","","","","",""
"","","","","","html-slider-response","193","356580","0.0-21.0-0.27","3975af8a-b2cb-4111-bdc5-9d989e64c4ac","1000","
                  <p style=""text-align: center;"">₪39
                                                <br>60%</p>
                  <p id=""wtp"" style=""text-align:center; margin-top: 0px; margin-bottom: 0px; font-size: 40px"";>&ensp;</p>","-","viewing","0","15","9C,25B","","","","","","","","","","","","","","","","","","","",""
"","","","","","html-slider-response","194","358751","0.0-21.0-1.27","3975af8a-b2cb-4111-bdc5-9d989e64c4ac","2170","
                  <p style=""text-align: center;"">₪39
                                                <br>60%</p>
                  <p id=""wtp"" style=""text-align:center; margin-top: 0px; margin-bottom: 0px; font-size: 40px"";>מוכנים לשלם: <span id=""c_p_y""></span></p>","21","evaluation","33","15","9C,25B","60","39","21","","","","","","","","","","","","","","","","",""
"","","","","","html-keyboard-response","195","359407","0.0-21.0-2.27","3975af8a-b2cb-4111-bdc5-9d989e64c4ac","null","<p style=""text-align: center;"">+</p>","null","fixation","","","","","","","","","","","","","","","","","","","","","","",""
"","","","","","html-slider-response","196","360410","0.0-21.0-0.28","3975af8a-b2cb-4111-bdc5-9d989e64c4ac","1000","
                  <p style=""text-align: center;"">₪18
                                                <br>50%</p>
                  <p id=""wtp"" style=""text-align:center; margin-top: 0px; margin-bottom: 0px; font-size: 40px"";>&ensp;</p>","-","viewing","0","10","2C,16C,22B,28A","","","","","","","","","","","","","","","","","","","",""
"","","","","","html-slider-response","197","361751","0.0-21.0-1.28","3975af8a-b2cb-4111-bdc5-9d989e64c4ac","1340","
                  <p style=""text-align: center;"">₪18
                                                <br>50%</p>
                  <p id=""wtp"" style=""text-align:center; margin-top: 0px; margin-bottom: 0px; font-size: 40px"";>מוכנים לשלם: <span id=""c_p_y""></span></p>","3","evaluation","39","10","2C,16C,22B,28A","50","18","3","","","","","","","","","","","","","","","","",""
"","","","","","html-keyboard-response","198","363192","0.0-21.0-2.28","3975af8a-b2cb-4111-bdc5-9d989e64c4ac","null","<p style=""text-align: center;"">+</p>","null","fixation","","","","","","","","","","","","","","","","","","","","","","",""
"","","","","","html-slider-response","199","364194","0.0-21.0-0.29","3975af8a-b2cb-4111-bdc5-9d989e64c4ac","1000","
                  <p style=""text-align: center;"">₪76
                                                <br>65%</p>
                  <p id=""wtp"" style=""text-align:center; margin-top: 0px; margin-bottom: 0px; font-size: 40px"";>&ensp;</p>","-","viewing","0","29","8C,19A,24B","","","","","","","","","","","","","","","","","","","",""
"","","","","","html-slider-response","200","366703","0.0-21.0-1.29","3975af8a-b2cb-4111-bdc5-9d989e64c4ac","2508","
                  <p style=""text-align: center;"">₪76
                                                <br>65%</p>
                  <p id=""wtp"" style=""text-align:center; margin-top: 0px; margin-bottom: 0px; font-size: 40px"";>מוכנים לשלם: <span id=""c_p_y""></span></p>","34","evaluation","76","29","8C,19A,24B","65","76","34","","","","","","","","","","","","","","","","",""
"","","","","","html-keyboard-response","201","367974","0.0-21.0-2.29","3975af8a-b2cb-4111-bdc5-9d989e64c4ac","null","<p style=""text-align: center;"">+</p>","null","fixation","","","","","","","","","","","","","","","","","","","","","","",""
"","","","","","html-slider-response","202","368983","0.0-21.0-0.30","3975af8a-b2cb-4111-bdc5-9d989e64c4ac","1000","
                  <p style=""text-align: center;"">₪39
                                                <br>65%</p>
                  <p id=""wtp"" style=""text-align:center; margin-top: 0px; margin-bottom: 0px; font-size: 40px"";>&ensp;</p>","-","viewing","0","16","1A,15A,26C","","","","","","","","","","","","","","","","","","","",""
"","","","","","html-slider-response","203","371703","0.0-21.0-1.30","3975af8a-b2cb-4111-bdc5-9d989e64c4ac","2718","
                  <p style=""text-align: center;"">₪39
                                                <br>65%</p>
                  <p id=""wtp"" style=""text-align:center; margin-top: 0px; margin-bottom: 0px; font-size: 40px"";>מוכנים לשלם: <span id=""c_p_y""></span></p>","16","evaluation","53","16","1A,15A,26C","65","39","16","","","","","","","","","","","","","","","","",""
"","","","","","html-keyboard-response","204","372983","0.0-21.0-2.30","3975af8a-b2cb-4111-bdc5-9d989e64c4ac","null","<p style=""text-align: center;"">+</p>","null","fixation","","","","","","","","","","","","","","","","","","","","","","",""
"","","","","","html-keyboard-response","205","373986","0.0-22.0","3975af8a-b2cb-4111-bdc5-9d989e64c4ac","null","<p style=""text-align: center;"">+</p>","null","fixation","","","","","","","","","","","","","","","","","","","","","","",""
"","","","","","html-keyboard-response","206","378071","0.0-23.0","3975af8a-b2cb-4111-bdc5-9d989e64c4ac","null","<p>הפסקה.
          <br>לחצו כדי להמשיך.</p>","1","scan_wait","","","","","","","","","","","","","","","","","","","","","","",""
"","","","","","html-keyboard-response","207","379072","0.0-24.0","3975af8a-b2cb-4111-bdc5-9d989e64c4ac","null","<p style=""text-align: center;"">+</p>","null","fixation","","","","","","","","","","","","","","","","","","","","","","",""
"","","","","","html-slider-response","208","380086","0.0-25.0-0.0","3975af8a-b2cb-4111-bdc5-9d989e64c4ac","1000","
                  <p style=""text-align: center;"">₪61
                                                <br>45%</p>
                  <p id=""wtp"" style=""text-align:center; margin-top: 0px; margin-bottom: 0px; font-size: 40px"";>&ensp;</p>","-","viewing","0","22","10A,11A","","","","","","","","","","","","","","","","","","","",""
"","","","","","html-slider-response","209","382391","0.0-25.0-1.0","3975af8a-b2cb-4111-bdc5-9d989e64c4ac","2304","
                  <p style=""text-align: center;"">₪61
                                                <br>45%</p>
                  <p id=""wtp"" style=""text-align:center; margin-top: 0px; margin-bottom: 0px; font-size: 40px"";>מוכנים לשלם: <span id=""c_p_y""></span></p>","23","evaluation","41","22","10A,11A","45","61","23","","","","","","","","","","","","","","","","",""
"","","","","","html-keyboard-response","210","383886","0.0-25.0-2.0","3975af8a-b2cb-4111-bdc5-9d989e64c4ac","null","<p style=""text-align: center;"">+</p>","null","fixation","","","","","","","","","","","","","","","","","","","","","","",""
"","","","","","html-slider-response","211","384887","0.0-25.0-0.1","3975af8a-b2cb-4111-bdc5-9d989e64c4ac","1000","
                  <p style=""text-align: center;"">₪61
                                                <br>55%</p>
                  <p id=""wtp"" style=""text-align:center; margin-top: 0px; margin-bottom: 0px; font-size: 40px"";>&ensp;</p>","-","viewing","0","23","7B,26B","","","","","","","","","","","","","","","","","","","",""
"","","","","","html-slider-response","212","387175","0.0-25.0-1.1","3975af8a-b2cb-4111-bdc5-9d989e64c4ac","2287","
                  <p style=""text-align: center;"">₪61
                                                <br>55%</p>
                  <p id=""wtp"" style=""text-align:center; margin-top: 0px; margin-bottom: 0px; font-size: 40px"";>מוכנים לשלם: <span id=""c_p_y""></span></p>","37","evaluation","67","23","7B,26B","55","61","37","","","","","","","","","","","","","","","","",""
"","","","","","html-keyboard-response","213","388561","0.0-25.0-2.1","3975af8a-b2cb-4111-bdc5-9d989e64c4ac","null","<p style=""text-align: center;"">+</p>","null","fixation","","","","","","","","","","","","","","","","","","","","","","",""
"","","","","","html-slider-response","214","389563","0.0-25.0-0.2","3975af8a-b2cb-4111-bdc5-9d989e64c4ac","1000","
                  <p style=""text-align: center;"">₪11
                                                <br>45%</p>
                  <p id=""wtp"" style=""text-align:center; margin-top: 0px; margin-bottom: 0px; font-size: 40px"";>&ensp;</p>","-","viewing","0","6","14B,21C,25C","","","","","","","","","","","","","","","","","","","",""
"","","","","","html-slider-response","215","390975","0.0-25.0-1.2","3975af8a-b2cb-4111-bdc5-9d989e64c4ac","1411","
                  <p style=""text-align: center;"">₪11
                                                <br>45%</p>
                  <p id=""wtp"" style=""text-align:center; margin-top: 0px; margin-bottom: 0px; font-size: 40px"";>מוכנים לשלם: <span id=""c_p_y""></span></p>","2","evaluation","50","6","14B,21C,25C","45","11","3","","","","","","","","","","","","","","","","",""
"","","","","","html-keyboard-response","216","392133","0.0-25.0-2.2","3975af8a-b2cb-4111-bdc5-9d989e64c4ac","null","<p style=""text-align: center;"">+</p>","null","fixation","","","","","","","","","","","","","","","","","","","","","","",""
"","","","","","html-slider-response","217","393134","0.0-25.0-0.3","3975af8a-b2cb-4111-bdc5-9d989e64c4ac","1000","
                  <p style=""text-align: center;"">₪71
                                                <br>45%</p>
                  <p id=""wtp"" style=""text-align:center; margin-top: 0px; margin-bottom: 0px; font-size: 40px"";>&ensp;</p>","-","viewing","0","26","2B,16A","","","","","","","","","","","","","","","","","","","",""
"","","","","","html-slider-response","218","395535","0.0-25.0-1.3","3975af8a-b2cb-4111-bdc5-9d989e64c4ac","2400","
                  <p style=""text-align: center;"">₪71
                                                <br>45%</p>
                  <p id=""wtp"" style=""text-align:center; margin-top: 0px; margin-bottom: 0px; font-size: 40px"";>מוכנים לשלם: <span id=""c_p_y""></span></p>","23","evaluation","44","26","2B,16A","45","71","24","","","","","","","","","","","","","","","","",""
"","","","","","html-keyboard-response","219","396996","0.0-25.0-2.3","3975af8a-b2cb-4111-bdc5-9d989e64c4ac","null","<p style=""text-align: center;"">+</p>","null","fixation","","","","","","","","","","","","","","","","","","","","","","",""
"","","","","","html-slider-response","220","398005","0.0-25.0-0.4","3975af8a-b2cb-4111-bdc5-9d989e64c4ac","1000","
                  <p style=""text-align: center;"">₪58
                                                <br>45%</p>
                  <p id=""wtp"" style=""text-align:center; margin-top: 0px; margin-bottom: 0px; font-size: 40px"";>&ensp;</p>","-","viewing","0","21","11C,18C,25A","","","","","","","","","","","","","","","","","","","",""
"","","","","","html-slider-response","221","399519","0.0-25.0-1.4","3975af8a-b2cb-4111-bdc5-9d989e64c4ac","1514","
                  <p style=""text-align: center;"">₪58
                                                <br>45%</p>
                  <p id=""wtp"" style=""text-align:center; margin-top: 0px; margin-bottom: 0px; font-size: 40px"";>מוכנים לשלם: <span id=""c_p_y""></span></p>","28","evaluation","59","21","11C,18C,25A","45","58","28","","","","","","","","","","","","","","","","",""
"","","","","","html-keyboard-response","222","400374","0.0-25.0-2.4","3975af8a-b2cb-4111-bdc5-9d989e64c4ac","null","<p style=""text-align: center;"">+</p>","null","fixation","","","","","","","","","","","","","","","","","","","","","","",""
"","","","","","html-slider-response","223","401387","0.0-25.0-0.5","3975af8a-b2cb-4111-bdc5-9d989e64c4ac","1000","
                  <p style=""text-align: center;"">₪64
                                                <br>50%</p>
                  <p id=""wtp"" style=""text-align:center; margin-top: 0px; margin-bottom: 0px; font-size: 40px"";>&ensp;</p>","-","viewing","0","25","1B,3B,4A","","","","","","","","","","","","","","","","","","","",""
"","","","","","html-slider-response","224","403791","0.0-25.0-1.5","3975af8a-b2cb-4111-bdc5-9d989e64c4ac","2403","
                  <p style=""text-align: center;"">₪64
                                                <br>50%</p>
                  <p id=""wtp"" style=""text-align:center; margin-top: 0px; margin-bottom: 0px; font-size: 40px"";>מוכנים לשלם: <span id=""c_p_y""></span></p>","31","evaluation","64","25","1B,3B,4A","50","64","31","","","","","","","","","","","","","","","","",""
"","","","","","html-keyboard-response","225","404597","0.0-25.0-2.5","3975af8a-b2cb-4111-bdc5-9d989e64c4ac","null","<p style=""text-align: center;"">+</p>","null","fixation","","","","","","","","","","","","","","","","","","","","","","",""
"","","","","","html-slider-response","226","405601","0.0-25.0-0.6","3975af8a-b2cb-4111-bdc5-9d989e64c4ac","1000","
                  <p style=""text-align: center;"">₪11
                                                <br>20%</p>
                  <p id=""wtp"" style=""text-align:center; margin-top: 0px; margin-bottom: 0px; font-size: 40px"";>&ensp;</p>","-","viewing","0","4","12C,17C,23C,28C","","","","","","","","","","","","","","","","","","","",""
"","","","","","html-slider-response","227","406607","0.0-25.0-1.6","3975af8a-b2cb-4111-bdc5-9d989e64c4ac","1005","
                  <p style=""text-align: center;"">₪11
                                                <br>20%</p>
                  <p id=""wtp"" style=""text-align:center; margin-top: 0px; margin-bottom: 0px; font-size: 40px"";>מוכנים לשלם: <span id=""c_p_y""></span></p>","1","evaluation","20","4","12C,17C,23C,28C","20","11","1","","","","","","","","","","","","","","","","",""
"","","","","","html-keyboard-response","228","407389","0.0-25.0-2.6","3975af8a-b2cb-4111-bdc5-9d989e64c4ac","null","<p style=""text-align: center;"">+</p>","null","fixation","","","","","","","","","","","","","","","","","","","","","","",""
"","","","","","html-slider-response","229","408397","0.0-25.0-0.7","3975af8a-b2cb-4111-bdc5-9d989e64c4ac","1000","
                  <p style=""text-align: center;"">₪11
                                                <br>25%</p>
                  <p id=""wtp"" style=""text-align:center; margin-top: 0px; margin-bottom: 0px; font-size: 40px"";>&ensp;</p>","-","viewing","0","5","12A,27B,28B,30B","","","","","","","","","","","","","","","","","","","",""
"","","","","","html-slider-response","230","410327","0.0-25.0-1.7","3975af8a-b2cb-4111-bdc5-9d989e64c4ac","1929","
                  <p style=""text-align: center;"">₪11
                                                <br>25%</p>
                  <p id=""wtp"" style=""text-align:center; margin-top: 0px; margin-bottom: 0px; font-size: 40px"";>מוכנים לשלם: <span id=""c_p_y""></span></p>","0","evaluation","44","5","12A,27B,28B,30B","25","11","1","","","","","","","","","","","","","","","","",""
"","","","","","html-keyboard-response","231","411517","0.0-25.0-2.7","3975af8a-b2cb-4111-bdc5-9d989e64c4ac","null","<p style=""text-align: center;"">+</p>","null","fixation","","","","","","","","","","","","","","","","","","","","","","",""
"","","","","","html-slider-response","232","412519","0.0-25.0-0.8","3975af8a-b2cb-4111-bdc5-9d989e64c4ac","1000","
                  <p style=""text-align: center;"">₪39
                                                <br>60%</p>
                  <p id=""wtp"" style=""text-align:center; margin-top: 0px; margin-bottom: 0px; font-size: 40px"";>&ensp;</p>","-","viewing","0","15","9C,25B","","","","","","","","","","","","","","","","","","","",""
"","","","","","html-slider-response","233","414383","0.0-25.0-1.8","3975af8a-b2cb-4111-bdc5-9d989e64c4ac","1863","
                  <p style=""text-align: center;"">₪39
                                                <br>60%</p>
                  <p id=""wtp"" style=""text-align:center; margin-top: 0px; margin-bottom: 0px; font-size: 40px"";>מוכנים לשלם: <span id=""c_p_y""></span></p>","28","evaluation","59","15","9C,25B","60","39","28","","","","","","","","","","","","","","","","",""
"","","","","","html-keyboard-response","234","415052","0.0-25.0-2.8","3975af8a-b2cb-4111-bdc5-9d989e64c4ac","null","<p style=""text-align: center;"">+</p>","null","fixation","","","","","","","","","","","","","","","","","","","","","","",""
"","","","","","html-slider-response","235","416056","0.0-25.0-0.9","3975af8a-b2cb-4111-bdc5-9d989e64c4ac","1000","
                  <p style=""text-align: center;"">₪64
                                                <br>25%</p>
                  <p id=""wtp"" style=""text-align:center; margin-top: 0px; margin-bottom: 0px; font-size: 40px"";>&ensp;</p>","-","viewing","0","24","6A,21A","","","","","","","","","","","","","","","","","","","",""
"","","","","","html-slider-response","236","418783","0.0-25.0-1.9","3975af8a-b2cb-4111-bdc5-9d989e64c4ac","2726","
                  <p style=""text-align: center;"">₪64
                                                <br>25%</p>
                  <p id=""wtp"" style=""text-align:center; margin-top: 0px; margin-bottom: 0px; font-size: 40px"";>מוכנים לשלם: <span id=""c_p_y""></span></p>","9","evaluation","60","24","6A,21A","25","64","10","","","","","","","","","","","","","","","","",""
"","","","","","html-keyboard-response","237","419534","0.0-25.0-2.9","3975af8a-b2cb-4111-bdc5-9d989e64c4ac","null","<p style=""text-align: center;"">+</p>","null","fixation","","","","","","","","","","","","","","","","","","","","","","",""
"","","","","","html-slider-response","238","420545","0.0-25.0-0.10","3975af8a-b2cb-4111-bdc5-9d989e64c4ac","1000","
                  <p style=""text-align: center;"">₪71
                                                <br>75%</p>
                  <p id=""wtp"" style=""text-align:center; margin-top: 0px; margin-bottom: 0px; font-size: 40px"";>&ensp;</p>","-","viewing","0","28","8B","","","","","","","","","","","","","","","","","","","",""
"","","","","","html-slider-response","239","423047","0.0-25.0-1.10","3975af8a-b2cb-4111-bdc5-9d989e64c4ac","2502","
                  <p style=""text-align: center;"">₪71
                                                <br>75%</p>
                  <p id=""wtp"" style=""text-align:center; margin-top: 0px; margin-bottom: 0px; font-size: 40px"";>מוכנים לשלם: <span id=""c_p_y""></span></p>","50","evaluation","24","28","8B","75","71","50","","","","","","","","","","","","","","","","",""
"","","","","","html-keyboard-response","240","423957","0.0-25.0-2.10","3975af8a-b2cb-4111-bdc5-9d989e64c4ac","null","<p style=""text-align: center;"">+</p>","null","fixation","","","","","","","","","","","","","","","","","","","","","","",""
"","","","","","html-slider-response","241","424965","0.0-25.0-0.11","3975af8a-b2cb-4111-bdc5-9d989e64c4ac","1000","
                  <p style=""text-align: center;"">₪58
                                                <br>30%</p>
                  <p id=""wtp"" style=""text-align:center; margin-top: 0px; margin-bottom: 0px; font-size: 40px"";>&ensp;</p>","-","viewing","0","19","13C,30A","","","","","","","","","","","","","","","","","","","",""
"","","","","","html-slider-response","242","427031","0.0-25.0-1.11","3975af8a-b2cb-4111-bdc5-9d989e64c4ac","2066","
                  <p style=""text-align: center;"">₪58
                                                <br>30%</p>
                  <p id=""wtp"" style=""text-align:center; margin-top: 0px; margin-bottom: 0px; font-size: 40px"";>מוכנים לשלם: <span id=""c_p_y""></span></p>","10","evaluation","30","19","13C,30A","30","58","10","","","","","","","","","","","","","","","","",""
"","","","","","html-keyboard-response","243","428342","0.0-25.0-2.11","3975af8a-b2cb-4111-bdc5-9d989e64c4ac","null","<p style=""text-align: center;"">+</p>","null","fixation","","","","","","","","","","","","","","","","","","","","","","",""
"","","","","","html-slider-response","244","429343","0.0-25.0-0.12","3975af8a-b2cb-4111-bdc5-9d989e64c4ac","1000","
                  <p style=""text-align: center;"">₪16
                                                <br>20%</p>
                  <p id=""wtp"" style=""text-align:center; margin-top: 0px; margin-bottom: 0px; font-size: 40px"";>&ensp;</p>","-","viewing","0","8","14C,17A,20C,27A","","","","","","","","","","","","","","","","","","","",""
"","","","","","html-slider-response","245","430847","0.0-25.0-1.12","3975af8a-b2cb-4111-bdc5-9d989e64c4ac","1503","
                  <p style=""text-align: center;"">₪16
                                                <br>20%</p>
                  <p id=""wtp"" style=""text-align:center; margin-top: 0px; margin-bottom: 0px; font-size: 40px"";>מוכנים לשלם: <span id=""c_p_y""></span></p>","3","evaluation","4","8","14C,17A,20C,27A","20","16","4","","","","","","","","","","","","","","","","",""
"","","","","","html-keyboard-response","246","431510","0.0-25.0-2.12","3975af8a-b2cb-4111-bdc5-9d989e64c4ac","null","<p style=""text-align: center;"">+</p>","null","fixation","","","","","","","","","","","","","","","","","","","","","","",""
"","","","","","html-slider-response","247","432518","0.0-25.0-0.13","3975af8a-b2cb-4111-bdc5-9d989e64c4ac","1000","
                  <p style=""text-align: center;"">₪79
                                                <br>65%</p>
                  <p id=""wtp"" style=""text-align:center; margin-top: 0px; margin-bottom: 0px; font-size: 40px"";>&ensp;</p>","-","viewing","0","31","8A","","","","","","","","","","","","","","","","","","","",""
"","","","","","html-slider-response","248","435199","0.0-25.0-1.13","3975af8a-b2cb-4111-bdc5-9d989e64c4ac","2680","
                  <p style=""text-align: center;"">₪79
                                                <br>65%</p>
                  <p id=""wtp"" style=""text-align:center; margin-top: 0px; margin-bottom: 0px; font-size: 40px"";>מוכנים לשלם: <span id=""c_p_y""></span></p>","54","evaluation","20","31","8A","65","79","54","","","","","","","","","","","","","","","","",""
