"success","timeout","failed_images","failed_audio","failed_video","trial_type","trial_index","time_elapsed","internal_node_id","subject_id","rt","stimulus","response","part","slider_start","ID","set_ID","prob","amount","last_location","actual_choice","actual_EV","binary_id","trinary_id","catch","direction","A_key","S_key","D_key","choice_prob","choice_amount","won_prize","potential_prize_amount","potential_prize_prob","total_prize","accuracy"
"true","false","[]","[]","[]","preload","0","17","0.0-0.0","6b26cfa6-d1c6-4455-98b2-55b1783f2cd4","","","","","","","","","","","","","","","","","","","","","","","","","",""
"","","","","","html-keyboard-response","1","11906","0.0-1.0","6b26cfa6-d1c6-4455-98b2-55b1783f2cd4","null","
          <h1>שלום וברוכים הבאים!</h1>
          <p>לפניכם ניסוי בקבלת החלטות עם שני חלקים.
          <br><br>לחצו על העכבר כדי להמשיך.</p>","0","example","","","","","","","","","","","","","","","","","","","","","",""
"","","","","","html-keyboard-response","2","19778","0.0-2.0","6b26cfa6-d1c6-4455-98b2-55b1783f2cd4","null","
        <h1>חלק 1</h1>
        <p>בקרוב יוצגו בפניכם הגרלות.
        <br>עליכם לבחור את המחיר המירבי שתהיו מוכנים לשלם כדי להשתתף בהגרלה שתוצג.
        <br>יש לכם תקציב של ₪80 לכל הגרלה. 
        <br>נסו להעריך כל הגרלה בנפרד ולחשוב כמה היא שווה עבורכם, ₪80 זמינים לכל הגרלה בנפרד.
        <br><br>לחצו על העכבר כדי להמשיך.</p>","1","instructions","","","","","","","","","","","","","","","","","","","","","",""
"","","","","","html-keyboard-response","3","32130","0.0-3.0","6b26cfa6-d1c6-4455-98b2-55b1783f2cd4","null","
        <p>בסוף הניסוי, המחשב יבחר את אחת ההגרלות ויקבע מחיר לכרטיס עבורה. 
        <br>במידה והמחיר שבחרתם נמוך מהמחיר שנבחר על ידי המחשב, לא תשתתפו בהגרלה ותשארו עם מלוא התקציב.
        <br>במידה והמחיר שבחרתם גבוה מהמחיר שנבחר על ידי המחשב, תשלמו את המחיר שנקבע ותשתתפו בהגרלה.
        <br><br>לחצו על העכבר כדי להמשיך.</p>","1","instructions","","","","","","","","","","","","","","","","","","","","","",""
"","","","","","html-slider-response","4","44746","0.0-4.0","6b26cfa6-d1c6-4455-98b2-55b1783f2cd4","12513","
        <p style=""font-size: 42px;"">נתחיל עם דוגמא: 
        <br>ההגרלה מטה מציעה 65% סיכוי לזכות ב-₪40 
        <br>&emsp;&emsp;&emsp;&emsp;&emsp;&emsp;&emsp;&emsp;&ensp;35% סיכוי לזכות ב-₪0.
        <br><br>מה המחיר המירבי שתהיו מוכנים לשלם על כרטיס להגרלה זו בין 0 ל-₪80?
        <br>הזיזו את העכבר על פני המלבן ולחצו כדי לבצע בחירה.</p>
        
        <p style=""text-align: center;"">₪40<br>65%</p>

        <p id=""wtp"" style=""text-align:center; margin-top: 0px; margin-bottom: 0px; font-size: 40px"";>מוכנים לשלם: <span id=""c_p_y""></span></p>","15","example","15","","","","","","","","","","","","","","","","","","","","",""
"","","","","","html-keyboard-response","5","50970","0.0-5.0","6b26cfa6-d1c6-4455-98b2-55b1783f2cd4","null","<p>יפה מאוד!
                <br> בחרתם שתהיו מוכנים לשלם ₪15 כדי להשתתף בהגרלה:
                <br><p style=""text-align: center;"">₪40<br>65%</p>
                <p>נשמע נכון?
                <br>נניח שהגרלה זו נבחרה בסוף הניסוי.
                <br>כעת המחשב יקבע מחיר עבורה באקראי.
                <br>לחצו על העכבר להמשך.</p>","1","example","","","","","","","","","","","","","","","","","","","","","",""
"","","","","","html-keyboard-response","6","63555","0.0-6.0","6b26cfa6-d1c6-4455-98b2-55b1783f2cd4","null","<p>המחשב קבע מחיר: ₪75
                <br>ואתם בחרתם לשלם לכל היותר: ₪15
                <br><br>מכיוון שהמחיר שבחרתם נמוך מהמחיר שנקבע, לא תתשתתפו בהגרלה.
                <br>במקרה כזה, בסוף הניסוי תקבלו את כל התקציב ההתחלתי של ₪80.
                <br><br>לחצו על העכבר להמשך.</p>","1","example","","","","","","","","","","","","","","","","","","","","","",""
"","","","","","html-slider-response","7","70339","0.0-7.0","6b26cfa6-d1c6-4455-98b2-55b1783f2cd4","6531","<p style=""font-size: 42px;"">הנה עוד דוגמא:
                <br>ההגרלה מטה מציעה 35% סיכוי לזכות ב-₪18 
                <br>&emsp;&emsp;&emsp;&emsp;&emsp;&emsp;&emsp;&emsp;&ensp;65% סיכוי לזכות ב-₪0.</p>
        
                <p style=""text-align: center;"">₪18<br>35%</p>
                <p id=""wtp"" style=""text-align:center; margin-top: 0px; margin-bottom: 0px; font-size: 40px"";>מוכנים לשלם: <span id=""c_p_y""></span></p>","13","example","25","","","","","","","","","","","","","","","","","","","","",""
"","","","","","html-keyboard-response","8","71499","0.0-8.0","6b26cfa6-d1c6-4455-98b2-55b1783f2cd4","null","<p>הייתם מוכנים לשלם  ₪13 כדי להשתתף בהגרלה:
                <p style=""text-align: center;"">₪18<br>35%</p>
                <p>כעת נניח שהמחשב בחר את ההגרלה הזו בסוף הניסוי, וקבע עבורה מחיר.
                <br><br>לחצו על העכבר כדי להמשיך.</p>","1","instructions","","","","","","","","","","","","","","","","","","","","","",""
"","","","","","html-keyboard-response","9","80867","0.0-9.0","6b26cfa6-d1c6-4455-98b2-55b1783f2cd4","null","<p>המחשב קבע מחיר להגרלה: ₪2<br>ואתם בחרתם לשלם לכל היותר: ₪13
                <br><br>כעת המחיר שנקבע נמוך מזה שבחרתם, אז תשלמו את המחיר שקבע המחשב (₪2) ותשתתפו בהגרלה.
                <br>במקרה כזה, תסיימו את הניסוי עם תקציב של ₪78 ועם סיכוי לזכות ב-₪18 נוספים מההגרלה.
                <br>כלומר, תוכלו לקבל ₪78 אם לא תזכו בהגרלה, או ₪96 אם תזכו בהגרלה.
                <br><br>לחצו על העכבר להמשך.</p>","1","example","","","","","","","","","","","","","","","","","","","","","",""
"","","","","","html-keyboard-response","10","82579","0.0-10.0","6b26cfa6-d1c6-4455-98b2-55b1783f2cd4","null","<p>במהלך הניסוי, קודם תראו את ההגרלה ורק לאחר מכן תוכלו לבחור.
                <p>כמו כן, יהיו לכם מספר שניות מוגבל להגיב.
                <p>בואו ננסה זאת עם ההגרלה הקודמת.
                <br>לחצו על העכבר כדי להמשיך.</p>","1","instructions","","","","","","","","","","","","","","","","","","","","","",""
"","","","","","html-slider-response","11","83840","0.0-11.0","6b26cfa6-d1c6-4455-98b2-55b1783f2cd4","1000","
                    <p style=""text-align: center;"">₪18<br>35%</p>
                    <p id=""wtp"" style=""text-align:center; margin-top: 0px; margin-bottom: 0px; font-size: 40px"";>&ensp;</p>","33","instructions","0","","","","","","","","","","","","","","","","","","","","",""
"","","","","","html-slider-response","12","85731","0.0-12.0","6b26cfa6-d1c6-4455-98b2-55b1783f2cd4","1639","
                    <p style=""text-align: center;"">₪18<br>35%</p>
                    <p id=""wtp"" style=""text-align:center; margin-top: 0px; margin-bottom: 0px; font-size: 40px"";>מוכנים לשלם: <span id=""c_p_y""></span></p>","12","instructions","8","","","","","","","","","","","","","","","","","","","","",""
"","","","","","html-keyboard-response","13","88250","0.0-13.0","6b26cfa6-d1c6-4455-98b2-55b1783f2cd4","null","<p>יפה. הפעם בחרתם לשלם לכל היותר ₪12.
                <br><br>לחצו על העכבר כדי להמשיך.</p>","1","instructions","","","","","","","","","","","","","","","","","","","","","",""
"","","","","","html-keyboard-response","14","89419","0.0-15.0","6b26cfa6-d1c6-4455-98b2-55b1783f2cd4","null","<p>כעת נתחיל את הניסוי.
                <br><br>אתם תראו הגרלות ותתבקשו לבחור כמה תהיו מוכנים לשלם כדי להשתתף בהן.
                <br>יש לכם תקציב של ₪80 עבור כל הגרלה.
                <br>בסוף הניסוי הגרלה אחת תבחר באקראי ותשוחק.
                <br><br>לחצו על העכבר כדי להתחיל את הניסוי.</p>","1","instructions","","","","","","","","","","","","","","","","","","","","","",""
"","","","","","html-keyboard-response","15","90673","0.0-16.0","6b26cfa6-d1c6-4455-98b2-55b1783f2cd4","null","<p style=""text-align: center;"">+</p>","null","fixation","","","","","","","","","","","","","","","","","","","","","",""
"","","","","","html-slider-response","16","91682","0.0-17.0-0.0","6b26cfa6-d1c6-4455-98b2-55b1783f2cd4","1000","
                  <p style=""text-align: center;"">₪36
                                                <br>30%</p>
                  <p id=""wtp"" style=""text-align:center; margin-top: 0px; margin-bottom: 0px; font-size: 40px"";>&ensp;</p>","-","viewing","0","11","3C,20A,22A","","","","","","","","","","","","","","","","","","",""
"","","","","","html-slider-response","17","93659","0.0-17.0-1.0","6b26cfa6-d1c6-4455-98b2-55b1783f2cd4","1976","
                  <p style=""text-align: center;"">₪36
                                                <br>30%</p>
                  <p id=""wtp"" style=""text-align:center; margin-top: 0px; margin-bottom: 0px; font-size: 40px"";>מוכנים לשלם: <span id=""c_p_y""></span></p>","15","evaluation","72","11","3C,20A,22A","30","36","16","","","","","","","","","","","","","","","",""
"","","","","","html-keyboard-response","18","94720","0.0-17.0-2.0","6b26cfa6-d1c6-4455-98b2-55b1783f2cd4","null","<p style=""text-align: center;"">+</p>","null","fixation","","","","","","","","","","","","","","","","","","","","","",""
"","","","","","html-slider-response","19","95729","0.0-17.0-0.1","6b26cfa6-d1c6-4455-98b2-55b1783f2cd4","1000","
                  <p style=""text-align: center;"">₪71
                                                <br>45%</p>
                  <p id=""wtp"" style=""text-align:center; margin-top: 0px; margin-bottom: 0px; font-size: 40px"";>&ensp;</p>","-","viewing","0","26","2B,16A","","","","","","","","","","","","","","","","","","",""
"","","","","","html-slider-response","20","96995","0.0-17.0-1.1","6b26cfa6-d1c6-4455-98b2-55b1783f2cd4","1264","
                  <p style=""text-align: center;"">₪71
                                                <br>45%</p>
                  <p id=""wtp"" style=""text-align:center; margin-top: 0px; margin-bottom: 0px; font-size: 40px"";>מוכנים לשלם: <span id=""c_p_y""></span></p>","22","evaluation","27","26","2B,16A","45","71","23","","","","","","","","","","","","","","","",""
"","","","","","html-keyboard-response","21","98179","0.0-17.0-2.1","6b26cfa6-d1c6-4455-98b2-55b1783f2cd4","null","<p style=""text-align: center;"">+</p>","null","fixation","","","","","","","","","","","","","","","","","","","","","",""
"","","","","","html-slider-response","22","99191","0.0-17.0-0.2","6b26cfa6-d1c6-4455-98b2-55b1783f2cd4","1000","
                  <p style=""text-align: center;"">₪18
                                                <br>25%</p>
                  <p id=""wtp"" style=""text-align:center; margin-top: 0px; margin-bottom: 0px; font-size: 40px"";>&ensp;</p>","-","viewing","0","9","14A,23A","","","","","","","","","","","","","","","","","","",""
"","","","","","html-slider-response","23","100459","0.0-17.0-1.2","6b26cfa6-d1c6-4455-98b2-55b1783f2cd4","1267","
                  <p style=""text-align: center;"">₪18
                                                <br>25%</p>
                  <p id=""wtp"" style=""text-align:center; margin-top: 0px; margin-bottom: 0px; font-size: 40px"";>מוכנים לשלם: <span id=""c_p_y""></span></p>","9","evaluation","41","9","14A,23A","25","18","10","","","","","","","","","","","","","","","",""
"","","","","","html-keyboard-response","24","101639","0.0-17.0-2.2","6b26cfa6-d1c6-4455-98b2-55b1783f2cd4","null","<p style=""text-align: center;"">+</p>","null","fixation","","","","","","","","","","","","","","","","","","","","","",""
"","","","","","html-slider-response","25","102644","0.0-17.0-0.3","6b26cfa6-d1c6-4455-98b2-55b1783f2cd4","1000","
                  <p style=""text-align: center;"">₪4
                                                <br>50%</p>
                  <p id=""wtp"" style=""text-align:center; margin-top: 0px; margin-bottom: 0px; font-size: 40px"";>&ensp;</p>","-","viewing","0","2","4C,17B","","","","","","","","","","","","","","","","","","",""
"","","","","","html-slider-response","26","103563","0.0-17.0-1.3","6b26cfa6-d1c6-4455-98b2-55b1783f2cd4","918","
                  <p style=""text-align: center;"">₪4
                                                <br>50%</p>
                  <p id=""wtp"" style=""text-align:center; margin-top: 0px; margin-bottom: 0px; font-size: 40px"";>מוכנים לשלם: <span id=""c_p_y""></span></p>","0","evaluation","29","2","4C,17B","50","4","1","","","","","","","","","","","","","","","",""
"","","","","","html-keyboard-response","27","104912","0.0-17.0-2.3","6b26cfa6-d1c6-4455-98b2-55b1783f2cd4","null","<p style=""text-align: center;"">+</p>","null","fixation","","","","","","","","","","","","","","","","","","","","","",""
"","","","","","html-slider-response","28","105928","0.0-17.0-0.4","6b26cfa6-d1c6-4455-98b2-55b1783f2cd4","1000","
                  <p style=""text-align: center;"">₪36
                                                <br>70%</p>
                  <p id=""wtp"" style=""text-align:center; margin-top: 0px; margin-bottom: 0px; font-size: 40px"";>&ensp;</p>","-","viewing","0","13","3A,5C,10B","","","","","","","","","","","","","","","","","","",""
"","","","","","html-slider-response","29","107643","0.0-17.0-1.4","6b26cfa6-d1c6-4455-98b2-55b1783f2cd4","1714","
                  <p style=""text-align: center;"">₪36
                                                <br>70%</p>
                  <p id=""wtp"" style=""text-align:center; margin-top: 0px; margin-bottom: 0px; font-size: 40px"";>מוכנים לשלם: <span id=""c_p_y""></span></p>","18","evaluation","38","13","3A,5C,10B","70","36","18","","","","","","","","","","","","","","","",""
"","","","","","html-keyboard-response","30","109113","0.0-17.0-2.4","6b26cfa6-d1c6-4455-98b2-55b1783f2cd4","null","<p style=""text-align: center;"">+</p>","null","fixation","","","","","","","","","","","","","","","","","","","","","",""
"","","","","","html-slider-response","31","110117","0.0-17.0-0.5","6b26cfa6-d1c6-4455-98b2-55b1783f2cd4","1000","
                  <p style=""text-align: center;"">₪43
                                                <br>75%</p>
                  <p id=""wtp"" style=""text-align:center; margin-top: 0px; margin-bottom: 0px; font-size: 40px"";>&ensp;</p>","-","viewing","0","18","11B,19B,24A,26A","","","","","","","","","","","","","","","","","","",""
"","","","","","html-slider-response","32","112043","0.0-17.0-1.5","6b26cfa6-d1c6-4455-98b2-55b1783f2cd4","1924","
                  <p style=""text-align: center;"">₪43
                                                <br>75%</p>
                  <p id=""wtp"" style=""text-align:center; margin-top: 0px; margin-bottom: 0px; font-size: 40px"";>מוכנים לשלם: <span id=""c_p_y""></span></p>","30","evaluation","29","18","11B,19B,24A,26A","75","43","30","","","","","","","","","","","","","","","",""
"","","","","","html-keyboard-response","33","113381","0.0-17.0-2.5","6b26cfa6-d1c6-4455-98b2-55b1783f2cd4","null","<p style=""text-align: center;"">+</p>","null","fixation","","","","","","","","","","","","","","","","","","","","","",""
"","","","","","html-slider-response","34","114394","0.0-17.0-0.6","6b26cfa6-d1c6-4455-98b2-55b1783f2cd4","1000","
                  <p style=""text-align: center;"">₪58
                                                <br>40%</p>
                  <p id=""wtp"" style=""text-align:center; margin-top: 0px; margin-bottom: 0px; font-size: 40px"";>&ensp;</p>","-","viewing","0","20","10C,13A,19C,21B","","","","","","","","","","","","","","","","","","",""
"","","","","","html-slider-response","35","115459","0.0-17.0-1.6","6b26cfa6-d1c6-4455-98b2-55b1783f2cd4","1064","
                  <p style=""text-align: center;"">₪58
                                                <br>40%</p>
                  <p id=""wtp"" style=""text-align:center; margin-top: 0px; margin-bottom: 0px; font-size: 40px"";>מוכנים לשלם: <span id=""c_p_y""></span></p>","20","evaluation","29","20","10C,13A,19C,21B","40","58","20","","","","","","","","","","","","","","","",""
"","","","","","html-keyboard-response","36","116149","0.0-17.0-2.6","6b26cfa6-d1c6-4455-98b2-55b1783f2cd4","null","<p style=""text-align: center;"">+</p>","null","fixation","","","","","","","","","","","","","","","","","","","","","",""
"","","","","","html-slider-response","37","117151","0.0-17.0-0.7","6b26cfa6-d1c6-4455-98b2-55b1783f2cd4","1000","
                  <p style=""text-align: center;"">₪4
                                                <br>25%</p>
                  <p id=""wtp"" style=""text-align:center; margin-top: 0px; margin-bottom: 0px; font-size: 40px"";>&ensp;</p>","-","viewing","0","1","6C,29B,30C","","","","","","","","","","","","","","","","","","",""
"","","","","","html-slider-response","38","118043","0.0-17.0-1.7","6b26cfa6-d1c6-4455-98b2-55b1783f2cd4","891","
                  <p style=""text-align: center;"">₪4
                                                <br>25%</p>
                  <p id=""wtp"" style=""text-align:center; margin-top: 0px; margin-bottom: 0px; font-size: 40px"";>מוכנים לשלם: <span id=""c_p_y""></span></p>","2","evaluation","72","1","6C,29B,30C","25","4","3","","","","","","","","","","","","","","","",""
"","","","","","html-keyboard-response","39","119472","0.0-17.0-2.7","6b26cfa6-d1c6-4455-98b2-55b1783f2cd4","null","<p style=""text-align: center;"">+</p>","null","fixation","","","","","","","","","","","","","","","","","","","","","",""
"","","","","","html-slider-response","40","120490","0.0-17.0-0.8","6b26cfa6-d1c6-4455-98b2-55b1783f2cd4","1000","
                  <p style=""text-align: center;"">₪39
                                                <br>65%</p>
                  <p id=""wtp"" style=""text-align:center; margin-top: 0px; margin-bottom: 0px; font-size: 40px"";>&ensp;</p>","-","viewing","0","16","1A,15A,26C","","","","","","","","","","","","","","","","","","",""
"","","","","","html-slider-response","41","123051","0.0-17.0-1.8","6b26cfa6-d1c6-4455-98b2-55b1783f2cd4","2561","
                  <p style=""text-align: center;"">₪39
                                                <br>65%</p>
                  <p id=""wtp"" style=""text-align:center; margin-top: 0px; margin-bottom: 0px; font-size: 40px"";>מוכנים לשלם: <span id=""c_p_y""></span></p>","21","evaluation","14","16","1A,15A,26C","65","39","21","","","","","","","","","","","","","","","",""
"","","","","","html-keyboard-response","42","123868","0.0-17.0-2.8","6b26cfa6-d1c6-4455-98b2-55b1783f2cd4","null","<p style=""text-align: center;"">+</p>","null","fixation","","","","","","","","","","","","","","","","","","","","","",""
"","","","","","html-slider-response","43","124873","0.0-17.0-0.9","6b26cfa6-d1c6-4455-98b2-55b1783f2cd4","1000","
                  <p style=""text-align: center;"">₪36
                                                <br>60%</p>
                  <p id=""wtp"" style=""text-align:center; margin-top: 0px; margin-bottom: 0px; font-size: 40px"";>&ensp;</p>","-","viewing","0","12","1C,7C,15C","","","","","","","","","","","","","","","","","","",""
"","","","","","html-slider-response","44","127971","0.0-17.0-1.9","6b26cfa6-d1c6-4455-98b2-55b1783f2cd4","3097","
                  <p style=""text-align: center;"">₪36
                                                <br>60%</p>
                  <p id=""wtp"" style=""text-align:center; margin-top: 0px; margin-bottom: 0px; font-size: 40px"";>מוכנים לשלם: <span id=""c_p_y""></span></p>","23","evaluation","57","12","1C,7C,15C","60","36","23","","","","","","","","","","","","","","","",""
"","","","","","html-keyboard-response","45","128912","0.0-17.0-2.9","6b26cfa6-d1c6-4455-98b2-55b1783f2cd4","null","<p style=""text-align: center;"">+</p>","null","fixation","","","","","","","","","","","","","","","","","","","","","",""
"","","","","","html-slider-response","46","129924","0.0-17.0-0.10","6b26cfa6-d1c6-4455-98b2-55b1783f2cd4","1000","
                  <p style=""text-align: center;"">₪11
                                                <br>25%</p>
                  <p id=""wtp"" style=""text-align:center; margin-top: 0px; margin-bottom: 0px; font-size: 40px"";>&ensp;</p>","-","viewing","0","5","12A,27B,28B,30B","","","","","","","","","","","","","","","","","","",""
"","","","","","html-slider-response","47","132179","0.0-17.0-1.10","6b26cfa6-d1c6-4455-98b2-55b1783f2cd4","2253","
                  <p style=""text-align: center;"">₪11
                                                <br>25%</p>
                  <p id=""wtp"" style=""text-align:center; margin-top: 0px; margin-bottom: 0px; font-size: 40px"";>מוכנים לשלם: <span id=""c_p_y""></span></p>","10","evaluation","22","5","12A,27B,28B,30B","25","11","10","","","","","","","","","","","","","","","",""
"","","","","","html-keyboard-response","48","133453","0.0-17.0-2.10","6b26cfa6-d1c6-4455-98b2-55b1783f2cd4","null","<p style=""text-align: center;"">+</p>","null","fixation","","","","","","","","","","","","","","","","","","","","","",""
"","","","","","html-slider-response","49","134469","0.0-17.0-0.11","6b26cfa6-d1c6-4455-98b2-55b1783f2cd4","1000","
                  <p style=""text-align: center;"">₪76
                                                <br>65%</p>
                  <p id=""wtp"" style=""text-align:center; margin-top: 0px; margin-bottom: 0px; font-size: 40px"";>&ensp;</p>","-","viewing","0","29","8C,19A,24B","","","","","","","","","","","","","","","","","","",""
"","","","","","html-slider-response","50","136499","0.0-17.0-1.11","6b26cfa6-d1c6-4455-98b2-55b1783f2cd4","2028","
                  <p style=""text-align: center;"">₪76
                                                <br>65%</p>
                  <p id=""wtp"" style=""text-align:center; margin-top: 0px; margin-bottom: 0px; font-size: 40px"";>מוכנים לשלם: <span id=""c_p_y""></span></p>","18","evaluation","31","29","8C,19A,24B","65","76","18","","","","","","","","","","","","","","","",""
"","","","","","html-keyboard-response","51","137964","0.0-17.0-2.11","6b26cfa6-d1c6-4455-98b2-55b1783f2cd4","null","<p style=""text-align: center;"">+</p>","null","fixation","","","","","","","","","","","","","","","","","","","","","",""
"","","","","","html-slider-response","52","138972","0.0-17.0-0.12","6b26cfa6-d1c6-4455-98b2-55b1783f2cd4","1000","
                  <p style=""text-align: center;"">₪58
                                                <br>45%</p>
                  <p id=""wtp"" style=""text-align:center; margin-top: 0px; margin-bottom: 0px; font-size: 40px"";>&ensp;</p>","-","viewing","0","21","11C,18C,25A","","","","","","","","","","","","","","","","","","",""
"","","","","","html-slider-response","53","140931","0.0-17.0-1.12","6b26cfa6-d1c6-4455-98b2-55b1783f2cd4","1957","
                  <p style=""text-align: center;"">₪58
                                                <br>45%</p>
                  <p id=""wtp"" style=""text-align:center; margin-top: 0px; margin-bottom: 0px; font-size: 40px"";>מוכנים לשלם: <span id=""c_p_y""></span></p>","12","evaluation","64","21","11C,18C,25A","45","58","12","","","","","","","","","","","","","","","",""
"","","","","","html-keyboard-response","54","141982","0.0-17.0-2.12","6b26cfa6-d1c6-4455-98b2-55b1783f2cd4","null","<p style=""text-align: center;"">+</p>","null","fixation","","","","","","","","","","","","","","","","","","","","","",""
"","","","","","html-slider-response","55","142993","0.0-17.0-0.13","6b26cfa6-d1c6-4455-98b2-55b1783f2cd4","1000","
                  <p style=""text-align: center;"">₪64
                                                <br>25%</p>
                  <p id=""wtp"" style=""text-align:center; margin-top: 0px; margin-bottom: 0px; font-size: 40px"";>&ensp;</p>","-","viewing","0","24","6A,21A","","","","","","","","","","","","","","","","","","",""
"","","","","","html-slider-response","56","144187","0.0-17.0-1.13","6b26cfa6-d1c6-4455-98b2-55b1783f2cd4","1193","
                  <p style=""text-align: center;"">₪64
                                                <br>25%</p>
                  <p id=""wtp"" style=""text-align:center; margin-top: 0px; margin-bottom: 0px; font-size: 40px"";>מוכנים לשלם: <span id=""c_p_y""></span></p>","8","evaluation","74","24","6A,21A","25","64","9","","","","","","","","","","","","","","","",""
"","","","","","html-keyboard-response","57","145527","0.0-17.0-2.13","6b26cfa6-d1c6-4455-98b2-55b1783f2cd4","null","<p style=""text-align: center;"">+</p>","null","fixation","","","","","","","","","","","","","","","","","","","","","",""
"","","","","","html-slider-response","58","146528","0.0-17.0-0.14","6b26cfa6-d1c6-4455-98b2-55b1783f2cd4","1000","
                  <p style=""text-align: center;"">₪43
                                                <br>60%</p>
                  <p id=""wtp"" style=""text-align:center; margin-top: 0px; margin-bottom: 0px; font-size: 40px"";>&ensp;</p>","-","viewing","0","17","2A,7A,9A,15B","","","","","","","","","","","","","","","","","","",""
"","","","","","html-slider-response","59","147451","0.0-17.0-1.14","6b26cfa6-d1c6-4455-98b2-55b1783f2cd4","921","
                  <p style=""text-align: center;"">₪43
                                                <br>60%</p>
                  <p id=""wtp"" style=""text-align:center; margin-top: 0px; margin-bottom: 0px; font-size: 40px"";>מוכנים לשלם: <span id=""c_p_y""></span></p>","19","evaluation","13","17","2A,7A,9A,15B","60","43","20","","","","","","","","","","","","","","","",""
"","","","","","html-keyboard-response","60","148279","0.0-17.0-2.14","6b26cfa6-d1c6-4455-98b2-55b1783f2cd4","null","<p style=""text-align: center;"">+</p>","null","fixation","","","","","","","","","","","","","","","","","","","","","",""
"","","","","","html-slider-response","61","149290","0.0-17.0-0.15","6b26cfa6-d1c6-4455-98b2-55b1783f2cd4","1000","
                  <p style=""text-align: center;"">₪79
                                                <br>40%</p>
                  <p id=""wtp"" style=""text-align:center; margin-top: 0px; margin-bottom: 0px; font-size: 40px"";>&ensp;</p>","-","viewing","0","30","9B","","","","","","","","","","","","","","","","","","",""
"","","","","","html-slider-response","62","150891","0.0-17.0-1.15","6b26cfa6-d1c6-4455-98b2-55b1783f2cd4","1600","
                  <p style=""text-align: center;"">₪79
                                                <br>40%</p>
                  <p id=""wtp"" style=""text-align:center; margin-top: 0px; margin-bottom: 0px; font-size: 40px"";>מוכנים לשלם: <span id=""c_p_y""></span></p>","13","evaluation","79","30","9B","40","79","13","","","","","","","","","","","","","","","",""
"","","","","","html-keyboard-response","63","151456","0.0-17.0-2.15","6b26cfa6-d1c6-4455-98b2-55b1783f2cd4","null","<p style=""text-align: center;"">+</p>","null","fixation","","","","","","","","","","","","","","","","","","","","","",""
"","","","","","html-slider-response","64","152466","0.0-17.0-0.16","6b26cfa6-d1c6-4455-98b2-55b1783f2cd4","1000","
                  <p style=""text-align: center;"">₪58
                                                <br>30%</p>
                  <p id=""wtp"" style=""text-align:center; margin-top: 0px; margin-bottom: 0px; font-size: 40px"";>&ensp;</p>","-","viewing","0","19","13C,30A","","","","","","","","","","","","","","","","","","",""
"","","","","","html-slider-response","65","155538","0.0-17.0-1.16","6b26cfa6-d1c6-4455-98b2-55b1783f2cd4","3071","
                  <p style=""text-align: center;"">₪58
                                                <br>30%</p>
                  <p id=""wtp"" style=""text-align:center; margin-top: 0px; margin-bottom: 0px; font-size: 40px"";>מוכנים לשלם: <span id=""c_p_y""></span></p>","11","evaluation","46","19","13C,30A","30","58","12","","","","","","","","","","","","","","","",""
"","","","","","html-keyboard-response","66","156933","0.0-17.0-2.16","6b26cfa6-d1c6-4455-98b2-55b1783f2cd4","null","<p style=""text-align: center;"">+</p>","null","fixation","","","","","","","","","","","","","","","","","","","","","",""
"","","","","","html-slider-response","67","157943","0.0-17.0-0.17","6b26cfa6-d1c6-4455-98b2-55b1783f2cd4","1000","
                  <p style=""text-align: center;"">₪39
                                                <br>60%</p>
                  <p id=""wtp"" style=""text-align:center; margin-top: 0px; margin-bottom: 0px; font-size: 40px"";>&ensp;</p>","-","viewing","0","15","9C,25B","","","","","","","","","","","","","","","","","","",""
"","","","","","html-slider-response","68","160755","0.0-17.0-1.17","6b26cfa6-d1c6-4455-98b2-55b1783f2cd4","2811","
                  <p style=""text-align: center;"">₪39
                                                <br>60%</p>
                  <p id=""wtp"" style=""text-align:center; margin-top: 0px; margin-bottom: 0px; font-size: 40px"";>מוכנים לשלם: <span id=""c_p_y""></span></p>","16","evaluation","32","15","9C,25B","60","39","16","","","","","","","","","","","","","","","",""
"","","","","","html-keyboard-response","69","161539","0.0-17.0-2.17","6b26cfa6-d1c6-4455-98b2-55b1783f2cd4","null","<p style=""text-align: center;"">+</p>","null","fixation","","","","","","","","","","","","","","","","","","","","","",""
"","","","","","html-slider-response","70","162543","0.0-17.0-0.18","6b26cfa6-d1c6-4455-98b2-55b1783f2cd4","1000","
                  <p style=""text-align: center;"">₪36
                                                <br>75%</p>
                  <p id=""wtp"" style=""text-align:center; margin-top: 0px; margin-bottom: 0px; font-size: 40px"";>&ensp;</p>","-","viewing","0","14","4B,5A,13B,16B","","","","","","","","","","","","","","","","","","",""
"","","","","","html-slider-response","71","164771","0.0-17.0-1.18","6b26cfa6-d1c6-4455-98b2-55b1783f2cd4","2226","
                  <p style=""text-align: center;"">₪36
                                                <br>75%</p>
                  <p id=""wtp"" style=""text-align:center; margin-top: 0px; margin-bottom: 0px; font-size: 40px"";>מוכנים לשלם: <span id=""c_p_y""></span></p>","12","evaluation","7","14","4B,5A,13B,16B","75","36","12","","","","","","","","","","","","","","","",""
"","","","","","html-keyboard-response","72","166169","0.0-17.0-2.18","6b26cfa6-d1c6-4455-98b2-55b1783f2cd4","null","<p style=""text-align: center;"">+</p>","null","fixation","","","","","","","","","","","","","","","","","","","","","",""
"","","","","","html-slider-response","73","167177","0.0-17.0-0.19","6b26cfa6-d1c6-4455-98b2-55b1783f2cd4","1000","
                  <p style=""text-align: center;"">₪4
                                                <br>75%</p>
                  <p id=""wtp"" style=""text-align:center; margin-top: 0px; margin-bottom: 0px; font-size: 40px"";>&ensp;</p>","-","viewing","0","3","12B,20B,23B,27C,29C","","","","","","","","","","","","","","","","","","",""
"","","","","","html-slider-response","74","169019","0.0-17.0-1.19","6b26cfa6-d1c6-4455-98b2-55b1783f2cd4","1841","
                  <p style=""text-align: center;"">₪4
                                                <br>75%</p>
                  <p id=""wtp"" style=""text-align:center; margin-top: 0px; margin-bottom: 0px; font-size: 40px"";>מוכנים לשלם: <span id=""c_p_y""></span></p>","2","evaluation","62","3","12B,20B,23B,27C,29C","75","4","3","","","","","","","","","","","","","","","",""
"","","","","","html-keyboard-response","75","170360","0.0-17.0-2.19","6b26cfa6-d1c6-4455-98b2-55b1783f2cd4","null","<p style=""text-align: center;"">+</p>","null","fixation","","","","","","","","","","","","","","","","","","","","","",""
"","","","","","html-slider-response","76","171366","0.0-17.0-0.20","6b26cfa6-d1c6-4455-98b2-55b1783f2cd4","1000","
                  <p style=""text-align: center;"">₪71
                                                <br>75%</p>
                  <p id=""wtp"" style=""text-align:center; margin-top: 0px; margin-bottom: 0px; font-size: 40px"";>&ensp;</p>","-","viewing","0","28","8B","","","","","","","","","","","","","","","","","","",""
"","","","","","html-slider-response","77","174459","0.0-17.0-1.20","6b26cfa6-d1c6-4455-98b2-55b1783f2cd4","3092","
                  <p style=""text-align: center;"">₪71
                                                <br>75%</p>
                  <p id=""wtp"" style=""text-align:center; margin-top: 0px; margin-bottom: 0px; font-size: 40px"";>מוכנים לשלם: <span id=""c_p_y""></span></p>","36","evaluation","30","28","8B","75","71","36","","","","","","","","","","","","","","","",""
"","","","","","html-keyboard-response","78","175785","0.0-17.0-2.20","6b26cfa6-d1c6-4455-98b2-55b1783f2cd4","null","<p style=""text-align: center;"">+</p>","null","fixation","","","","","","","","","","","","","","","","","","","","","",""
"","","","","","html-slider-response","79","176795","0.0-17.0-0.21","6b26cfa6-d1c6-4455-98b2-55b1783f2cd4","1000","
                  <p style=""text-align: center;"">₪11
                                                <br>20%</p>
                  <p id=""wtp"" style=""text-align:center; margin-top: 0px; margin-bottom: 0px; font-size: 40px"";>&ensp;</p>","-","viewing","0","4","12C,17C,23C,28C","","","","","","","","","","","","","","","","","","",""
"","","","","","html-slider-response","80","178931","0.0-17.0-1.21","6b26cfa6-d1c6-4455-98b2-55b1783f2cd4","2134","
                  <p style=""text-align: center;"">₪11
                                                <br>20%</p>
                  <p id=""wtp"" style=""text-align:center; margin-top: 0px; margin-bottom: 0px; font-size: 40px"";>מוכנים לשלם: <span id=""c_p_y""></span></p>","4","evaluation","73","4","12C,17C,23C,28C","20","11","5","","","","","","","","","","","","","","","",""
"","","","","","html-keyboard-response","81","180163","0.0-17.0-2.21","6b26cfa6-d1c6-4455-98b2-55b1783f2cd4","null","<p style=""text-align: center;"">+</p>","null","fixation","","","","","","","","","","","","","","","","","","","","","",""
"","","","","","html-slider-response","82","181165","0.0-17.0-0.22","6b26cfa6-d1c6-4455-98b2-55b1783f2cd4","1000","
                  <p style=""text-align: center;"">₪18
                                                <br>50%</p>
                  <p id=""wtp"" style=""text-align:center; margin-top: 0px; margin-bottom: 0px; font-size: 40px"";>&ensp;</p>","-","viewing","0","10","2C,16C,22B,28A","","","","","","","","","","","","","","","","","","",""
"","","","","","html-slider-response","83","182554","0.0-17.0-1.22","6b26cfa6-d1c6-4455-98b2-55b1783f2cd4","1389","
                  <p style=""text-align: center;"">₪18
                                                <br>50%</p>
                  <p id=""wtp"" style=""text-align:center; margin-top: 0px; margin-bottom: 0px; font-size: 40px"";>מוכנים לשלם: <span id=""c_p_y""></span></p>","11","evaluation","70","10","2C,16C,22B,28A","50","18","11","","","","","","","","","","","","","","","",""
"","","","","","html-keyboard-response","84","183433","0.0-17.0-2.22","6b26cfa6-d1c6-4455-98b2-55b1783f2cd4","null","<p style=""text-align: center;"">+</p>","null","fixation","","","","","","","","","","","","","","","","","","","","","",""
"","","","","","html-slider-response","85","184441","0.0-17.0-0.23","6b26cfa6-d1c6-4455-98b2-55b1783f2cd4","1000","
                  <p style=""text-align: center;"">₪79
                                                <br>65%</p>
                  <p id=""wtp"" style=""text-align:center; margin-top: 0px; margin-bottom: 0px; font-size: 40px"";>&ensp;</p>","-","viewing","0","31","8A","","","","","","","","","","","","","","","","","","",""
"","","","","","html-slider-response","86","186931","0.0-17.0-1.23","6b26cfa6-d1c6-4455-98b2-55b1783f2cd4","2489","
                  <p style=""text-align: center;"">₪79
                                                <br>65%</p>
                  <p id=""wtp"" style=""text-align:center; margin-top: 0px; margin-bottom: 0px; font-size: 40px"";>מוכנים לשלם: <span id=""c_p_y""></span></p>","22","evaluation","49","31","8A","65","79","22","","","","","","","","","","","","","","","",""
"","","","","","html-keyboard-response","87","187728","0.0-17.0-2.23","6b26cfa6-d1c6-4455-98b2-55b1783f2cd4","null","<p style=""text-align: center;"">+</p>","null","fixation","","","","","","","","","","","","","","","","","","","","","",""
"","","","","","html-slider-response","88","188733","0.0-17.0-0.24","6b26cfa6-d1c6-4455-98b2-55b1783f2cd4","1000","
                  <p style=""text-align: center;"">₪16
                                                <br>20%</p>
                  <p id=""wtp"" style=""text-align:center; margin-top: 0px; margin-bottom: 0px; font-size: 40px"";>&ensp;</p>","-","viewing","0","8","14C,17A,20C,27A","","","","","","","","","","","","","","","","","","",""
"","","","","","html-slider-response","89","191635","0.0-17.0-1.24","6b26cfa6-d1c6-4455-98b2-55b1783f2cd4","2900","
                  <p style=""text-align: center;"">₪16
                                                <br>20%</p>
                  <p id=""wtp"" style=""text-align:center; margin-top: 0px; margin-bottom: 0px; font-size: 40px"";>מוכנים לשלם: <span id=""c_p_y""></span></p>","7","evaluation","3","8","14C,17A,20C,27A","20","16","8","","","","","","","","","","","","","","","",""
"","","","","","html-keyboard-response","90","192300","0.0-17.0-2.24","6b26cfa6-d1c6-4455-98b2-55b1783f2cd4","null","<p style=""text-align: center;"">+</p>","null","fixation","","","","","","","","","","","","","","","","","","","","","",""
"","","","","","html-slider-response","91","193313","0.0-17.0-0.25","6b26cfa6-d1c6-4455-98b2-55b1783f2cd4","1000","
                  <p style=""text-align: center;"">₪71
                                                <br>55%</p>
                  <p id=""wtp"" style=""text-align:center; margin-top: 0px; margin-bottom: 0px; font-size: 40px"";>&ensp;</p>","-","viewing","0","27","5B,18A","","","","","","","","","","","","","","","","","","",""
"","","","","","html-slider-response","92","196211","0.0-17.0-1.25","6b26cfa6-d1c6-4455-98b2-55b1783f2cd4","2897","
                  <p style=""text-align: center;"">₪71
                                                <br>55%</p>
                  <p id=""wtp"" style=""text-align:center; margin-top: 0px; margin-bottom: 0px; font-size: 40px"";>מוכנים לשלם: <span id=""c_p_y""></span></p>","16","evaluation","38","27","5B,18A","55","71","17","","","","","","","","","","","","","","","",""
"","","","","","html-keyboard-response","93","197534","0.0-17.0-2.25","6b26cfa6-d1c6-4455-98b2-55b1783f2cd4","null","<p style=""text-align: center;"">+</p>","null","fixation","","","","","","","","","","","","","","","","","","","","","",""
"","","","","","html-slider-response","94","198540","0.0-17.0-0.26","6b26cfa6-d1c6-4455-98b2-55b1783f2cd4","1000","
                  <p style=""text-align: center;"">₪61
                                                <br>45%</p>
                  <p id=""wtp"" style=""text-align:center; margin-top: 0px; margin-bottom: 0px; font-size: 40px"";>&ensp;</p>","-","viewing","0","22","10A,11A","","","","","","","","","","","","","","","","","","",""
"","","","","","html-slider-response","95","200443","0.0-17.0-1.26","6b26cfa6-d1c6-4455-98b2-55b1783f2cd4","1902","
                  <p style=""text-align: center;"">₪61
                                                <br>45%</p>
                  <p id=""wtp"" style=""text-align:center; margin-top: 0px; margin-bottom: 0px; font-size: 40px"";>מוכנים לשלם: <span id=""c_p_y""></span></p>","22","evaluation","8","22","10A,11A","45","61","22","","","","","","","","","","","","","","","",""
"","","","","","html-keyboard-response","96","201504","0.0-17.0-2.26","6b26cfa6-d1c6-4455-98b2-55b1783f2cd4","null","<p style=""text-align: center;"">+</p>","null","fixation","","","","","","","","","","","","","","","","","","","","","",""
"","","","","","html-slider-response","97","202507","0.0-17.0-0.27","6b26cfa6-d1c6-4455-98b2-55b1783f2cd4","1000","
                  <p style=""text-align: center;"">₪11
                                                <br>75%</p>
                  <p id=""wtp"" style=""text-align:center; margin-top: 0px; margin-bottom: 0px; font-size: 40px"";>&ensp;</p>","-","viewing","0","7","6B,18B,22C,24C,29A","","","","","","","","","","","","","","","","","","",""
"","","","","","html-slider-response","98","205507","0.0-17.0-1.27","6b26cfa6-d1c6-4455-98b2-55b1783f2cd4","2998","
                  <p style=""text-align: center;"">₪11
                                                <br>75%</p>
                  <p id=""wtp"" style=""text-align:center; margin-top: 0px; margin-bottom: 0px; font-size: 40px"";>מוכנים לשלם: <span id=""c_p_y""></span></p>","6","evaluation","72","7","6B,18B,22C,24C,29A","75","11","7","","","","","","","","","","","","","","","",""
"","","","","","html-keyboard-response","99","206892","0.0-17.0-2.27","6b26cfa6-d1c6-4455-98b2-55b1783f2cd4","null","<p style=""text-align: center;"">+</p>","null","fixation","","","","","","","","","","","","","","","","","","","","","",""
"","","","","","html-slider-response","100","207904","0.0-17.0-0.28","6b26cfa6-d1c6-4455-98b2-55b1783f2cd4","1000","
                  <p style=""text-align: center;"">₪11
                                                <br>45%</p>
                  <p id=""wtp"" style=""text-align:center; margin-top: 0px; margin-bottom: 0px; font-size: 40px"";>&ensp;</p>","-","viewing","0","6","14B,21C,25C","","","","","","","","","","","","","","","","","","",""
"","","","","","html-slider-response","101","209811","0.0-17.0-1.28","6b26cfa6-d1c6-4455-98b2-55b1783f2cd4","1906","
                  <p style=""text-align: center;"">₪11
                                                <br>45%</p>
                  <p id=""wtp"" style=""text-align:center; margin-top: 0px; margin-bottom: 0px; font-size: 40px"";>מוכנים לשלם: <span id=""c_p_y""></span></p>","3","evaluation","66","6","14B,21C,25C","45","11","4","","","","","","","","","","","","","","","",""
"","","","","","html-keyboard-response","102","210571","0.0-17.0-2.28","6b26cfa6-d1c6-4455-98b2-55b1783f2cd4","null","<p style=""text-align: center;"">+</p>","null","fixation","","","","","","","","","","","","","","","","","","","","","",""
"","","","","","html-slider-response","103","211587","0.0-17.0-0.29","6b26cfa6-d1c6-4455-98b2-55b1783f2cd4","1000","
                  <p style=""text-align: center;"">₪64
                                                <br>50%</p>
                  <p id=""wtp"" style=""text-align:center; margin-top: 0px; margin-bottom: 0px; font-size: 40px"";>&ensp;</p>","-","viewing","0","25","1B,3B,4A","","","","","","","","","","","","","","","","","","",""
"","","","","","html-slider-response","104","215011","0.0-17.0-1.29","6b26cfa6-d1c6-4455-98b2-55b1783f2cd4","3422","
                  <p style=""text-align: center;"">₪64
                                                <br>50%</p>
                  <p id=""wtp"" style=""text-align:center; margin-top: 0px; margin-bottom: 0px; font-size: 40px"";>מוכנים לשלם: <span id=""c_p_y""></span></p>","12","evaluation","8","25","1B,3B,4A","50","64","12","","","","","","","","","","","","","","","",""
"","","","","","html-keyboard-response","105","216132","0.0-17.0-2.29","6b26cfa6-d1c6-4455-98b2-55b1783f2cd4","null","<p style=""text-align: center;"">+</p>","null","fixation","","","","","","","","","","","","","","","","","","","","","",""
"","","","","","html-slider-response","106","217137","0.0-17.0-0.30","6b26cfa6-d1c6-4455-98b2-55b1783f2cd4","1000","
                  <p style=""text-align: center;"">₪61
                                                <br>55%</p>
                  <p id=""wtp"" style=""text-align:center; margin-top: 0px; margin-bottom: 0px; font-size: 40px"";>&ensp;</p>","-","viewing","0","23","7B,26B","","","","","","","","","","","","","","","","","","",""
"","","","","","html-slider-response","107","218819","0.0-17.0-1.30","6b26cfa6-d1c6-4455-98b2-55b1783f2cd4","1681","
                  <p style=""text-align: center;"">₪61
                                                <br>55%</p>
                  <p id=""wtp"" style=""text-align:center; margin-top: 0px; margin-bottom: 0px; font-size: 40px"";>מוכנים לשלם: <span id=""c_p_y""></span></p>","11","evaluation","17","23","7B,26B","55","61","12","","","","","","","","","","","","","","","",""
"","","","","","html-keyboard-response","108","220061","0.0-17.0-2.30","6b26cfa6-d1c6-4455-98b2-55b1783f2cd4","null","<p style=""text-align: center;"">+</p>","null","fixation","","","","","","","","","","","","","","","","","","","","","",""
"","","","","","html-keyboard-response","109","221063","0.0-18.0","6b26cfa6-d1c6-4455-98b2-55b1783f2cd4","null","<p style=""text-align: center;"">+</p>","null","fixation","","","","","","","","","","","","","","","","","","","","","",""
"","","","","","html-keyboard-response","110","222363","0.0-19.0","6b26cfa6-d1c6-4455-98b2-55b1783f2cd4","null","<p>הפסקה.
          <br>לחצו כדי להמשיך.</p>","1","scan_wait","","","","","","","","","","","","","","","","","","","","","",""
"","","","","","html-keyboard-response","111","223373","0.0-20.0","6b26cfa6-d1c6-4455-98b2-55b1783f2cd4","null","<p style=""text-align: center;"">+</p>","null","fixation","","","","","","","","","","","","","","","","","","","","","",""
"","","","","","html-slider-response","112","224375","0.0-21.0-0.0","6b26cfa6-d1c6-4455-98b2-55b1783f2cd4","1000","
                  <p style=""text-align: center;"">₪71
                                                <br>55%</p>
                  <p id=""wtp"" style=""text-align:center; margin-top: 0px; margin-bottom: 0px; font-size: 40px"";>&ensp;</p>","-","viewing","0","27","5B,18A","","","","","","","","","","","","","","","","","","",""
"","","","","","html-slider-response","113","226131","0.0-21.0-1.0","6b26cfa6-d1c6-4455-98b2-55b1783f2cd4","1755","
                  <p style=""text-align: center;"">₪71
                                                <br>55%</p>
                  <p id=""wtp"" style=""text-align:center; margin-top: 0px; margin-bottom: 0px; font-size: 40px"";>מוכנים לשלם: <span id=""c_p_y""></span></p>","11","evaluation","4","27","5B,18A","55","71","11","","","","","","","","","","","","","","","",""
"","","","","","html-keyboard-response","114","227069","0.0-21.0-2.0","6b26cfa6-d1c6-4455-98b2-55b1783f2cd4","null","<p style=""text-align: center;"">+</p>","null","fixation","","","","","","","","","","","","","","","","","","","","","",""
"","","","","","html-slider-response","115","228084","0.0-21.0-0.1","6b26cfa6-d1c6-4455-98b2-55b1783f2cd4","1000","
                  <p style=""text-align: center;"">₪61
                                                <br>45%</p>
                  <p id=""wtp"" style=""text-align:center; margin-top: 0px; margin-bottom: 0px; font-size: 40px"";>&ensp;</p>","-","viewing","0","22","10A,11A","","","","","","","","","","","","","","","","","","",""
"","","","","","html-slider-response","116","229755","0.0-21.0-1.1","6b26cfa6-d1c6-4455-98b2-55b1783f2cd4","1669","
                  <p style=""text-align: center;"">₪61
                                                <br>45%</p>
                  <p id=""wtp"" style=""text-align:center; margin-top: 0px; margin-bottom: 0px; font-size: 40px"";>מוכנים לשלם: <span id=""c_p_y""></span></p>","11","evaluation","8","22","10A,11A","45","61","12","","","","","","","","","","","","","","","",""
"","","","","","html-keyboard-response","117","230727","0.0-21.0-2.1","6b26cfa6-d1c6-4455-98b2-55b1783f2cd4","null","<p style=""text-align: center;"">+</p>","null","fixation","","","","","","","","","","","","","","","","","","","","","",""
"","","","","","html-slider-response","118","231737","0.0-21.0-0.2","6b26cfa6-d1c6-4455-98b2-55b1783f2cd4","1000","
                  <p style=""text-align: center;"">₪18
                                                <br>50%</p>
                  <p id=""wtp"" style=""text-align:center; margin-top: 0px; margin-bottom: 0px; font-size: 40px"";>&ensp;</p>","-","viewing","0","10","2C,16C,22B,28A","","","","","","","","","","","","","","","","","","",""
"","","","","","html-slider-response","119","233651","0.0-21.0-1.2","6b26cfa6-d1c6-4455-98b2-55b1783f2cd4","1912","
                  <p style=""text-align: center;"">₪18
                                                <br>50%</p>
                  <p id=""wtp"" style=""text-align:center; margin-top: 0px; margin-bottom: 0px; font-size: 40px"";>מוכנים לשלם: <span id=""c_p_y""></span></p>","9","evaluation","34","10","2C,16C,22B,28A","50","18","10","","","","","","","","","","","","","","","",""
"","","","","","html-keyboard-response","120","234505","0.0-21.0-2.2","6b26cfa6-d1c6-4455-98b2-55b1783f2cd4","null","<p style=""text-align: center;"">+</p>","null","fixation","","","","","","","","","","","","","","","","","","","","","",""
"","","","","","html-slider-response","121","235522","0.0-21.0-0.3","6b26cfa6-d1c6-4455-98b2-55b1783f2cd4","1000","
                  <p style=""text-align: center;"">₪61
                                                <br>55%</p>
                  <p id=""wtp"" style=""text-align:center; margin-top: 0px; margin-bottom: 0px; font-size: 40px"";>&ensp;</p>","-","viewing","0","23","7B,26B","","","","","","","","","","","","","","","","","","",""
"","","","","","html-slider-response","122","237331","0.0-21.0-1.3","6b26cfa6-d1c6-4455-98b2-55b1783f2cd4","1809","
                  <p style=""text-align: center;"">₪61
                                                <br>55%</p>
                  <p id=""wtp"" style=""text-align:center; margin-top: 0px; margin-bottom: 0px; font-size: 40px"";>מוכנים לשלם: <span id=""c_p_y""></span></p>","11","evaluation","43","23","7B,26B","55","61","11","","","","","","","","","","","","","","","",""
"","","","","","html-keyboard-response","123","238034","0.0-21.0-2.3","6b26cfa6-d1c6-4455-98b2-55b1783f2cd4","null","<p style=""text-align: center;"">+</p>","null","fixation","","","","","","","","","","","","","","","","","","","","","",""
"","","","","","html-slider-response","124","239040","0.0-21.0-0.4","6b26cfa6-d1c6-4455-98b2-55b1783f2cd4","1000","
                  <p style=""text-align: center;"">₪36
                                                <br>70%</p>
                  <p id=""wtp"" style=""text-align:center; margin-top: 0px; margin-bottom: 0px; font-size: 40px"";>&ensp;</p>","-","viewing","0","13","3A,5C,10B","","","","","","","","","","","","","","","","","","",""
"","","","","","html-slider-response","125","243019","0.0-21.0-1.4","6b26cfa6-d1c6-4455-98b2-55b1783f2cd4","3977","
                  <p style=""text-align: center;"">₪36
                                                <br>70%</p>
                  <p id=""wtp"" style=""text-align:center; margin-top: 0px; margin-bottom: 0px; font-size: 40px"";>מוכנים לשלם: <span id=""c_p_y""></span></p>","11","evaluation","13","13","3A,5C,10B","70","36","11","","","","","","","","","","","","","","","",""
"","","","","","html-keyboard-response","126","244286","0.0-21.0-2.4","6b26cfa6-d1c6-4455-98b2-55b1783f2cd4","null","<p style=""text-align: center;"">+</p>","null","fixation","","","","","","","","","","","","","","","","","","","","","",""
"","","","","","html-slider-response","127","245302","0.0-21.0-0.5","6b26cfa6-d1c6-4455-98b2-55b1783f2cd4","1000","
                  <p style=""text-align: center;"">₪43
                                                <br>60%</p>
                  <p id=""wtp"" style=""text-align:center; margin-top: 0px; margin-bottom: 0px; font-size: 40px"";>&ensp;</p>","-","viewing","0","17","2A,7A,9A,15B","","","","","","","","","","","","","","","","","","",""
"","","","","","html-slider-response","128","248579","0.0-21.0-1.5","6b26cfa6-d1c6-4455-98b2-55b1783f2cd4","3275","
                  <p style=""text-align: center;"">₪43
                                                <br>60%</p>
                  <p id=""wtp"" style=""text-align:center; margin-top: 0px; margin-bottom: 0px; font-size: 40px"";>מוכנים לשלם: <span id=""c_p_y""></span></p>","15","evaluation","8","17","2A,7A,9A,15B","60","43","15","","","","","","","","","","","","","","","",""
"","","","","","html-keyboard-response","129","249798","0.0-21.0-2.5","6b26cfa6-d1c6-4455-98b2-55b1783f2cd4","null","<p style=""text-align: center;"">+</p>","null","fixation","","","","","","","","","","","","","","","","","","","","","",""
"","","","","","html-slider-response","130","250806","0.0-21.0-0.6","6b26cfa6-d1c6-4455-98b2-55b1783f2cd4","1000","
                  <p style=""text-align: center;"">₪16
                                                <br>20%</p>
                  <p id=""wtp"" style=""text-align:center; margin-top: 0px; margin-bottom: 0px; font-size: 40px"";>&ensp;</p>","-","viewing","0","8","14C,17A,20C,27A","","","","","","","","","","","","","","","","","","",""
"","","","","","html-slider-response","131","254347","0.0-21.0-1.6","6b26cfa6-d1c6-4455-98b2-55b1783f2cd4","3539","
                  <p style=""text-align: center;"">₪16
                                                <br>20%</p>
                  <p id=""wtp"" style=""text-align:center; margin-top: 0px; margin-bottom: 0px; font-size: 40px"";>מוכנים לשלם: <span id=""c_p_y""></span></p>","8","evaluation","65","8","14C,17A,20C,27A","20","16","8","","","","","","","","","","","","","","","",""
"","","","","","html-keyboard-response","132","254870","0.0-21.0-2.6","6b26cfa6-d1c6-4455-98b2-55b1783f2cd4","null","<p style=""text-align: center;"">+</p>","null","fixation","","","","","","","","","","","","","","","","","","","","","",""
"","","","","","html-slider-response","133","255881","0.0-21.0-0.7","6b26cfa6-d1c6-4455-98b2-55b1783f2cd4","1000","
                  <p style=""text-align: center;"">₪58
                                                <br>45%</p>
                  <p id=""wtp"" style=""text-align:center; margin-top: 0px; margin-bottom: 0px; font-size: 40px"";>&ensp;</p>","-","viewing","0","21","11C,18C,25A","","","","","","","","","","","","","","","","","","",""
"","","","","","html-slider-response","134","258659","0.0-21.0-1.7","6b26cfa6-d1c6-4455-98b2-55b1783f2cd4","2776","
                  <p style=""text-align: center;"">₪58
                                                <br>45%</p>
                  <p id=""wtp"" style=""text-align:center; margin-top: 0px; margin-bottom: 0px; font-size: 40px"";>מוכנים לשלם: <span id=""c_p_y""></span></p>","15","evaluation","30","21","11C,18C,25A","45","58","15","","","","","","","","","","","","","","","",""
"","","","","","html-keyboard-response","135","260028","0.0-21.0-2.7","6b26cfa6-d1c6-4455-98b2-55b1783f2cd4","null","<p style=""text-align: center;"">+</p>","null","fixation","","","","","","","","","","","","","","","","","","","","","",""
"","","","","","html-slider-response","136","261044","0.0-21.0-0.8","6b26cfa6-d1c6-4455-98b2-55b1783f2cd4","1000","
                  <p style=""text-align: center;"">₪79
                                                <br>40%</p>
                  <p id=""wtp"" style=""text-align:center; margin-top: 0px; margin-bottom: 0px; font-size: 40px"";>&ensp;</p>","-","viewing","0","30","9B","","","","","","","","","","","","","","","","","","",""
"","","","","","html-slider-response","137","264099","0.0-21.0-1.8","6b26cfa6-d1c6-4455-98b2-55b1783f2cd4","3054","
                  <p style=""text-align: center;"">₪79
                                                <br>40%</p>
                  <p id=""wtp"" style=""text-align:center; margin-top: 0px; margin-bottom: 0px; font-size: 40px"";>מוכנים לשלם: <span id=""c_p_y""></span></p>","14","evaluation","49","30","9B","40","79","15","","","","","","","","","","","","","","","",""
"","","","","","html-keyboard-response","138","265211","0.0-21.0-2.8","6b26cfa6-d1c6-4455-98b2-55b1783f2cd4","null","<p style=""text-align: center;"">+</p>","null","fixation","","","","","","","","","","","","","","","","","","","","","",""
"","","","","","html-slider-response","139","266228","0.0-21.0-0.9","6b26cfa6-d1c6-4455-98b2-55b1783f2cd4","1000","
                  <p style=""text-align: center;"">₪11
                                                <br>25%</p>
                  <p id=""wtp"" style=""text-align:center; margin-top: 0px; margin-bottom: 0px; font-size: 40px"";>&ensp;</p>","-","viewing","0","5","12A,27B,28B,30B","","","","","","","","","","","","","","","","","","",""
"","","","","","html-slider-response","140","268011","0.0-21.0-1.9","6b26cfa6-d1c6-4455-98b2-55b1783f2cd4","1781","
                  <p style=""text-align: center;"">₪11
                                                <br>25%</p>
                  <p id=""wtp"" style=""text-align:center; margin-top: 0px; margin-bottom: 0px; font-size: 40px"";>מוכנים לשלם: <span id=""c_p_y""></span></p>","10","evaluation","40","5","12A,27B,28B,30B","25","11","11","","","","","","","","","","","","","","","",""
"","","","","","html-keyboard-response","141","269161","0.0-21.0-2.9","6b26cfa6-d1c6-4455-98b2-55b1783f2cd4","null","<p style=""text-align: center;"">+</p>","null","fixation","","","","","","","","","","","","","","","","","","","","","",""
"","","","","","html-slider-response","142","270164","0.0-21.0-0.10","6b26cfa6-d1c6-4455-98b2-55b1783f2cd4","1000","
                  <p style=""text-align: center;"">₪58
                                                <br>30%</p>
                  <p id=""wtp"" style=""text-align:center; margin-top: 0px; margin-bottom: 0px; font-size: 40px"";>&ensp;</p>","-","viewing","0","19","13C,30A","","","","","","","","","","","","","","","","","","",""
"","","","","","html-slider-response","143","271523","0.0-21.0-1.10","6b26cfa6-d1c6-4455-98b2-55b1783f2cd4","1357","
                  <p style=""text-align: center;"">₪58
                                                <br>30%</p>
                  <p id=""wtp"" style=""text-align:center; margin-top: 0px; margin-bottom: 0px; font-size: 40px"";>מוכנים לשלם: <span id=""c_p_y""></span></p>","11","evaluation","31","19","13C,30A","30","58","11","","","","","","","","","","","","","","","",""
"","","","","","html-keyboard-response","144","272652","0.0-21.0-2.10","6b26cfa6-d1c6-4455-98b2-55b1783f2cd4","null","<p style=""text-align: center;"">+</p>","null","fixation","","","","","","","","","","","","","","","","","","","","","",""
"","","","","","html-slider-response","145","273664","0.0-21.0-0.11","6b26cfa6-d1c6-4455-98b2-55b1783f2cd4","1000","
                  <p style=""text-align: center;"">₪39
                                                <br>65%</p>
                  <p id=""wtp"" style=""text-align:center; margin-top: 0px; margin-bottom: 0px; font-size: 40px"";>&ensp;</p>","-","viewing","0","16","1A,15A,26C","","","","","","","","","","","","","","","","","","",""
"","","","","","html-slider-response","146","276395","0.0-21.0-1.11","6b26cfa6-d1c6-4455-98b2-55b1783f2cd4","2729","
                  <p style=""text-align: center;"">₪39
                                                <br>65%</p>
                  <p id=""wtp"" style=""text-align:center; margin-top: 0px; margin-bottom: 0px; font-size: 40px"";>מוכנים לשלם: <span id=""c_p_y""></span></p>","17","evaluation","38","16","1A,15A,26C","65","39","17","","","","","","","","","","","","","","","",""
"","","","","","html-keyboard-response","147","277896","0.0-21.0-2.11","6b26cfa6-d1c6-4455-98b2-55b1783f2cd4","null","<p style=""text-align: center;"">+</p>","null","fixation","","","","","","","","","","","","","","","","","","","","","",""
"","","","","","html-slider-response","148","278903","0.0-21.0-0.12","6b26cfa6-d1c6-4455-98b2-55b1783f2cd4","1000","
                  <p style=""text-align: center;"">₪36
                                                <br>30%</p>
                  <p id=""wtp"" style=""text-align:center; margin-top: 0px; margin-bottom: 0px; font-size: 40px"";>&ensp;</p>","-","viewing","0","11","3C,20A,22A","","","","","","","","","","","","","","","","","","",""
"","","","","","html-slider-response","149","281211","0.0-21.0-1.12","6b26cfa6-d1c6-4455-98b2-55b1783f2cd4","2306","
                  <p style=""text-align: center;"">₪36
                                                <br>30%</p>
                  <p id=""wtp"" style=""text-align:center; margin-top: 0px; margin-bottom: 0px; font-size: 40px"";>מוכנים לשלם: <span id=""c_p_y""></span></p>","11","evaluation","48","11","3C,20A,22A","30","36","12","","","","","","","","","","","","","","","",""
"","","","","","html-keyboard-response","150","281771","0.0-21.0-2.12","6b26cfa6-d1c6-4455-98b2-55b1783f2cd4","null","<p style=""text-align: center;"">+</p>","null","fixation","","","","","","","","","","","","","","","","","","","","","",""
"","","","","","html-slider-response","151","282775","0.0-21.0-0.13","6b26cfa6-d1c6-4455-98b2-55b1783f2cd4","1000","
                  <p style=""text-align: center;"">₪11
                                                <br>45%</p>
                  <p id=""wtp"" style=""text-align:center; margin-top: 0px; margin-bottom: 0px; font-size: 40px"";>&ensp;</p>","-","viewing","0","6","14B,21C,25C","","","","","","","","","","","","","","","","","","",""
"","","","","","html-slider-response","152","284906","0.0-21.0-1.13","6b26cfa6-d1c6-4455-98b2-55b1783f2cd4","2131","
                  <p style=""text-align: center;"">₪11
                                                <br>45%</p>
                  <p id=""wtp"" style=""text-align:center; margin-top: 0px; margin-bottom: 0px; font-size: 40px"";>מוכנים לשלם: <span id=""c_p_y""></span></p>","10","evaluation","13","6","14B,21C,25C","45","11","10","","","","","","","","","","","","","","","",""
"","","","","","html-keyboard-response","153","285468","0.0-21.0-2.13","6b26cfa6-d1c6-4455-98b2-55b1783f2cd4","null","<p style=""text-align: center;"">+</p>","null","fixation","","","","","","","","","","","","","","","","","","","","","",""
"","","","","","html-slider-response","154","286470","0.0-21.0-0.14","6b26cfa6-d1c6-4455-98b2-55b1783f2cd4","1000","
                  <p style=""text-align: center;"">₪64
                                                <br>50%</p>
                  <p id=""wtp"" style=""text-align:center; margin-top: 0px; margin-bottom: 0px; font-size: 40px"";>&ensp;</p>","-","viewing","0","25","1B,3B,4A","","","","","","","","","","","","","","","","","","",""
"","","","","","html-slider-response","155","289066","0.0-21.0-1.14","6b26cfa6-d1c6-4455-98b2-55b1783f2cd4","2595","
                  <p style=""text-align: center;"">₪64
                                                <br>50%</p>
                  <p id=""wtp"" style=""text-align:center; margin-top: 0px; margin-bottom: 0px; font-size: 40px"";>מוכנים לשלם: <span id=""c_p_y""></span></p>","19","evaluation","34","25","1B,3B,4A","50","64","20","","","","","","","","","","","","","","","",""
"","","","","","html-keyboard-response","156","290372","0.0-21.0-2.14","6b26cfa6-d1c6-4455-98b2-55b1783f2cd4","null","<p style=""text-align: center;"">+</p>","null","fixation","","","","","","","","","","","","","","","","","","","","","",""
"","","","","","html-slider-response","157","291387","0.0-21.0-0.15","6b26cfa6-d1c6-4455-98b2-55b1783f2cd4","1000","
                  <p style=""text-align: center;"">₪11
                                                <br>20%</p>
                  <p id=""wtp"" style=""text-align:center; margin-top: 0px; margin-bottom: 0px; font-size: 40px"";>&ensp;</p>","-","viewing","0","4","12C,17C,23C,28C","","","","","","","","","","","","","","","","","","",""
"","","","","","html-slider-response","158","295401","0.0-21.0-1.15","6b26cfa6-d1c6-4455-98b2-55b1783f2cd4","null","
                  <p style=""text-align: center;"">₪11
                                                <br>20%</p>
                  <p id=""wtp"" style=""text-align:center; margin-top: 0px; margin-bottom: 0px; font-size: 40px"";>מוכנים לשלם: <span id=""c_p_y""></span></p>","null","evaluation","43","4","12C,17C,23C,28C","20","11","4","","","","","","","","","","","","","","","",""
"","","","","","html-keyboard-response","159","296465","0.0-21.0-2.15","6b26cfa6-d1c6-4455-98b2-55b1783f2cd4","null","<p style=""text-align: center;"">+</p>","null","fixation","","","","","","","","","","","","","","","","","","","","","",""
"","","","","","html-slider-response","160","297467","0.0-21.0-0.16","6b26cfa6-d1c6-4455-98b2-55b1783f2cd4","1000","
                  <p style=""text-align: center;"">₪4
                                                <br>25%</p>
                  <p id=""wtp"" style=""text-align:center; margin-top: 0px; margin-bottom: 0px; font-size: 40px"";>&ensp;</p>","-","viewing","0","1","6C,29B,30C","","","","","","","","","","","","","","","","","","",""
"","","","","","html-slider-response","161","298995","0.0-21.0-1.16","6b26cfa6-d1c6-4455-98b2-55b1783f2cd4","1527","
                  <p style=""text-align: center;"">₪4
                                                <br>25%</p>
                  <p id=""wtp"" style=""text-align:center; margin-top: 0px; margin-bottom: 0px; font-size: 40px"";>מוכנים לשלם: <span id=""c_p_y""></span></p>","1","evaluation","62","1","6C,29B,30C","25","4","2","","","","","","","","","","","","","","","",""
"","","","","","html-keyboard-response","162","300262","0.0-21.0-2.16","6b26cfa6-d1c6-4455-98b2-55b1783f2cd4","null","<p style=""text-align: center;"">+</p>","null","fixation","","","","","","","","","","","","","","","","","","","","","",""
"","","","","","html-slider-response","163","301271","0.0-21.0-0.17","6b26cfa6-d1c6-4455-98b2-55b1783f2cd4","1000","
                  <p style=""text-align: center;"">₪36
                                                <br>75%</p>
                  <p id=""wtp"" style=""text-align:center; margin-top: 0px; margin-bottom: 0px; font-size: 40px"";>&ensp;</p>","-","viewing","0","14","4B,5A,13B,16B","","","","","","","","","","","","","","","","","","",""
"","","","","","html-slider-response","164","303219","0.0-21.0-1.17","6b26cfa6-d1c6-4455-98b2-55b1783f2cd4","1946","
                  <p style=""text-align: center;"">₪36
                                                <br>75%</p>
                  <p id=""wtp"" style=""text-align:center; margin-top: 0px; margin-bottom: 0px; font-size: 40px"";>מוכנים לשלם: <span id=""c_p_y""></span></p>","9","evaluation","12","14","4B,5A,13B,16B","75","36","9","","","","","","","","","","","","","","","",""
"","","","","","html-keyboard-response","165","304679","0.0-21.0-2.17","6b26cfa6-d1c6-4455-98b2-55b1783f2cd4","null","<p style=""text-align: center;"">+</p>","null","fixation","","","","","","","","","","","","","","","","","","","","","",""
"","","","","","html-slider-response","166","305687","0.0-21.0-0.18","6b26cfa6-d1c6-4455-98b2-55b1783f2cd4","1000","
                  <p style=""text-align: center;"">₪76
                                                <br>65%</p>
                  <p id=""wtp"" style=""text-align:center; margin-top: 0px; margin-bottom: 0px; font-size: 40px"";>&ensp;</p>","-","viewing","0","29","8C,19A,24B","","","","","","","","","","","","","","","","","","",""
"","","","","","html-slider-response","167","306538","0.0-21.0-1.18","6b26cfa6-d1c6-4455-98b2-55b1783f2cd4","850","
                  <p style=""text-align: center;"">₪76
                                                <br>65%</p>
                  <p id=""wtp"" style=""text-align:center; margin-top: 0px; margin-bottom: 0px; font-size: 40px"";>מוכנים לשלם: <span id=""c_p_y""></span></p>","22","evaluation","49","29","8C,19A,24B","65","76","22","","","","","","","","","","","","","","","",""
"","","","","","html-keyboard-response","168","307728","0.0-21.0-2.18","6b26cfa6-d1c6-4455-98b2-55b1783f2cd4","null","<p style=""text-align: center;"">+</p>","null","fixation","","","","","","","","","","","","","","","","","","","","","",""
"","","","","","html-slider-response","169","308730","0.0-21.0-0.19","6b26cfa6-d1c6-4455-98b2-55b1783f2cd4","1000","
                  <p style=""text-align: center;"">₪71
                                                <br>75%</p>
                  <p id=""wtp"" style=""text-align:center; margin-top: 0px; margin-bottom: 0px; font-size: 40px"";>&ensp;</p>","-","viewing","0","28","8B","","","","","","","","","","","","","","","","","","",""
"","","","","","html-slider-response","170","310659","0.0-21.0-1.19","6b26cfa6-d1c6-4455-98b2-55b1783f2cd4","1927","
                  <p style=""text-align: center;"">₪71
                                                <br>75%</p>
                  <p id=""wtp"" style=""text-align:center; margin-top: 0px; margin-bottom: 0px; font-size: 40px"";>מוכנים לשלם: <span id=""c_p_y""></span></p>","25","evaluation","57","28","8B","75","71","25","","","","","","","","","","","","","","","",""
"","","","","","html-keyboard-response","171","311343","0.0-21.0-2.19","6b26cfa6-d1c6-4455-98b2-55b1783f2cd4","null","<p style=""text-align: center;"">+</p>","null","fixation","","","","","","","","","","","","","","","","","","","","","",""
"","","","","","html-slider-response","172","312357","0.0-21.0-0.20","6b26cfa6-d1c6-4455-98b2-55b1783f2cd4","1000","
                  <p style=""text-align: center;"">₪18
                                                <br>25%</p>
                  <p id=""wtp"" style=""text-align:center; margin-top: 0px; margin-bottom: 0px; font-size: 40px"";>&ensp;</p>","-","viewing","0","9","14A,23A","","","","","","","","","","","","","","","","","","",""
"","","","","","html-slider-response","173","313651","0.0-21.0-1.20","6b26cfa6-d1c6-4455-98b2-55b1783f2cd4","1292","
                  <p style=""text-align: center;"">₪18
                                                <br>25%</p>
                  <p id=""wtp"" style=""text-align:center; margin-top: 0px; margin-bottom: 0px; font-size: 40px"";>מוכנים לשלם: <span id=""c_p_y""></span></p>","12","evaluation","40","9","14A,23A","25","18","13","","","","","","","","","","","","","","","",""
"","","","","","html-keyboard-response","174","314366","0.0-21.0-2.20","6b26cfa6-d1c6-4455-98b2-55b1783f2cd4","null","<p style=""text-align: center;"">+</p>","null","fixation","","","","","","","","","","","","","","","","","","","","","",""
"","","","","","html-slider-response","175","315368","0.0-21.0-0.21","6b26cfa6-d1c6-4455-98b2-55b1783f2cd4","1000","
                  <p style=""text-align: center;"">₪71
                                                <br>45%</p>
                  <p id=""wtp"" style=""text-align:center; margin-top: 0px; margin-bottom: 0px; font-size: 40px"";>&ensp;</p>","-","viewing","0","26","2B,16A","","","","","","","","","","","","","","","","","","",""
"","","","","","html-slider-response","176","317106","0.0-21.0-1.21","6b26cfa6-d1c6-4455-98b2-55b1783f2cd4","1737","
                  <p style=""text-align: center;"">₪71
                                                <br>45%</p>
                  <p id=""wtp"" style=""text-align:center; margin-top: 0px; margin-bottom: 0px; font-size: 40px"";>מוכנים לשלם: <span id=""c_p_y""></span></p>","14","evaluation","11","26","2B,16A","45","71","14","","","","","","","","","","","","","","","",""
"","","","","","html-keyboard-response","177","317961","0.0-21.0-2.21","6b26cfa6-d1c6-4455-98b2-55b1783f2cd4","null","<p style=""text-align: center;"">+</p>","null","fixation","","","","","","","","","","","","","","","","","","","","","",""
"","","","","","html-slider-response","178","318963","0.0-21.0-0.22","6b26cfa6-d1c6-4455-98b2-55b1783f2cd4","1000","
                  <p style=""text-align: center;"">₪43
                                                <br>75%</p>
                  <p id=""wtp"" style=""text-align:center; margin-top: 0px; margin-bottom: 0px; font-size: 40px"";>&ensp;</p>","-","viewing","0","18","11B,19B,24A,26A","","","","","","","","","","","","","","","","","","",""
"","","","","","html-slider-response","179","322026","0.0-21.0-1.22","6b26cfa6-d1c6-4455-98b2-55b1783f2cd4","3062","
                  <p style=""text-align: center;"">₪43
                                                <br>75%</p>
                  <p id=""wtp"" style=""text-align:center; margin-top: 0px; margin-bottom: 0px; font-size: 40px"";>מוכנים לשלם: <span id=""c_p_y""></span></p>","10","evaluation","31","18","11B,19B,24A,26A","75","43","10","","","","","","","","","","","","","","","",""
"","","","","","html-keyboard-response","180","323211","0.0-21.0-2.22","6b26cfa6-d1c6-4455-98b2-55b1783f2cd4","null","<p style=""text-align: center;"">+</p>","null","fixation","","","","","","","","","","","","","","","","","","","","","",""
"","","","","","html-slider-response","181","324212","0.0-21.0-0.23","6b26cfa6-d1c6-4455-98b2-55b1783f2cd4","1000","
                  <p style=""text-align: center;"">₪58
                                                <br>40%</p>
                  <p id=""wtp"" style=""text-align:center; margin-top: 0px; margin-bottom: 0px; font-size: 40px"";>&ensp;</p>","-","viewing","0","20","10C,13A,19C,21B","","","","","","","","","","","","","","","","","","",""
"","","","","","html-slider-response","182","326282","0.0-21.0-1.23","6b26cfa6-d1c6-4455-98b2-55b1783f2cd4","2069","
                  <p style=""text-align: center;"">₪58
                                                <br>40%</p>
                  <p id=""wtp"" style=""text-align:center; margin-top: 0px; margin-bottom: 0px; font-size: 40px"";>מוכנים לשלם: <span id=""c_p_y""></span></p>","12","evaluation","28","20","10C,13A,19C,21B","40","58","12","","","","","","","","","","","","","","","",""
"","","","","","html-keyboard-response","183","327210","0.0-21.0-2.23","6b26cfa6-d1c6-4455-98b2-55b1783f2cd4","null","<p style=""text-align: center;"">+</p>","null","fixation","","","","","","","","","","","","","","","","","","","","","",""
"","","","","","html-slider-response","184","328222","0.0-21.0-0.24","6b26cfa6-d1c6-4455-98b2-55b1783f2cd4","1000","
                  <p style=""text-align: center;"">₪36
                                                <br>60%</p>
                  <p id=""wtp"" style=""text-align:center; margin-top: 0px; margin-bottom: 0px; font-size: 40px"";>&ensp;</p>","-","viewing","0","12","1C,7C,15C","","","","","","","","","","","","","","","","","","",""
"","","","","","html-slider-response","185","329307","0.0-21.0-1.24","6b26cfa6-d1c6-4455-98b2-55b1783f2cd4","1083","
                  <p style=""text-align: center;"">₪36
                                                <br>60%</p>
                  <p id=""wtp"" style=""text-align:center; margin-top: 0px; margin-bottom: 0px; font-size: 40px"";>מוכנים לשלם: <span id=""c_p_y""></span></p>","9","evaluation","50","12","1C,7C,15C","60","36","10","","","","","","","","","","","","","","","",""
"","","","","","html-keyboard-response","186","330326","0.0-21.0-2.24","6b26cfa6-d1c6-4455-98b2-55b1783f2cd4","null","<p style=""text-align: center;"">+</p>","null","fixation","","","","","","","","","","","","","","","","","","","","","",""
"","","","","","html-slider-response","187","331328","0.0-21.0-0.25","6b26cfa6-d1c6-4455-98b2-55b1783f2cd4","1000","
                  <p style=""text-align: center;"">₪64
                                                <br>25%</p>
                  <p id=""wtp"" style=""text-align:center; margin-top: 0px; margin-bottom: 0px; font-size: 40px"";>&ensp;</p>","-","viewing","0","24","6A,21A","","","","","","","","","","","","","","","","","","",""
"","","","","","html-slider-response","188","332834","0.0-21.0-1.25","6b26cfa6-d1c6-4455-98b2-55b1783f2cd4","1505","
                  <p style=""text-align: center;"">₪64
                                                <br>25%</p>
                  <p id=""wtp"" style=""text-align:center; margin-top: 0px; margin-bottom: 0px; font-size: 40px"";>מוכנים לשלם: <span id=""c_p_y""></span></p>","11","evaluation","18","24","6A,21A","25","64","12","","","","","","","","","","","","","","","",""
"","","","","","html-keyboard-response","189","333723","0.0-21.0-2.25","6b26cfa6-d1c6-4455-98b2-55b1783f2cd4","null","<p style=""text-align: center;"">+</p>","null","fixation","","","","","","","","","","","","","","","","","","","","","",""
"","","","","","html-slider-response","190","334725","0.0-21.0-0.26","6b26cfa6-d1c6-4455-98b2-55b1783f2cd4","1000","
                  <p style=""text-align: center;"">₪4
                                                <br>75%</p>
                  <p id=""wtp"" style=""text-align:center; margin-top: 0px; margin-bottom: 0px; font-size: 40px"";>&ensp;</p>","-","viewing","0","3","12B,20B,23B,27C,29C","","","","","","","","","","","","","","","","","","",""
"","","","","","html-slider-response","191","335786","0.0-21.0-1.26","6b26cfa6-d1c6-4455-98b2-55b1783f2cd4","1060","
                  <p style=""text-align: center;"">₪4
                                                <br>75%</p>
                  <p id=""wtp"" style=""text-align:center; margin-top: 0px; margin-bottom: 0px; font-size: 40px"";>מוכנים לשלם: <span id=""c_p_y""></span></p>","3","evaluation","70","3","12B,20B,23B,27C,29C","75","4","3","","","","","","","","","","","","","","","",""
"","","","","","html-keyboard-response","192","336631","0.0-21.0-2.26","6b26cfa6-d1c6-4455-98b2-55b1783f2cd4","null","<p style=""text-align: center;"">+</p>","null","fixation","","","","","","","","","","","","","","","","","","","","","",""
"","","","","","html-slider-response","193","337633","0.0-21.0-0.27","6b26cfa6-d1c6-4455-98b2-55b1783f2cd4","1000","
                  <p style=""text-align: center;"">₪11
                                                <br>75%</p>
                  <p id=""wtp"" style=""text-align:center; margin-top: 0px; margin-bottom: 0px; font-size: 40px"";>&ensp;</p>","-","viewing","0","7","6B,18B,22C,24C,29A","","","","","","","","","","","","","","","","","","",""
"","","","","","html-slider-response","194","339050","0.0-21.0-1.27","6b26cfa6-d1c6-4455-98b2-55b1783f2cd4","1417","
                  <p style=""text-align: center;"">₪11
                                                <br>75%</p>
                  <p id=""wtp"" style=""text-align:center; margin-top: 0px; margin-bottom: 0px; font-size: 40px"";>מוכנים לשלם: <span id=""c_p_y""></span></p>","7","evaluation","21","7","6B,18B,22C,24C,29A","75","11","8","","","","","","","","","","","","","","","",""
"","","","","","html-keyboard-response","195","340165","0.0-21.0-2.27","6b26cfa6-d1c6-4455-98b2-55b1783f2cd4","null","<p style=""text-align: center;"">+</p>","null","fixation","","","","","","","","","","","","","","","","","","","","","",""
"","","","","","html-slider-response","196","341181","0.0-21.0-0.28","6b26cfa6-d1c6-4455-98b2-55b1783f2cd4","1000","
                  <p style=""text-align: center;"">₪4
                                                <br>50%</p>
                  <p id=""wtp"" style=""text-align:center; margin-top: 0px; margin-bottom: 0px; font-size: 40px"";>&ensp;</p>","-","viewing","0","2","4C,17B","","","","","","","","","","","","","","","","","","",""
"","","","","","html-slider-response","197","342426","0.0-21.0-1.28","6b26cfa6-d1c6-4455-98b2-55b1783f2cd4","1244","
                  <p style=""text-align: center;"">₪4
                                                <br>50%</p>
                  <p id=""wtp"" style=""text-align:center; margin-top: 0px; margin-bottom: 0px; font-size: 40px"";>מוכנים לשלם: <span id=""c_p_y""></span></p>","1","evaluation","54","2","4C,17B","50","4","2","","","","","","","","","","","","","","","",""
"","","","","","html-keyboard-response","198","343016","0.0-21.0-2.28","6b26cfa6-d1c6-4455-98b2-55b1783f2cd4","null","<p style=""text-align: center;"">+</p>","null","fixation","","","","","","","","","","","","","","","","","","","","","",""
"","","","","","html-slider-response","199","344022","0.0-21.0-0.29","6b26cfa6-d1c6-4455-98b2-55b1783f2cd4","1000","
                  <p style=""text-align: center;"">₪39
                                                <br>60%</p>
                  <p id=""wtp"" style=""text-align:center; margin-top: 0px; margin-bottom: 0px; font-size: 40px"";>&ensp;</p>","-","viewing","0","15","9C,25B","","","","","","","","","","","","","","","","","","",""
"","","","","","html-slider-response","200","346826","0.0-21.0-1.29","6b26cfa6-d1c6-4455-98b2-55b1783f2cd4","2804","
                  <p style=""text-align: center;"">₪39
                                                <br>60%</p>
                  <p id=""wtp"" style=""text-align:center; margin-top: 0px; margin-bottom: 0px; font-size: 40px"";>מוכנים לשלם: <span id=""c_p_y""></span></p>","10","evaluation","29","15","9C,25B","60","39","10","","","","","","","","","","","","","","","",""
"","","","","","html-keyboard-response","201","347401","0.0-21.0-2.29","6b26cfa6-d1c6-4455-98b2-55b1783f2cd4","null","<p style=""text-align: center;"">+</p>","null","fixation","","","","","","","","","","","","","","","","","","","","","",""
"","","","","","html-slider-response","202","348404","0.0-21.0-0.30","6b26cfa6-d1c6-4455-98b2-55b1783f2cd4","1000","
                  <p style=""text-align: center;"">₪79
                                                <br>65%</p>
                  <p id=""wtp"" style=""text-align:center; margin-top: 0px; margin-bottom: 0px; font-size: 40px"";>&ensp;</p>","-","viewing","0","31","8A","","","","","","","","","","","","","","","","","","",""
"","","","","","html-slider-response","203","350538","0.0-21.0-1.30","6b26cfa6-d1c6-4455-98b2-55b1783f2cd4","2134","
                  <p style=""text-align: center;"">₪79
                                                <br>65%</p>
                  <p id=""wtp"" style=""text-align:center; margin-top: 0px; margin-bottom: 0px; font-size: 40px"";>מוכנים לשלם: <span id=""c_p_y""></span></p>","19","evaluation","71","31","8A","65","79","19","","","","","","","","","","","","","","","",""
"","","","","","html-keyboard-response","204","351483","0.0-21.0-2.30","6b26cfa6-d1c6-4455-98b2-55b1783f2cd4","null","<p style=""text-align: center;"">+</p>","null","fixation","","","","","","","","","","","","","","","","","","","","","",""
"","","","","","html-keyboard-response","205","352493","0.0-22.0","6b26cfa6-d1c6-4455-98b2-55b1783f2cd4","null","<p style=""text-align: center;"">+</p>","null","fixation","","","","","","","","","","","","","","","","","","","","","",""
"","","","","","html-keyboard-response","206","353242","0.0-23.0","6b26cfa6-d1c6-4455-98b2-55b1783f2cd4","null","<p>הפסקה.
          <br>לחצו כדי להמשיך.</p>","1","scan_wait","","","","","","","","","","","","","","","","","","","","","",""
"","","","","","html-keyboard-response","207","354246","0.0-24.0","6b26cfa6-d1c6-4455-98b2-55b1783f2cd4","null","<p style=""text-align: center;"">+</p>","null","fixation","","","","","","","","","","","","","","","","","","","","","",""
"","","","","","html-slider-response","208","355248","0.0-25.0-0.0","6b26cfa6-d1c6-4455-98b2-55b1783f2cd4","1000","
                  <p style=""text-align: center;"">₪61
                                                <br>45%</p>
                  <p id=""wtp"" style=""text-align:center; margin-top: 0px; margin-bottom: 0px; font-size: 40px"";>&ensp;</p>","-","viewing","0","22","10A,11A","","","","","","","","","","","","","","","","","","",""
"","","","","","html-slider-response","209","356650","0.0-25.0-1.0","6b26cfa6-d1c6-4455-98b2-55b1783f2cd4","1401","
                  <p style=""text-align: center;"">₪61
                                                <br>45%</p>
                  <p id=""wtp"" style=""text-align:center; margin-top: 0px; margin-bottom: 0px; font-size: 40px"";>מוכנים לשלם: <span id=""c_p_y""></span></p>","15","evaluation","49","22","10A,11A","45","61","16","","","","","","","","","","","","","","","",""
"","","","","","html-keyboard-response","210","358119","0.0-25.0-2.0","6b26cfa6-d1c6-4455-98b2-55b1783f2cd4","null","<p style=""text-align: center;"">+</p>","null","fixation","","","","","","","","","","","","","","","","","","","","","",""
"","","","","","html-slider-response","211","359130","0.0-25.0-0.1","6b26cfa6-d1c6-4455-98b2-55b1783f2cd4","1000","
                  <p style=""text-align: center;"">₪36
                                                <br>70%</p>
                  <p id=""wtp"" style=""text-align:center; margin-top: 0px; margin-bottom: 0px; font-size: 40px"";>&ensp;</p>","-","viewing","0","13","3A,5C,10B","","","","","","","","","","","","","","","","","","",""
"","","","","","html-slider-response","212","361930","0.0-25.0-1.1","6b26cfa6-d1c6-4455-98b2-55b1783f2cd4","2799","
                  <p style=""text-align: center;"">₪36
                                                <br>70%</p>
                  <p id=""wtp"" style=""text-align:center; margin-top: 0px; margin-bottom: 0px; font-size: 40px"";>מוכנים לשלם: <span id=""c_p_y""></span></p>","11","evaluation","24","13","3A,5C,10B","70","36","12","","","","","","","","","","","","","","","",""
"","","","","","html-keyboard-response","213","362703","0.0-25.0-2.1","6b26cfa6-d1c6-4455-98b2-55b1783f2cd4","null","<p style=""text-align: center;"">+</p>","null","fixation","","","","","","","","","","","","","","","","","","","","","",""
"","","","","","html-slider-response","214","363708","0.0-25.0-0.2","6b26cfa6-d1c6-4455-98b2-55b1783f2cd4","1000","
                  <p style=""text-align: center;"">₪4
                                                <br>75%</p>
                  <p id=""wtp"" style=""text-align:center; margin-top: 0px; margin-bottom: 0px; font-size: 40px"";>&ensp;</p>","-","viewing","0","3","12B,20B,23B,27C,29C","","","","","","","","","","","","","","","","","","",""
"","","","","","html-slider-response","215","365626","0.0-25.0-1.2","6b26cfa6-d1c6-4455-98b2-55b1783f2cd4","1918","
                  <p style=""text-align: center;"">₪4
                                                <br>75%</p>
                  <p id=""wtp"" style=""text-align:center; margin-top: 0px; margin-bottom: 0px; font-size: 40px"";>מוכנים לשלם: <span id=""c_p_y""></span></p>","3","evaluation","46","3","12B,20B,23B,27C,29C","75","4","3","","","","","","","","","","","","","","","",""
"","","","","","html-keyboard-response","216","366255","0.0-25.0-2.2","6b26cfa6-d1c6-4455-98b2-55b1783f2cd4","null","<p style=""text-align: center;"">+</p>","null","fixation","","","","","","","","","","","","","","","","","","","","","",""
"","","","","","html-slider-response","217","367257","0.0-25.0-0.3","6b26cfa6-d1c6-4455-98b2-55b1783f2cd4","1000","
                  <p style=""text-align: center;"">₪4
                                                <br>25%</p>
                  <p id=""wtp"" style=""text-align:center; margin-top: 0px; margin-bottom: 0px; font-size: 40px"";>&ensp;</p>","-","viewing","0","1","6C,29B,30C","","","","","","","","","","","","","","","","","","",""
"","","","","","html-slider-response","218","368738","0.0-25.0-1.3","6b26cfa6-d1c6-4455-98b2-55b1783f2cd4","1480","
                  <p style=""text-align: center;"">₪4
                                                <br>25%</p>
                  <p id=""wtp"" style=""text-align:center; margin-top: 0px; margin-bottom: 0px; font-size: 40px"";>מוכנים לשלם: <span id=""c_p_y""></span></p>","0","evaluation","35","1","6C,29B,30C","25","4","1","","","","","","","","","","","","","","","",""
"","","","","","html-keyboard-response","219","369980","0.0-25.0-2.3","6b26cfa6-d1c6-4455-98b2-55b1783f2cd4","null","<p style=""text-align: center;"">+</p>","null","fixation","","","","","","","","","","","","","","","","","","","","","",""
"","","","","","html-slider-response","220","370995","0.0-25.0-0.4","6b26cfa6-d1c6-4455-98b2-55b1783f2cd4","1000","
                  <p style=""text-align: center;"">₪39
                                                <br>60%</p>
                  <p id=""wtp"" style=""text-align:center; margin-top: 0px; margin-bottom: 0px; font-size: 40px"";>&ensp;</p>","-","viewing","0","15","9C,25B","","","","","","","","","","","","","","","","","","",""
"","","","","","html-slider-response","221","374154","0.0-25.0-1.4","6b26cfa6-d1c6-4455-98b2-55b1783f2cd4","3158","
                  <p style=""text-align: center;"">₪39
                                                <br>60%</p>
                  <p id=""wtp"" style=""text-align:center; margin-top: 0px; margin-bottom: 0px; font-size: 40px"";>מוכנים לשלם: <span id=""c_p_y""></span></p>","12","evaluation","24","15","9C,25B","60","39","12","","","","","","","","","","","","","","","",""
"","","","","","html-keyboard-response","222","375418","0.0-25.0-2.4","6b26cfa6-d1c6-4455-98b2-55b1783f2cd4","null","<p style=""text-align: center;"">+</p>","null","fixation","","","","","","","","","","","","","","","","","","","","","",""
"","","","","","html-slider-response","223","376423","0.0-25.0-0.5","6b26cfa6-d1c6-4455-98b2-55b1783f2cd4","1000","
                  <p style=""text-align: center;"">₪64
                                                <br>25%</p>
                  <p id=""wtp"" style=""text-align:center; margin-top: 0px; margin-bottom: 0px; font-size: 40px"";>&ensp;</p>","-","viewing","0","24","6A,21A","","","","","","","","","","","","","","","","","","",""
"","","","","","html-slider-response","224","378562","0.0-25.0-1.5","6b26cfa6-d1c6-4455-98b2-55b1783f2cd4","2137","
                  <p style=""text-align: center;"">₪64
                                                <br>25%</p>
                  <p id=""wtp"" style=""text-align:center; margin-top: 0px; margin-bottom: 0px; font-size: 40px"";>מוכנים לשלם: <span id=""c_p_y""></span></p>","9","evaluation","54","24","6A,21A","25","64","10","","","","","","","","","","","","","","","",""
"","","","","","html-keyboard-response","225","379758","0.0-25.0-2.5","6b26cfa6-d1c6-4455-98b2-55b1783f2cd4","null","<p style=""text-align: center;"">+</p>","null","fixation","","","","","","","","","","","","","","","","","","","","","",""
"","","","","","html-slider-response","226","380761","0.0-25.0-0.6","6b26cfa6-d1c6-4455-98b2-55b1783f2cd4","1000","
                  <p style=""text-align: center;"">₪36
                                                <br>60%</p>
                  <p id=""wtp"" style=""text-align:center; margin-top: 0px; margin-bottom: 0px; font-size: 40px"";>&ensp;</p>","-","viewing","0","12","1C,7C,15C","","","","","","","","","","","","","","","","","","",""
"","","","","","html-slider-response","227","382090","0.0-25.0-1.6","6b26cfa6-d1c6-4455-98b2-55b1783f2cd4","1328","
                  <p style=""text-align: center;"">₪36
                                                <br>60%</p>
                  <p id=""wtp"" style=""text-align:center; margin-top: 0px; margin-bottom: 0px; font-size: 40px"";>מוכנים לשלם: <span id=""c_p_y""></span></p>","14","evaluation","3","12","1C,7C,15C","60","36","15","","","","","","","","","","","","","","","",""
"","","","","","html-keyboard-response","228","383055","0.0-25.0-2.6","6b26cfa6-d1c6-4455-98b2-55b1783f2cd4","null","<p style=""text-align: center;"">+</p>","null","fixation","","","","","","","","","","","","","","","","","","","","","",""
"","","","","","html-slider-response","229","384059","0.0-25.0-0.7","6b26cfa6-d1c6-4455-98b2-55b1783f2cd4","1000","
                  <p style=""text-align: center;"">₪61
                                                <br>55%</p>
                  <p id=""wtp"" style=""text-align:center; margin-top: 0px; margin-bottom: 0px; font-size: 40px"";>&ensp;</p>","-","viewing","0","23","7B,26B","","","","","","","","","","","","","","","","","","",""
"","","","","","html-slider-response","230","387162","0.0-25.0-1.7","6b26cfa6-d1c6-4455-98b2-55b1783f2cd4","3101","
                  <p style=""text-align: center;"">₪61
                                                <br>55%</p>
                  <p id=""wtp"" style=""text-align:center; margin-top: 0px; margin-bottom: 0px; font-size: 40px"";>מוכנים לשלם: <span id=""c_p_y""></span></p>","15","evaluation","55","23","7B,26B","55","61","15","","","","","","","","","","","","","","","",""
"","","","","","html-keyboard-response","231","388471","0.0-25.0-2.7","6b26cfa6-d1c6-4455-98b2-55b1783f2cd4","null","<p style=""text-align: center;"">+</p>","null","fixation","","","","","","","","","","","","","","","","","","","","","",""
"","","","","","html-slider-response","232","389473","0.0-25.0-0.8","6b26cfa6-d1c6-4455-98b2-55b1783f2cd4","1000","
                  <p style=""text-align: center;"">₪16
                                                <br>20%</p>
                  <p id=""wtp"" style=""text-align:center; margin-top: 0px; margin-bottom: 0px; font-size: 40px"";>&ensp;</p>","-","viewing","0","8","14C,17A,20C,27A","","","","","","","","","","","","","","","","","","",""
"","","","","","html-slider-response","233","391442","0.0-25.0-1.8","6b26cfa6-d1c6-4455-98b2-55b1783f2cd4","1968","
                  <p style=""text-align: center;"">₪16
                                                <br>20%</p>
                  <p id=""wtp"" style=""text-align:center; margin-top: 0px; margin-bottom: 0px; font-size: 40px"";>מוכנים לשלם: <span id=""c_p_y""></span></p>","5","evaluation","16","8","14C,17A,20C,27A","20","16","6","","","","","","","","","","","","","","","",""
"","","","","","html-keyboard-response","234","392726","0.0-25.0-2.8","6b26cfa6-d1c6-4455-98b2-55b1783f2cd4","null","<p style=""text-align: center;"">+</p>","null","fixation","","","","","","","","","","","","","","","","","","","","","",""
"","","","","","html-slider-response","235","393737","0.0-25.0-0.9","6b26cfa6-d1c6-4455-98b2-55b1783f2cd4","1000","
                  <p style=""text-align: center;"">₪11
                                                <br>25%</p>
                  <p id=""wtp"" style=""text-align:center; margin-top: 0px; margin-bottom: 0px; font-size: 40px"";>&ensp;</p>","-","viewing","0","5","12A,27B,28B,30B","","","","","","","","","","","","","","","","","","",""
"","","","","","html-slider-response","236","395378","0.0-25.0-1.9","6b26cfa6-d1c6-4455-98b2-55b1783f2cd4","1639","
                  <p style=""text-align: center;"">₪11
                                                <br>25%</p>
                  <p id=""wtp"" style=""text-align:center; margin-top: 0px; margin-bottom: 0px; font-size: 40px"";>מוכנים לשלם: <span id=""c_p_y""></span></p>","4","evaluation","80","5","12A,27B,28B,30B","25","11","4","","","","","","","","","","","","","","","",""
"","","","","","html-keyboard-response","237","396426","0.0-25.0-2.9","6b26cfa6-d1c6-4455-98b2-55b1783f2cd4","null","<p style=""text-align: center;"">+</p>","null","fixation","","","","","","","","","","","","","","","","","","","","","",""
"","","","","","html-slider-response","238","397428","0.0-25.0-0.10","6b26cfa6-d1c6-4455-98b2-55b1783f2cd4","1000","
                  <p style=""text-align: center;"">₪36
                                                <br>30%</p>
                  <p id=""wtp"" style=""text-align:center; margin-top: 0px; margin-bottom: 0px; font-size: 40px"";>&ensp;</p>","-","viewing","0","11","3C,20A,22A","","","","","","","","","","","","","","","","","","",""
"","","","","","html-slider-response","239","400866","0.0-25.0-1.10","6b26cfa6-d1c6-4455-98b2-55b1783f2cd4","3437","
                  <p style=""text-align: center;"">₪36
                                                <br>30%</p>
                  <p id=""wtp"" style=""text-align:center; margin-top: 0px; margin-bottom: 0px; font-size: 40px"";>מוכנים לשלם: <span id=""c_p_y""></span></p>","6","evaluation","67","11","3C,20A,22A","30","36","7","","","","","","","","","","","","","","","",""
"","","","","","html-keyboard-response","240","402038","0.0-25.0-2.10","6b26cfa6-d1c6-4455-98b2-55b1783f2cd4","null","<p style=""text-align: center;"">+</p>","null","fixation","","","","","","","","","","","","","","","","","","","","","",""
"","","","","","html-slider-response","241","403040","0.0-25.0-0.11","6b26cfa6-d1c6-4455-98b2-55b1783f2cd4","1000","
                  <p style=""text-align: center;"">₪18
                                                <br>25%</p>
                  <p id=""wtp"" style=""text-align:center; margin-top: 0px; margin-bottom: 0px; font-size: 40px"";>&ensp;</p>","-","viewing","0","9","14A,23A","","","","","","","","","","","","","","","","","","",""
"","","","","","html-slider-response","242","405090","0.0-25.0-1.11","6b26cfa6-d1c6-4455-98b2-55b1783f2cd4","2049","
                  <p style=""text-align: center;"">₪18
                                                <br>25%</p>
                  <p id=""wtp"" style=""text-align:center; margin-top: 0px; margin-bottom: 0px; font-size: 40px"";>מוכנים לשלם: <span id=""c_p_y""></span></p>","6","evaluation","35","9","14A,23A","25","18","7","","","","","","","","","","","","","","","",""
"","","","","","html-keyboard-response","243","405803","0.0-25.0-2.11","6b26cfa6-d1c6-4455-98b2-55b1783f2cd4","null","<p style=""text-align: center;"">+</p>","null","fixation","","","","","","","","","","","","","","","","","","","","","",""
"","","","","","html-slider-response","244","406805","0.0-25.0-0.12","6b26cfa6-d1c6-4455-98b2-55b1783f2cd4","1000","
                  <p style=""text-align: center;"">₪58
                                                <br>30%</p>
                  <p id=""wtp"" style=""text-align:center; margin-top: 0px; margin-bottom: 0px; font-size: 40px"";>&ensp;</p>","-","viewing","0","19","13C,30A","","","","","","","","","","","","","","","","","","",""
"","","","","","html-slider-response","245","408426","0.0-25.0-1.12","6b26cfa6-d1c6-4455-98b2-55b1783f2cd4","1620","
                  <p style=""text-align: center;"">₪58
                                                <br>30%</p>
                  <p id=""wtp"" style=""text-align:center; margin-top: 0px; margin-bottom: 0px; font-size: 40px"";>מוכנים לשלם: <span id=""c_p_y""></span></p>","8","evaluation","36","19","13C,30A","30","58","8","","","","","","","","","","","","","","","",""
"","","","","","html-keyboard-response","246","409379","0.0-25.0-2.12","6b26cfa6-d1c6-4455-98b2-55b1783f2cd4","null","<p style=""text-align: center;"">+</p>","null","fixation","","","","","","","","","","","","","","","","","","","","","",""
"","","","","","html-slider-response","247","410381","0.0-25.0-0.13","6b26cfa6-d1c6-4455-98b2-55b1783f2cd4","1000","
                  <p style=""text-align: center;"">₪39
                                                <br>65%</p>
                  <p id=""wtp"" style=""text-align:center; margin-top: 0px; margin-bottom: 0px; font-size: 40px"";>&ensp;</p>","-","viewing","0","16","1A,15A,26C","","","","","","","","","","","","","","","","","","",""
"","","","","","html-slider-response","248","412218","0.0-25.0-1.13","6b26cfa6-d1c6-4455-98b2-55b1783f2cd4","1836","
                  <p style=""text-align: center;"">₪39
                                                <br>65%</p>
                  <p id=""wtp"" style=""text-align:center; margin-top: 0px; margin-bottom: 0px; font-size: 40px"";>מוכנים לשלם: <span id=""c_p_y""></span></p>","15","evaluation","45","16","1A,15A,26C","65","39","15","","","","","","","","","","","","","","","",""
"","","","","","html-keyboard-response","249","413138","0.0-25.0-2.13","6b26cfa6-d1c6-4455-98b2-55b1783f2cd4","null","<p style=""text-align: center;"">+</p>","null","fixation","","","","","","","","","","","","","","","","","","","","","",""
"","","","","","html-slider-response","250","414154","0.0-25.0-0.14","6b26cfa6-d1c6-4455-98b2-55b1783f2cd4","1000","
                  <p style=""text-align: center;"">₪58
                                                <br>45%</p>
                  <p id=""wtp"" style=""text-align:center; margin-top: 0px; margin-bottom: 0px; font-size: 40px"";>&ensp;</p>","-","viewing","0","21","11C,18C,25A","","","","","","","","","","","","","","","","","","",""
