"success","timeout","failed_images","failed_audio","failed_video","trial_type","trial_index","time_elapsed","internal_node_id","subject_id","rt","stimulus","response","part","slider_start","ID","set_ID","prob","amount","last_location","actual_choice","actual_EV","binary_id","trinary_id","catch","direction","A_key","S_key","D_key","choice_prob","choice_amount","won_prize","potential_prize_amount","potential_prize_prob","total_prize","accuracy"
"true","false","[]","[]","[]","preload","0","19","0.0-0.0","d185a752-95e5-41b9-9923-1be62c42d5ca","","","","","","","","","","","","","","","","","","","","","","","","","",""
"","","","","","html-keyboard-response","1","11477","0.0-1.0","d185a752-95e5-41b9-9923-1be62c42d5ca","null","
          <h1>שלום וברוכים הבאים!</h1>
          <p>לפניכם ניסוי בקבלת החלטות עם שני חלקים.
          <br><br>לחצו על העכבר כדי להמשיך.</p>","0","example","","","","","","","","","","","","","","","","","","","","","",""
"","","","","","html-keyboard-response","2","27605","0.0-2.0","d185a752-95e5-41b9-9923-1be62c42d5ca","null","
        <h1>חלק 1</h1>
        <p>בקרוב יוצגו בפניכם הגרלות.
        <br>עליכם לבחור את המחיר המירבי שתהיו מוכנים לשלם כדי להשתתף בהגרלה שתוצג.
        <br>יש לכם תקציב של ₪80 לכל הגרלה. 
        <br>נסו להעריך כל הגרלה בנפרד ולחשוב כמה היא שווה עבורכם, ₪80 זמינים לכל הגרלה בנפרד.
        <br><br>לחצו על העכבר כדי להמשיך.</p>","1","instructions","","","","","","","","","","","","","","","","","","","","","",""
"","","","","","html-keyboard-response","3","33037","0.0-3.0","d185a752-95e5-41b9-9923-1be62c42d5ca","null","
        <p>בסוף הניסוי, המחשב יבחר את אחת ההגרלות ויקבע מחיר לכרטיס עבורה. 
        <br>במידה והמחיר שבחרתם נמוך מהמחיר שנבחר על ידי המחשב, לא תשתתפו בהגרלה ותשארו עם מלוא התקציב.
        <br>במידה והמחיר שבחרתם גבוה מהמחיר שנבחר על ידי המחשב, תשלמו את המחיר שנקבע ותשתתפו בהגרלה.
        <br><br>לחצו על העכבר כדי להמשיך.</p>","1","instructions","","","","","","","","","","","","","","","","","","","","","",""
"","","","","","html-slider-response","4","77253","0.0-4.0","d185a752-95e5-41b9-9923-1be62c42d5ca","44111","
        <p style=""font-size: 42px;"">נתחיל עם דוגמא: 
        <br>ההגרלה מטה מציעה 65% סיכוי לזכות ב-₪40 
        <br>&emsp;&emsp;&emsp;&emsp;&emsp;&emsp;&emsp;&emsp;&ensp;35% סיכוי לזכות ב-₪0.
        <br><br>מה המחיר המירבי שתהיו מוכנים לשלם על כרטיס להגרלה זו בין 0 ל-₪80?
        <br>הזיזו את העכבר על פני המלבן ולחצו כדי לבצע בחירה.</p>
        
        <p style=""text-align: center;"">₪40<br>65%</p>

        <p id=""wtp"" style=""text-align:center; margin-top: 0px; margin-bottom: 0px; font-size: 40px"";>מוכנים לשלם: <span id=""c_p_y""></span></p>","25","example","53","","","","","","","","","","","","","","","","","","","","",""
"","","","","","html-keyboard-response","5","88597","0.0-5.0","d185a752-95e5-41b9-9923-1be62c42d5ca","null","<p>יפה מאוד!
                <br> בחרתם שתהיו מוכנים לשלם ₪25 כדי להשתתף בהגרלה:
                <br><p style=""text-align: center;"">₪40<br>65%</p>
                <p>נשמע נכון?
                <br>נניח שהגרלה זו נבחרה בסוף הניסוי.
                <br>כעת המחשב יקבע מחיר עבורה באקראי.
                <br>לחצו על העכבר להמשך.</p>","1","example","","","","","","","","","","","","","","","","","","","","","",""
"","","","","","html-keyboard-response","6","100781","0.0-6.0","d185a752-95e5-41b9-9923-1be62c42d5ca","null","<p>המחשב קבע מחיר: ₪61
                <br>ואתם בחרתם לשלם לכל היותר: ₪25
                <br><br>מכיוון שהמחיר שבחרתם נמוך מהמחיר שנקבע, לא תתשתתפו בהגרלה.
                <br>במקרה כזה, בסוף הניסוי תקבלו את כל התקציב ההתחלתי של ₪80.
                <br><br>לחצו על העכבר להמשך.</p>","1","example","","","","","","","","","","","","","","","","","","","","","",""
"","","","","","html-slider-response","7","124988","0.0-7.0","d185a752-95e5-41b9-9923-1be62c42d5ca","23956","<p style=""font-size: 42px;"">הנה עוד דוגמא:
                <br>ההגרלה מטה מציעה 35% סיכוי לזכות ב-₪18 
                <br>&emsp;&emsp;&emsp;&emsp;&emsp;&emsp;&emsp;&emsp;&ensp;65% סיכוי לזכות ב-₪0.</p>
        
                <p style=""text-align: center;"">₪18<br>35%</p>
                <p id=""wtp"" style=""text-align:center; margin-top: 0px; margin-bottom: 0px; font-size: 40px"";>מוכנים לשלם: <span id=""c_p_y""></span></p>","20","example","21","","","","","","","","","","","","","","","","","","","","",""
"","","","","","html-keyboard-response","8","127108","0.0-8.0","d185a752-95e5-41b9-9923-1be62c42d5ca","null","<p>הייתם מוכנים לשלם  ₪20 כדי להשתתף בהגרלה:
                <p style=""text-align: center;"">₪18<br>35%</p>
                <p>כעת נניח שהמחשב בחר את ההגרלה הזו בסוף הניסוי, וקבע עבורה מחיר.
                <br><br>לחצו על העכבר כדי להמשיך.</p>","1","instructions","","","","","","","","","","","","","","","","","","","","","",""
"","","","","","html-keyboard-response","9","143972","0.0-9.0","d185a752-95e5-41b9-9923-1be62c42d5ca","null","<p>המחשב קבע מחיר להגרלה: ₪6<br>ואתם בחרתם לשלם לכל היותר: ₪20
                <br><br>כעת המחיר שנקבע נמוך מזה שבחרתם, אז תשלמו את המחיר שקבע המחשב (₪6) ותשתתפו בהגרלה.
                <br>במקרה כזה, תסיימו את הניסוי עם תקציב של ₪74 ועם סיכוי לזכות ב-₪18 נוספים מההגרלה.
                <br>כלומר, תוכלו לקבל ₪74 אם לא תזכו בהגרלה, או ₪92 אם תזכו בהגרלה.
                <br><br>לחצו על העכבר להמשך.</p>","1","example","","","","","","","","","","","","","","","","","","","","","",""
"","","","","","html-keyboard-response","10","155972","0.0-10.0","d185a752-95e5-41b9-9923-1be62c42d5ca","null","<p>במהלך הניסוי, קודם תראו את ההגרלה ורק לאחר מכן תוכלו לבחור.
                <p>כמו כן, יהיו לכם מספר שניות מוגבל להגיב.
                <p>בואו ננסה זאת עם ההגרלה הקודמת.
                <br>לחצו על העכבר כדי להמשיך.</p>","1","instructions","","","","","","","","","","","","","","","","","","","","","",""
"","","","","","html-slider-response","11","157228","0.0-11.0","d185a752-95e5-41b9-9923-1be62c42d5ca","1000","
                    <p style=""text-align: center;"">₪18<br>35%</p>
                    <p id=""wtp"" style=""text-align:center; margin-top: 0px; margin-bottom: 0px; font-size: 40px"";>&ensp;</p>","49","instructions","0","","","","","","","","","","","","","","","","","","","","",""
"","","","","","html-slider-response","12","161482","0.0-12.0","d185a752-95e5-41b9-9923-1be62c42d5ca","null","
                    <p style=""text-align: center;"">₪18<br>35%</p>
                    <p id=""wtp"" style=""text-align:center; margin-top: 0px; margin-bottom: 0px; font-size: 40px"";>מוכנים לשלם: <span id=""c_p_y""></span></p>","null","instructions","48","","","","","","","","","","","","","","","","","","","","",""
"","","","","","html-keyboard-response","13","165868","0.0-13.0","d185a752-95e5-41b9-9923-1be62c42d5ca","null","<p>לא הגבתם בזמן המוקצב לתגובה. 
                <br>נסו להגיב מהר יותר בפעם הבאה.
                <br><br>לחצו על העכבר כדי להמשיך.</p>","1","instructions","","","","","","","","","","","","","","","","","","","","","",""
"","","","","","html-slider-response","14","168300","0.0-14.0-0.0","d185a752-95e5-41b9-9923-1be62c42d5ca","2180","
                    <p style=""text-align: center;"">₪40<br>65%</p>
                    <p id=""wtp"" style=""text-align:center; margin-top: 0px; margin-bottom: 0px; font-size: 40px"";>מוכנים לשלם: <span id=""c_p_y""></span></p>","31","instructions","74","","","","","","","","","","","","","","","","","","","","",""
"","","","","","html-keyboard-response","15","172828","0.0-14.0-1.0","d185a752-95e5-41b9-9923-1be62c42d5ca","null","<p>יפה. הפעם בחרתם לשלם לכל היותר ₪31.
                <br><br>לחצו על העכבר כדי להמשיך.</p>","1","instructions","","","","","","","","","","","","","","","","","","","","","",""
"","","","","","html-keyboard-response","16","182396","0.0-15.0","d185a752-95e5-41b9-9923-1be62c42d5ca","null","<p>כעת נתחיל את הניסוי.
                <br><br>אתם תראו הגרלות ותתבקשו לבחור כמה תהיו מוכנים לשלם כדי להשתתף בהן.
                <br>יש לכם תקציב של ₪80 עבור כל הגרלה.
                <br>בסוף הניסוי הגרלה אחת תבחר באקראי ותשוחק.
                <br><br>לחצו על העכבר כדי להתחיל את הניסוי.</p>","1","instructions","","","","","","","","","","","","","","","","","","","","","",""
"","","","","","html-keyboard-response","17","183649","0.0-16.0","d185a752-95e5-41b9-9923-1be62c42d5ca","null","<p style=""text-align: center;"">+</p>","null","fixation","","","","","","","","","","","","","","","","","","","","","",""
"","","","","","html-slider-response","18","184654","0.0-17.0-0.0","d185a752-95e5-41b9-9923-1be62c42d5ca","1000","
                  <p style=""text-align: center;"">₪71
                                                <br>55%</p>
                  <p id=""wtp"" style=""text-align:center; margin-top: 0px; margin-bottom: 0px; font-size: 40px"";>&ensp;</p>","-","viewing","0","27","5B,18A","","","","","","","","","","","","","","","","","","",""
"","","","","","html-slider-response","19","186564","0.0-17.0-1.0","d185a752-95e5-41b9-9923-1be62c42d5ca","1909","
                  <p style=""text-align: center;"">₪71
                                                <br>55%</p>
                  <p id=""wtp"" style=""text-align:center; margin-top: 0px; margin-bottom: 0px; font-size: 40px"";>מוכנים לשלם: <span id=""c_p_y""></span></p>","40","evaluation","61","27","5B,18A","55","71","40","","","","","","","","","","","","","","","",""
"","","","","","html-keyboard-response","20","187418","0.0-17.0-2.0","d185a752-95e5-41b9-9923-1be62c42d5ca","null","<p style=""text-align: center;"">+</p>","null","fixation","","","","","","","","","","","","","","","","","","","","","",""
"","","","","","html-slider-response","21","188420","0.0-17.0-0.1","d185a752-95e5-41b9-9923-1be62c42d5ca","1000","
                  <p style=""text-align: center;"">₪36
                                                <br>75%</p>
                  <p id=""wtp"" style=""text-align:center; margin-top: 0px; margin-bottom: 0px; font-size: 40px"";>&ensp;</p>","-","viewing","0","14","4B,5A,13B,16B","","","","","","","","","","","","","","","","","","",""
"","","","","","html-slider-response","22","190916","0.0-17.0-1.1","d185a752-95e5-41b9-9923-1be62c42d5ca","2494","
                  <p style=""text-align: center;"">₪36
                                                <br>75%</p>
                  <p id=""wtp"" style=""text-align:center; margin-top: 0px; margin-bottom: 0px; font-size: 40px"";>מוכנים לשלם: <span id=""c_p_y""></span></p>","45","evaluation","7","14","4B,5A,13B,16B","75","36","45","","","","","","","","","","","","","","","",""
"","","","","","html-keyboard-response","23","192150","0.0-17.0-2.1","d185a752-95e5-41b9-9923-1be62c42d5ca","null","<p style=""text-align: center;"">+</p>","null","fixation","","","","","","","","","","","","","","","","","","","","","",""
"","","","","","html-slider-response","24","193153","0.0-17.0-0.2","d185a752-95e5-41b9-9923-1be62c42d5ca","1000","
                  <p style=""text-align: center;"">₪11
                                                <br>20%</p>
                  <p id=""wtp"" style=""text-align:center; margin-top: 0px; margin-bottom: 0px; font-size: 40px"";>&ensp;</p>","-","viewing","0","4","12C,17C,23C,28C","","","","","","","","","","","","","","","","","","",""
"","","","","","html-slider-response","25","194829","0.0-17.0-1.2","d185a752-95e5-41b9-9923-1be62c42d5ca","1675","
                  <p style=""text-align: center;"">₪11
                                                <br>20%</p>
                  <p id=""wtp"" style=""text-align:center; margin-top: 0px; margin-bottom: 0px; font-size: 40px"";>מוכנים לשלם: <span id=""c_p_y""></span></p>","7","evaluation","75","4","12C,17C,23C,28C","20","11","7","","","","","","","","","","","","","","","",""
"","","","","","html-keyboard-response","26","195740","0.0-17.0-2.2","d185a752-95e5-41b9-9923-1be62c42d5ca","null","<p style=""text-align: center;"">+</p>","null","fixation","","","","","","","","","","","","","","","","","","","","","",""
"","","","","","html-slider-response","27","196751","0.0-17.0-0.3","d185a752-95e5-41b9-9923-1be62c42d5ca","1000","
                  <p style=""text-align: center;"">₪16
                                                <br>20%</p>
                  <p id=""wtp"" style=""text-align:center; margin-top: 0px; margin-bottom: 0px; font-size: 40px"";>&ensp;</p>","-","viewing","0","8","14C,17A,20C,27A","","","","","","","","","","","","","","","","","","",""
"","","","","","html-slider-response","28","198700","0.0-17.0-1.3","d185a752-95e5-41b9-9923-1be62c42d5ca","1948","
                  <p style=""text-align: center;"">₪16
                                                <br>20%</p>
                  <p id=""wtp"" style=""text-align:center; margin-top: 0px; margin-bottom: 0px; font-size: 40px"";>מוכנים לשלם: <span id=""c_p_y""></span></p>","10","evaluation","7","8","14C,17A,20C,27A","20","16","10","","","","","","","","","","","","","","","",""
"","","","","","html-keyboard-response","29","199588","0.0-17.0-2.3","d185a752-95e5-41b9-9923-1be62c42d5ca","null","<p style=""text-align: center;"">+</p>","null","fixation","","","","","","","","","","","","","","","","","","","","","",""
"","","","","","html-slider-response","30","200599","0.0-17.0-0.4","d185a752-95e5-41b9-9923-1be62c42d5ca","1000","
                  <p style=""text-align: center;"">₪4
                                                <br>50%</p>
                  <p id=""wtp"" style=""text-align:center; margin-top: 0px; margin-bottom: 0px; font-size: 40px"";>&ensp;</p>","-","viewing","0","2","4C,17B","","","","","","","","","","","","","","","","","","",""
"","","","","","html-slider-response","31","203380","0.0-17.0-1.4","d185a752-95e5-41b9-9923-1be62c42d5ca","2780","
                  <p style=""text-align: center;"">₪4
                                                <br>50%</p>
                  <p id=""wtp"" style=""text-align:center; margin-top: 0px; margin-bottom: 0px; font-size: 40px"";>מוכנים לשלם: <span id=""c_p_y""></span></p>","1","evaluation","47","2","4C,17B","50","4","1","","","","","","","","","","","","","","","",""
"","","","","","html-keyboard-response","32","204340","0.0-17.0-2.4","d185a752-95e5-41b9-9923-1be62c42d5ca","null","<p style=""text-align: center;"">+</p>","null","fixation","","","","","","","","","","","","","","","","","","","","","",""
"","","","","","html-slider-response","33","205341","0.0-17.0-0.5","d185a752-95e5-41b9-9923-1be62c42d5ca","1000","
                  <p style=""text-align: center;"">₪43
                                                <br>60%</p>
                  <p id=""wtp"" style=""text-align:center; margin-top: 0px; margin-bottom: 0px; font-size: 40px"";>&ensp;</p>","-","viewing","0","17","2A,7A,9A,15B","","","","","","","","","","","","","","","","","","",""
"","","","","","html-slider-response","34","206805","0.0-17.0-1.5","d185a752-95e5-41b9-9923-1be62c42d5ca","1462","
                  <p style=""text-align: center;"">₪43
                                                <br>60%</p>
                  <p id=""wtp"" style=""text-align:center; margin-top: 0px; margin-bottom: 0px; font-size: 40px"";>מוכנים לשלם: <span id=""c_p_y""></span></p>","53","evaluation","28","17","2A,7A,9A,15B","60","43","53","","","","","","","","","","","","","","","",""
"","","","","","html-keyboard-response","35","207497","0.0-17.0-2.5","d185a752-95e5-41b9-9923-1be62c42d5ca","null","<p style=""text-align: center;"">+</p>","null","fixation","","","","","","","","","","","","","","","","","","","","","",""
"","","","","","html-slider-response","36","208499","0.0-17.0-0.6","d185a752-95e5-41b9-9923-1be62c42d5ca","1000","
                  <p style=""text-align: center;"">₪4
                                                <br>25%</p>
                  <p id=""wtp"" style=""text-align:center; margin-top: 0px; margin-bottom: 0px; font-size: 40px"";>&ensp;</p>","-","viewing","0","1","6C,29B,30C","","","","","","","","","","","","","","","","","","",""
"","","","","","html-slider-response","37","210189","0.0-17.0-1.6","d185a752-95e5-41b9-9923-1be62c42d5ca","1688","
                  <p style=""text-align: center;"">₪4
                                                <br>25%</p>
                  <p id=""wtp"" style=""text-align:center; margin-top: 0px; margin-bottom: 0px; font-size: 40px"";>מוכנים לשלם: <span id=""c_p_y""></span></p>","0","evaluation","69","1","6C,29B,30C","25","4","0","","","","","","","","","","","","","","","",""
"","","","","","html-keyboard-response","38","211679","0.0-17.0-2.6","d185a752-95e5-41b9-9923-1be62c42d5ca","null","<p style=""text-align: center;"">+</p>","null","fixation","","","","","","","","","","","","","","","","","","","","","",""
"","","","","","html-slider-response","39","212682","0.0-17.0-0.7","d185a752-95e5-41b9-9923-1be62c42d5ca","1000","
                  <p style=""text-align: center;"">₪4
                                                <br>75%</p>
                  <p id=""wtp"" style=""text-align:center; margin-top: 0px; margin-bottom: 0px; font-size: 40px"";>&ensp;</p>","-","viewing","0","3","12B,20B,23B,27C,29C","","","","","","","","","","","","","","","","","","",""
"","","","","","html-slider-response","40","214589","0.0-17.0-1.7","d185a752-95e5-41b9-9923-1be62c42d5ca","1905","
                  <p style=""text-align: center;"">₪4
                                                <br>75%</p>
                  <p id=""wtp"" style=""text-align:center; margin-top: 0px; margin-bottom: 0px; font-size: 40px"";>מוכנים לשלם: <span id=""c_p_y""></span></p>","41","evaluation","26","3","12B,20B,23B,27C,29C","75","4","41","","","","","","","","","","","","","","","",""
"","","","","","html-keyboard-response","41","215840","0.0-17.0-2.7","d185a752-95e5-41b9-9923-1be62c42d5ca","null","<p style=""text-align: center;"">+</p>","null","fixation","","","","","","","","","","","","","","","","","","","","","",""
"","","","","","html-slider-response","42","216843","0.0-17.0-0.8","d185a752-95e5-41b9-9923-1be62c42d5ca","1000","
                  <p style=""text-align: center;"">₪43
                                                <br>75%</p>
                  <p id=""wtp"" style=""text-align:center; margin-top: 0px; margin-bottom: 0px; font-size: 40px"";>&ensp;</p>","-","viewing","0","18","11B,19B,24A,26A","","","","","","","","","","","","","","","","","","",""
"","","","","","html-slider-response","43","218964","0.0-17.0-1.8","d185a752-95e5-41b9-9923-1be62c42d5ca","2120","
                  <p style=""text-align: center;"">₪43
                                                <br>75%</p>
                  <p id=""wtp"" style=""text-align:center; margin-top: 0px; margin-bottom: 0px; font-size: 40px"";>מוכנים לשלם: <span id=""c_p_y""></span></p>","60","evaluation","7","18","11B,19B,24A,26A","75","43","60","","","","","","","","","","","","","","","",""
"","","","","","html-keyboard-response","44","219574","0.0-17.0-2.8","d185a752-95e5-41b9-9923-1be62c42d5ca","null","<p style=""text-align: center;"">+</p>","null","fixation","","","","","","","","","","","","","","","","","","","","","",""
"","","","","","html-slider-response","45","220590","0.0-17.0-0.9","d185a752-95e5-41b9-9923-1be62c42d5ca","1000","
                  <p style=""text-align: center;"">₪76
                                                <br>65%</p>
                  <p id=""wtp"" style=""text-align:center; margin-top: 0px; margin-bottom: 0px; font-size: 40px"";>&ensp;</p>","-","viewing","0","29","8C,19A,24B","","","","","","","","","","","","","","","","","","",""
"","","","","","html-slider-response","46","223612","0.0-17.0-1.9","d185a752-95e5-41b9-9923-1be62c42d5ca","3021","
                  <p style=""text-align: center;"">₪76
                                                <br>65%</p>
                  <p id=""wtp"" style=""text-align:center; margin-top: 0px; margin-bottom: 0px; font-size: 40px"";>מוכנים לשלם: <span id=""c_p_y""></span></p>","80","evaluation","34","29","8C,19A,24B","65","76","80","","","","","","","","","","","","","","","",""
"","","","","","html-keyboard-response","47","224201","0.0-17.0-2.9","d185a752-95e5-41b9-9923-1be62c42d5ca","null","<p style=""text-align: center;"">+</p>","null","fixation","","","","","","","","","","","","","","","","","","","","","",""
"","","","","","html-slider-response","48","225206","0.0-17.0-0.10","d185a752-95e5-41b9-9923-1be62c42d5ca","1000","
                  <p style=""text-align: center;"">₪79
                                                <br>40%</p>
                  <p id=""wtp"" style=""text-align:center; margin-top: 0px; margin-bottom: 0px; font-size: 40px"";>&ensp;</p>","-","viewing","0","30","9B","","","","","","","","","","","","","","","","","","",""
"","","","","","html-slider-response","49","227116","0.0-17.0-1.10","d185a752-95e5-41b9-9923-1be62c42d5ca","1909","
                  <p style=""text-align: center;"">₪79
                                                <br>40%</p>
                  <p id=""wtp"" style=""text-align:center; margin-top: 0px; margin-bottom: 0px; font-size: 40px"";>מוכנים לשלם: <span id=""c_p_y""></span></p>","30","evaluation","67","30","9B","40","79","30","","","","","","","","","","","","","","","",""
"","","","","","html-keyboard-response","50","228552","0.0-17.0-2.10","d185a752-95e5-41b9-9923-1be62c42d5ca","null","<p style=""text-align: center;"">+</p>","null","fixation","","","","","","","","","","","","","","","","","","","","","",""
"","","","","","html-slider-response","51","229554","0.0-17.0-0.11","d185a752-95e5-41b9-9923-1be62c42d5ca","1000","
                  <p style=""text-align: center;"">₪36
                                                <br>60%</p>
                  <p id=""wtp"" style=""text-align:center; margin-top: 0px; margin-bottom: 0px; font-size: 40px"";>&ensp;</p>","-","viewing","0","12","1C,7C,15C","","","","","","","","","","","","","","","","","","",""
"","","","","","html-slider-response","52","231005","0.0-17.0-1.11","d185a752-95e5-41b9-9923-1be62c42d5ca","1449","
                  <p style=""text-align: center;"">₪36
                                                <br>60%</p>
                  <p id=""wtp"" style=""text-align:center; margin-top: 0px; margin-bottom: 0px; font-size: 40px"";>מוכנים לשלם: <span id=""c_p_y""></span></p>","30","evaluation","14","12","1C,7C,15C","60","36","30","","","","","","","","","","","","","","","",""
"","","","","","html-keyboard-response","53","231739","0.0-17.0-2.11","d185a752-95e5-41b9-9923-1be62c42d5ca","null","<p style=""text-align: center;"">+</p>","null","fixation","","","","","","","","","","","","","","","","","","","","","",""
"","","","","","html-slider-response","54","232742","0.0-17.0-0.12","d185a752-95e5-41b9-9923-1be62c42d5ca","1000","
                  <p style=""text-align: center;"">₪11
                                                <br>75%</p>
                  <p id=""wtp"" style=""text-align:center; margin-top: 0px; margin-bottom: 0px; font-size: 40px"";>&ensp;</p>","-","viewing","0","7","6B,18B,22C,24C,29A","","","","","","","","","","","","","","","","","","",""
"","","","","","html-slider-response","55","234757","0.0-17.0-1.12","d185a752-95e5-41b9-9923-1be62c42d5ca","2013","
                  <p style=""text-align: center;"">₪11
                                                <br>75%</p>
                  <p id=""wtp"" style=""text-align:center; margin-top: 0px; margin-bottom: 0px; font-size: 40px"";>מוכנים לשלם: <span id=""c_p_y""></span></p>","60","evaluation","58","7","6B,18B,22C,24C,29A","75","11","60","","","","","","","","","","","","","","","",""
"","","","","","html-keyboard-response","56","236084","0.0-17.0-2.12","d185a752-95e5-41b9-9923-1be62c42d5ca","null","<p style=""text-align: center;"">+</p>","null","fixation","","","","","","","","","","","","","","","","","","","","","",""
"","","","","","html-slider-response","57","237087","0.0-17.0-0.13","d185a752-95e5-41b9-9923-1be62c42d5ca","1000","
                  <p style=""text-align: center;"">₪61
                                                <br>45%</p>
                  <p id=""wtp"" style=""text-align:center; margin-top: 0px; margin-bottom: 0px; font-size: 40px"";>&ensp;</p>","-","viewing","0","22","10A,11A","","","","","","","","","","","","","","","","","","",""
"","","","","","html-slider-response","58","239716","0.0-17.0-1.13","d185a752-95e5-41b9-9923-1be62c42d5ca","2628","
                  <p style=""text-align: center;"">₪61
                                                <br>45%</p>
                  <p id=""wtp"" style=""text-align:center; margin-top: 0px; margin-bottom: 0px; font-size: 40px"";>מוכנים לשלם: <span id=""c_p_y""></span></p>","20","evaluation","55","22","10A,11A","45","61","20","","","","","","","","","","","","","","","",""
"","","","","","html-keyboard-response","59","241070","0.0-17.0-2.13","d185a752-95e5-41b9-9923-1be62c42d5ca","null","<p style=""text-align: center;"">+</p>","null","fixation","","","","","","","","","","","","","","","","","","","","","",""
"","","","","","html-slider-response","60","242073","0.0-17.0-0.14","d185a752-95e5-41b9-9923-1be62c42d5ca","1000","
                  <p style=""text-align: center;"">₪64
                                                <br>50%</p>
                  <p id=""wtp"" style=""text-align:center; margin-top: 0px; margin-bottom: 0px; font-size: 40px"";>&ensp;</p>","-","viewing","0","25","1B,3B,4A","","","","","","","","","","","","","","","","","","",""
"","","","","","html-slider-response","61","244692","0.0-17.0-1.14","d185a752-95e5-41b9-9923-1be62c42d5ca","2618","
                  <p style=""text-align: center;"">₪64
                                                <br>50%</p>
                  <p id=""wtp"" style=""text-align:center; margin-top: 0px; margin-bottom: 0px; font-size: 40px"";>מוכנים לשלם: <span id=""c_p_y""></span></p>","28","evaluation","34","25","1B,3B,4A","50","64","28","","","","","","","","","","","","","","","",""
"","","","","","html-keyboard-response","62","245985","0.0-17.0-2.14","d185a752-95e5-41b9-9923-1be62c42d5ca","null","<p style=""text-align: center;"">+</p>","null","fixation","","","","","","","","","","","","","","","","","","","","","",""
"","","","","","html-slider-response","63","246988","0.0-17.0-0.15","d185a752-95e5-41b9-9923-1be62c42d5ca","1000","
                  <p style=""text-align: center;"">₪11
                                                <br>25%</p>
                  <p id=""wtp"" style=""text-align:center; margin-top: 0px; margin-bottom: 0px; font-size: 40px"";>&ensp;</p>","-","viewing","0","5","12A,27B,28B,30B","","","","","","","","","","","","","","","","","","",""
"","","","","","html-slider-response","64","247997","0.0-17.0-1.15","d185a752-95e5-41b9-9923-1be62c42d5ca","1007","
                  <p style=""text-align: center;"">₪11
                                                <br>25%</p>
                  <p id=""wtp"" style=""text-align:center; margin-top: 0px; margin-bottom: 0px; font-size: 40px"";>מוכנים לשלם: <span id=""c_p_y""></span></p>","0","evaluation","4","5","12A,27B,28B,30B","25","11","0","","","","","","","","","","","","","","","",""
"","","","","","html-keyboard-response","65","249371","0.0-17.0-2.15","d185a752-95e5-41b9-9923-1be62c42d5ca","null","<p style=""text-align: center;"">+</p>","null","fixation","","","","","","","","","","","","","","","","","","","","","",""
"","","","","","html-slider-response","66","250372","0.0-17.0-0.16","d185a752-95e5-41b9-9923-1be62c42d5ca","1000","
                  <p style=""text-align: center;"">₪79
                                                <br>65%</p>
                  <p id=""wtp"" style=""text-align:center; margin-top: 0px; margin-bottom: 0px; font-size: 40px"";>&ensp;</p>","-","viewing","0","31","8A","","","","","","","","","","","","","","","","","","",""
"","","","","","html-slider-response","67","252164","0.0-17.0-1.16","d185a752-95e5-41b9-9923-1be62c42d5ca","1791","
                  <p style=""text-align: center;"">₪79
                                                <br>65%</p>
                  <p id=""wtp"" style=""text-align:center; margin-top: 0px; margin-bottom: 0px; font-size: 40px"";>מוכנים לשלם: <span id=""c_p_y""></span></p>","70","evaluation","4","31","8A","65","79","70","","","","","","","","","","","","","","","",""
"","","","","","html-keyboard-response","68","253161","0.0-17.0-2.16","d185a752-95e5-41b9-9923-1be62c42d5ca","null","<p style=""text-align: center;"">+</p>","null","fixation","","","","","","","","","","","","","","","","","","","","","",""
"","","","","","html-slider-response","69","254167","0.0-17.0-0.17","d185a752-95e5-41b9-9923-1be62c42d5ca","1000","
                  <p style=""text-align: center;"">₪58
                                                <br>45%</p>
                  <p id=""wtp"" style=""text-align:center; margin-top: 0px; margin-bottom: 0px; font-size: 40px"";>&ensp;</p>","-","viewing","0","21","11C,18C,25A","","","","","","","","","","","","","","","","","","",""
"","","","","","html-slider-response","70","256652","0.0-17.0-1.17","d185a752-95e5-41b9-9923-1be62c42d5ca","2485","
                  <p style=""text-align: center;"">₪58
                                                <br>45%</p>
                  <p id=""wtp"" style=""text-align:center; margin-top: 0px; margin-bottom: 0px; font-size: 40px"";>מוכנים לשלם: <span id=""c_p_y""></span></p>","40","evaluation","23","21","11C,18C,25A","45","58","40","","","","","","","","","","","","","","","",""
"","","","","","html-keyboard-response","71","257826","0.0-17.0-2.17","d185a752-95e5-41b9-9923-1be62c42d5ca","null","<p style=""text-align: center;"">+</p>","null","fixation","","","","","","","","","","","","","","","","","","","","","",""
"","","","","","html-slider-response","72","258840","0.0-17.0-0.18","d185a752-95e5-41b9-9923-1be62c42d5ca","1000","
                  <p style=""text-align: center;"">₪18
                                                <br>25%</p>
                  <p id=""wtp"" style=""text-align:center; margin-top: 0px; margin-bottom: 0px; font-size: 40px"";>&ensp;</p>","-","viewing","0","9","14A,23A","","","","","","","","","","","","","","","","","","",""
"","","","","","html-slider-response","73","261581","0.0-17.0-1.18","d185a752-95e5-41b9-9923-1be62c42d5ca","2739","
                  <p style=""text-align: center;"">₪18
                                                <br>25%</p>
                  <p id=""wtp"" style=""text-align:center; margin-top: 0px; margin-bottom: 0px; font-size: 40px"";>מוכנים לשלם: <span id=""c_p_y""></span></p>","11","evaluation","80","9","14A,23A","25","18","11","","","","","","","","","","","","","","","",""
"","","","","","html-keyboard-response","74","262281","0.0-17.0-2.18","d185a752-95e5-41b9-9923-1be62c42d5ca","null","<p style=""text-align: center;"">+</p>","null","fixation","","","","","","","","","","","","","","","","","","","","","",""
"","","","","","html-slider-response","75","263283","0.0-17.0-0.19","d185a752-95e5-41b9-9923-1be62c42d5ca","1000","
                  <p style=""text-align: center;"">₪39
                                                <br>65%</p>
                  <p id=""wtp"" style=""text-align:center; margin-top: 0px; margin-bottom: 0px; font-size: 40px"";>&ensp;</p>","-","viewing","0","16","1A,15A,26C","","","","","","","","","","","","","","","","","","",""
"","","","","","html-slider-response","76","265492","0.0-17.0-1.19","d185a752-95e5-41b9-9923-1be62c42d5ca","2208","
                  <p style=""text-align: center;"">₪39
                                                <br>65%</p>
                  <p id=""wtp"" style=""text-align:center; margin-top: 0px; margin-bottom: 0px; font-size: 40px"";>מוכנים לשלם: <span id=""c_p_y""></span></p>","63","evaluation","19","16","1A,15A,26C","65","39","63","","","","","","","","","","","","","","","",""
"","","","","","html-keyboard-response","77","266901","0.0-17.0-2.19","d185a752-95e5-41b9-9923-1be62c42d5ca","null","<p style=""text-align: center;"">+</p>","null","fixation","","","","","","","","","","","","","","","","","","","","","",""
"","","","","","html-slider-response","78","267914","0.0-17.0-0.20","d185a752-95e5-41b9-9923-1be62c42d5ca","1000","
                  <p style=""text-align: center;"">₪39
                                                <br>60%</p>
                  <p id=""wtp"" style=""text-align:center; margin-top: 0px; margin-bottom: 0px; font-size: 40px"";>&ensp;</p>","-","viewing","0","15","9C,25B","","","","","","","","","","","","","","","","","","",""
"","","","","","html-slider-response","79","269245","0.0-17.0-1.20","d185a752-95e5-41b9-9923-1be62c42d5ca","1329","
                  <p style=""text-align: center;"">₪39
                                                <br>60%</p>
                  <p id=""wtp"" style=""text-align:center; margin-top: 0px; margin-bottom: 0px; font-size: 40px"";>מוכנים לשלם: <span id=""c_p_y""></span></p>","61","evaluation","0","15","9C,25B","60","39","60","","","","","","","","","","","","","","","",""
"","","","","","html-keyboard-response","80","270175","0.0-17.0-2.20","d185a752-95e5-41b9-9923-1be62c42d5ca","null","<p style=""text-align: center;"">+</p>","null","fixation","","","","","","","","","","","","","","","","","","","","","",""
"","","","","","html-slider-response","81","271177","0.0-17.0-0.21","d185a752-95e5-41b9-9923-1be62c42d5ca","1000","
                  <p style=""text-align: center;"">₪36
                                                <br>30%</p>
                  <p id=""wtp"" style=""text-align:center; margin-top: 0px; margin-bottom: 0px; font-size: 40px"";>&ensp;</p>","-","viewing","0","11","3C,20A,22A","","","","","","","","","","","","","","","","","","",""
"","","","","","html-slider-response","82","273589","0.0-17.0-1.21","d185a752-95e5-41b9-9923-1be62c42d5ca","2410","
                  <p style=""text-align: center;"">₪36
                                                <br>30%</p>
                  <p id=""wtp"" style=""text-align:center; margin-top: 0px; margin-bottom: 0px; font-size: 40px"";>מוכנים לשלם: <span id=""c_p_y""></span></p>","11","evaluation","66","11","3C,20A,22A","30","36","11","","","","","","","","","","","","","","","",""
"","","","","","html-keyboard-response","83","274407","0.0-17.0-2.21","d185a752-95e5-41b9-9923-1be62c42d5ca","null","<p style=""text-align: center;"">+</p>","null","fixation","","","","","","","","","","","","","","","","","","","","","",""
"","","","","","html-slider-response","84","275411","0.0-17.0-0.22","d185a752-95e5-41b9-9923-1be62c42d5ca","1000","
                  <p style=""text-align: center;"">₪18
                                                <br>50%</p>
                  <p id=""wtp"" style=""text-align:center; margin-top: 0px; margin-bottom: 0px; font-size: 40px"";>&ensp;</p>","-","viewing","0","10","2C,16C,22B,28A","","","","","","","","","","","","","","","","","","",""
"","","","","","html-slider-response","85","277045","0.0-17.0-1.22","d185a752-95e5-41b9-9923-1be62c42d5ca","1632","
                  <p style=""text-align: center;"">₪18
                                                <br>50%</p>
                  <p id=""wtp"" style=""text-align:center; margin-top: 0px; margin-bottom: 0px; font-size: 40px"";>מוכנים לשלם: <span id=""c_p_y""></span></p>","17","evaluation","26","10","2C,16C,22B,28A","50","18","17","","","","","","","","","","","","","","","",""
"","","","","","html-keyboard-response","86","278522","0.0-17.0-2.22","d185a752-95e5-41b9-9923-1be62c42d5ca","null","<p style=""text-align: center;"">+</p>","null","fixation","","","","","","","","","","","","","","","","","","","","","",""
"","","","","","html-slider-response","87","279523","0.0-17.0-0.23","d185a752-95e5-41b9-9923-1be62c42d5ca","1000","
                  <p style=""text-align: center;"">₪58
                                                <br>30%</p>
                  <p id=""wtp"" style=""text-align:center; margin-top: 0px; margin-bottom: 0px; font-size: 40px"";>&ensp;</p>","-","viewing","0","19","13C,30A","","","","","","","","","","","","","","","","","","",""
"","","","","","html-slider-response","88","282261","0.0-17.0-1.23","d185a752-95e5-41b9-9923-1be62c42d5ca","2736","
                  <p style=""text-align: center;"">₪58
                                                <br>30%</p>
                  <p id=""wtp"" style=""text-align:center; margin-top: 0px; margin-bottom: 0px; font-size: 40px"";>מוכנים לשלם: <span id=""c_p_y""></span></p>","33","evaluation","26","19","13C,30A","30","58","33","","","","","","","","","","","","","","","",""
"","","","","","html-keyboard-response","89","283269","0.0-17.0-2.23","d185a752-95e5-41b9-9923-1be62c42d5ca","null","<p style=""text-align: center;"">+</p>","null","fixation","","","","","","","","","","","","","","","","","","","","","",""
"","","","","","html-slider-response","90","284274","0.0-17.0-0.24","d185a752-95e5-41b9-9923-1be62c42d5ca","1000","
                  <p style=""text-align: center;"">₪64
                                                <br>25%</p>
                  <p id=""wtp"" style=""text-align:center; margin-top: 0px; margin-bottom: 0px; font-size: 40px"";>&ensp;</p>","-","viewing","0","24","6A,21A","","","","","","","","","","","","","","","","","","",""
"","","","","","html-slider-response","91","286740","0.0-17.0-1.24","d185a752-95e5-41b9-9923-1be62c42d5ca","2464","
                  <p style=""text-align: center;"">₪64
                                                <br>25%</p>
                  <p id=""wtp"" style=""text-align:center; margin-top: 0px; margin-bottom: 0px; font-size: 40px"";>מוכנים לשלם: <span id=""c_p_y""></span></p>","14","evaluation","6","24","6A,21A","25","64","14","","","","","","","","","","","","","","","",""
"","","","","","html-keyboard-response","92","288227","0.0-17.0-2.24","d185a752-95e5-41b9-9923-1be62c42d5ca","null","<p style=""text-align: center;"">+</p>","null","fixation","","","","","","","","","","","","","","","","","","","","","",""
"","","","","","html-slider-response","93","289233","0.0-17.0-0.25","d185a752-95e5-41b9-9923-1be62c42d5ca","1000","
                  <p style=""text-align: center;"">₪36
                                                <br>70%</p>
                  <p id=""wtp"" style=""text-align:center; margin-top: 0px; margin-bottom: 0px; font-size: 40px"";>&ensp;</p>","-","viewing","0","13","3A,5C,10B","","","","","","","","","","","","","","","","","","",""
"","","","","","html-slider-response","94","291669","0.0-17.0-1.25","d185a752-95e5-41b9-9923-1be62c42d5ca","2434","
                  <p style=""text-align: center;"">₪36
                                                <br>70%</p>
                  <p id=""wtp"" style=""text-align:center; margin-top: 0px; margin-bottom: 0px; font-size: 40px"";>מוכנים לשלם: <span id=""c_p_y""></span></p>","52","evaluation","41","13","3A,5C,10B","70","36","52","","","","","","","","","","","","","","","",""
"","","","","","html-keyboard-response","95","293150","0.0-17.0-2.25","d185a752-95e5-41b9-9923-1be62c42d5ca","null","<p style=""text-align: center;"">+</p>","null","fixation","","","","","","","","","","","","","","","","","","","","","",""
"","","","","","html-slider-response","96","294154","0.0-17.0-0.26","d185a752-95e5-41b9-9923-1be62c42d5ca","1000","
                  <p style=""text-align: center;"">₪11
                                                <br>45%</p>
                  <p id=""wtp"" style=""text-align:center; margin-top: 0px; margin-bottom: 0px; font-size: 40px"";>&ensp;</p>","-","viewing","0","6","14B,21C,25C","","","","","","","","","","","","","","","","","","",""
"","","","","","html-slider-response","97","296444","0.0-17.0-1.26","d185a752-95e5-41b9-9923-1be62c42d5ca","2289","
                  <p style=""text-align: center;"">₪11
                                                <br>45%</p>
                  <p id=""wtp"" style=""text-align:center; margin-top: 0px; margin-bottom: 0px; font-size: 40px"";>מוכנים לשלם: <span id=""c_p_y""></span></p>","9","evaluation","49","6","14B,21C,25C","45","11","9","","","","","","","","","","","","","","","",""
"","","","","","html-keyboard-response","98","297429","0.0-17.0-2.26","d185a752-95e5-41b9-9923-1be62c42d5ca","null","<p style=""text-align: center;"">+</p>","null","fixation","","","","","","","","","","","","","","","","","","","","","",""
"","","","","","html-slider-response","99","298431","0.0-17.0-0.27","d185a752-95e5-41b9-9923-1be62c42d5ca","1000","
                  <p style=""text-align: center;"">₪71
                                                <br>45%</p>
                  <p id=""wtp"" style=""text-align:center; margin-top: 0px; margin-bottom: 0px; font-size: 40px"";>&ensp;</p>","-","viewing","0","26","2B,16A","","","","","","","","","","","","","","","","","","",""
"","","","","","html-slider-response","100","300037","0.0-17.0-1.27","d185a752-95e5-41b9-9923-1be62c42d5ca","1605","
                  <p style=""text-align: center;"">₪71
                                                <br>45%</p>
                  <p id=""wtp"" style=""text-align:center; margin-top: 0px; margin-bottom: 0px; font-size: 40px"";>מוכנים לשלם: <span id=""c_p_y""></span></p>","26","evaluation","78","26","2B,16A","45","71","26","","","","","","","","","","","","","","","",""
"","","","","","html-keyboard-response","101","301274","0.0-17.0-2.27","d185a752-95e5-41b9-9923-1be62c42d5ca","null","<p style=""text-align: center;"">+</p>","null","fixation","","","","","","","","","","","","","","","","","","","","","",""
"","","","","","html-slider-response","102","302276","0.0-17.0-0.28","d185a752-95e5-41b9-9923-1be62c42d5ca","1000","
                  <p style=""text-align: center;"">₪61
                                                <br>55%</p>
                  <p id=""wtp"" style=""text-align:center; margin-top: 0px; margin-bottom: 0px; font-size: 40px"";>&ensp;</p>","-","viewing","0","23","7B,26B","","","","","","","","","","","","","","","","","","",""
"","","","","","html-slider-response","103","305197","0.0-17.0-1.28","d185a752-95e5-41b9-9923-1be62c42d5ca","2919","
                  <p style=""text-align: center;"">₪61
                                                <br>55%</p>
                  <p id=""wtp"" style=""text-align:center; margin-top: 0px; margin-bottom: 0px; font-size: 40px"";>מוכנים לשלם: <span id=""c_p_y""></span></p>","48","evaluation","29","23","7B,26B","55","61","48","","","","","","","","","","","","","","","",""
"","","","","","html-keyboard-response","104","306657","0.0-17.0-2.28","d185a752-95e5-41b9-9923-1be62c42d5ca","null","<p style=""text-align: center;"">+</p>","null","fixation","","","","","","","","","","","","","","","","","","","","","",""
"","","","","","html-slider-response","105","307663","0.0-17.0-0.29","d185a752-95e5-41b9-9923-1be62c42d5ca","1000","
                  <p style=""text-align: center;"">₪71
                                                <br>75%</p>
                  <p id=""wtp"" style=""text-align:center; margin-top: 0px; margin-bottom: 0px; font-size: 40px"";>&ensp;</p>","-","viewing","0","28","8B","","","","","","","","","","","","","","","","","","",""
"","","","","","html-slider-response","106","309957","0.0-17.0-1.29","d185a752-95e5-41b9-9923-1be62c42d5ca","2293","
                  <p style=""text-align: center;"">₪71
                                                <br>75%</p>
                  <p id=""wtp"" style=""text-align:center; margin-top: 0px; margin-bottom: 0px; font-size: 40px"";>מוכנים לשלם: <span id=""c_p_y""></span></p>","33","evaluation","4","28","8B","75","71","33","","","","","","","","","","","","","","","",""
"","","","","","html-keyboard-response","107","310673","0.0-17.0-2.29","d185a752-95e5-41b9-9923-1be62c42d5ca","null","<p style=""text-align: center;"">+</p>","null","fixation","","","","","","","","","","","","","","","","","","","","","",""
"","","","","","html-slider-response","108","311674","0.0-17.0-0.30","d185a752-95e5-41b9-9923-1be62c42d5ca","1000","
                  <p style=""text-align: center;"">₪58
                                                <br>40%</p>
                  <p id=""wtp"" style=""text-align:center; margin-top: 0px; margin-bottom: 0px; font-size: 40px"";>&ensp;</p>","-","viewing","0","20","10C,13A,19C,21B","","","","","","","","","","","","","","","","","","",""
"","","","","","html-slider-response","109","313348","0.0-17.0-1.30","d185a752-95e5-41b9-9923-1be62c42d5ca","1673","
                  <p style=""text-align: center;"">₪58
                                                <br>40%</p>
                  <p id=""wtp"" style=""text-align:center; margin-top: 0px; margin-bottom: 0px; font-size: 40px"";>מוכנים לשלם: <span id=""c_p_y""></span></p>","25","evaluation","61","20","10C,13A,19C,21B","40","58","25","","","","","","","","","","","","","","","",""
"","","","","","html-keyboard-response","110","314668","0.0-17.0-2.30","d185a752-95e5-41b9-9923-1be62c42d5ca","null","<p style=""text-align: center;"">+</p>","null","fixation","","","","","","","","","","","","","","","","","","","","","",""
"","","","","","html-keyboard-response","111","315668","0.0-18.0","d185a752-95e5-41b9-9923-1be62c42d5ca","null","<p style=""text-align: center;"">+</p>","null","fixation","","","","","","","","","","","","","","","","","","","","","",""
"","","","","","html-keyboard-response","112","326596","0.0-19.0","d185a752-95e5-41b9-9923-1be62c42d5ca","null","<p>הפסקה.
          <br>לחצו כדי להמשיך.</p>","1","scan_wait","","","","","","","","","","","","","","","","","","","","","",""
"","","","","","html-keyboard-response","113","327601","0.0-20.0","d185a752-95e5-41b9-9923-1be62c42d5ca","null","<p style=""text-align: center;"">+</p>","null","fixation","","","","","","","","","","","","","","","","","","","","","",""
"","","","","","html-slider-response","114","328604","0.0-21.0-0.0","d185a752-95e5-41b9-9923-1be62c42d5ca","1000","
                  <p style=""text-align: center;"">₪43
                                                <br>60%</p>
                  <p id=""wtp"" style=""text-align:center; margin-top: 0px; margin-bottom: 0px; font-size: 40px"";>&ensp;</p>","-","viewing","0","17","2A,7A,9A,15B","","","","","","","","","","","","","","","","","","",""
"","","","","","html-slider-response","115","329844","0.0-21.0-1.0","d185a752-95e5-41b9-9923-1be62c42d5ca","1239","
                  <p style=""text-align: center;"">₪43
                                                <br>60%</p>
                  <p id=""wtp"" style=""text-align:center; margin-top: 0px; margin-bottom: 0px; font-size: 40px"";>מוכנים לשלם: <span id=""c_p_y""></span></p>","44","evaluation","57","17","2A,7A,9A,15B","60","43","44","","","","","","","","","","","","","","","",""
"","","","","","html-keyboard-response","116","330695","0.0-21.0-2.0","d185a752-95e5-41b9-9923-1be62c42d5ca","null","<p style=""text-align: center;"">+</p>","null","fixation","","","","","","","","","","","","","","","","","","","","","",""
"","","","","","html-slider-response","117","331697","0.0-21.0-0.1","d185a752-95e5-41b9-9923-1be62c42d5ca","1000","
                  <p style=""text-align: center;"">₪58
                                                <br>45%</p>
                  <p id=""wtp"" style=""text-align:center; margin-top: 0px; margin-bottom: 0px; font-size: 40px"";>&ensp;</p>","-","viewing","0","21","11C,18C,25A","","","","","","","","","","","","","","","","","","",""
"","","","","","html-slider-response","118","333357","0.0-21.0-1.1","d185a752-95e5-41b9-9923-1be62c42d5ca","1658","
                  <p style=""text-align: center;"">₪58
                                                <br>45%</p>
                  <p id=""wtp"" style=""text-align:center; margin-top: 0px; margin-bottom: 0px; font-size: 40px"";>מוכנים לשלם: <span id=""c_p_y""></span></p>","31","evaluation","76","21","11C,18C,25A","45","58","31","","","","","","","","","","","","","","","",""
"","","","","","html-keyboard-response","119","334166","0.0-21.0-2.1","d185a752-95e5-41b9-9923-1be62c42d5ca","null","<p style=""text-align: center;"">+</p>","null","fixation","","","","","","","","","","","","","","","","","","","","","",""
"","","","","","html-slider-response","120","335172","0.0-21.0-0.2","d185a752-95e5-41b9-9923-1be62c42d5ca","1000","
                  <p style=""text-align: center;"">₪11
                                                <br>25%</p>
                  <p id=""wtp"" style=""text-align:center; margin-top: 0px; margin-bottom: 0px; font-size: 40px"";>&ensp;</p>","-","viewing","0","5","12A,27B,28B,30B","","","","","","","","","","","","","","","","","","",""
"","","","","","html-slider-response","121","336813","0.0-21.0-1.2","d185a752-95e5-41b9-9923-1be62c42d5ca","1640","
                  <p style=""text-align: center;"">₪11
                                                <br>25%</p>
                  <p id=""wtp"" style=""text-align:center; margin-top: 0px; margin-bottom: 0px; font-size: 40px"";>מוכנים לשלם: <span id=""c_p_y""></span></p>","5","evaluation","32","5","12A,27B,28B,30B","25","11","5","","","","","","","","","","","","","","","",""
"","","","","","html-keyboard-response","122","337617","0.0-21.0-2.2","d185a752-95e5-41b9-9923-1be62c42d5ca","null","<p style=""text-align: center;"">+</p>","null","fixation","","","","","","","","","","","","","","","","","","","","","",""
"","","","","","html-slider-response","123","338621","0.0-21.0-0.3","d185a752-95e5-41b9-9923-1be62c42d5ca","1000","
                  <p style=""text-align: center;"">₪43
                                                <br>75%</p>
                  <p id=""wtp"" style=""text-align:center; margin-top: 0px; margin-bottom: 0px; font-size: 40px"";>&ensp;</p>","-","viewing","0","18","11B,19B,24A,26A","","","","","","","","","","","","","","","","","","",""
"","","","","","html-slider-response","124","340524","0.0-21.0-1.3","d185a752-95e5-41b9-9923-1be62c42d5ca","1902","
                  <p style=""text-align: center;"">₪43
                                                <br>75%</p>
                  <p id=""wtp"" style=""text-align:center; margin-top: 0px; margin-bottom: 0px; font-size: 40px"";>מוכנים לשלם: <span id=""c_p_y""></span></p>","80","evaluation","48","18","11B,19B,24A,26A","75","43","80","","","","","","","","","","","","","","","",""
"","","","","","html-keyboard-response","125","341943","0.0-21.0-2.3","d185a752-95e5-41b9-9923-1be62c42d5ca","null","<p style=""text-align: center;"">+</p>","null","fixation","","","","","","","","","","","","","","","","","","","","","",""
"","","","","","html-slider-response","126","342950","0.0-21.0-0.4","d185a752-95e5-41b9-9923-1be62c42d5ca","1000","
                  <p style=""text-align: center;"">₪58
                                                <br>30%</p>
                  <p id=""wtp"" style=""text-align:center; margin-top: 0px; margin-bottom: 0px; font-size: 40px"";>&ensp;</p>","-","viewing","0","19","13C,30A","","","","","","","","","","","","","","","","","","",""
"","","","","","html-slider-response","127","344509","0.0-21.0-1.4","d185a752-95e5-41b9-9923-1be62c42d5ca","1557","
                  <p style=""text-align: center;"">₪58
                                                <br>30%</p>
                  <p id=""wtp"" style=""text-align:center; margin-top: 0px; margin-bottom: 0px; font-size: 40px"";>מוכנים לשלם: <span id=""c_p_y""></span></p>","20","evaluation","44","19","13C,30A","30","58","20","","","","","","","","","","","","","","","",""
"","","","","","html-keyboard-response","128","345655","0.0-21.0-2.4","d185a752-95e5-41b9-9923-1be62c42d5ca","null","<p style=""text-align: center;"">+</p>","null","fixation","","","","","","","","","","","","","","","","","","","","","",""
"","","","","","html-slider-response","129","346659","0.0-21.0-0.5","d185a752-95e5-41b9-9923-1be62c42d5ca","1000","
                  <p style=""text-align: center;"">₪18
                                                <br>25%</p>
                  <p id=""wtp"" style=""text-align:center; margin-top: 0px; margin-bottom: 0px; font-size: 40px"";>&ensp;</p>","-","viewing","0","9","14A,23A","","","","","","","","","","","","","","","","","","",""
"","","","","","html-slider-response","130","348789","0.0-21.0-1.5","d185a752-95e5-41b9-9923-1be62c42d5ca","2128","
                  <p style=""text-align: center;"">₪18
                                                <br>25%</p>
                  <p id=""wtp"" style=""text-align:center; margin-top: 0px; margin-bottom: 0px; font-size: 40px"";>מוכנים לשלם: <span id=""c_p_y""></span></p>","9","evaluation","54","9","14A,23A","25","18","9","","","","","","","","","","","","","","","",""
"","","","","","html-keyboard-response","131","349610","0.0-21.0-2.5","d185a752-95e5-41b9-9923-1be62c42d5ca","null","<p style=""text-align: center;"">+</p>","null","fixation","","","","","","","","","","","","","","","","","","","","","",""
"","","","","","html-slider-response","132","350614","0.0-21.0-0.6","d185a752-95e5-41b9-9923-1be62c42d5ca","1000","
                  <p style=""text-align: center;"">₪64
                                                <br>50%</p>
                  <p id=""wtp"" style=""text-align:center; margin-top: 0px; margin-bottom: 0px; font-size: 40px"";>&ensp;</p>","-","viewing","0","25","1B,3B,4A","","","","","","","","","","","","","","","","","","",""
"","","","","","html-slider-response","133","352660","0.0-21.0-1.6","d185a752-95e5-41b9-9923-1be62c42d5ca","2045","
                  <p style=""text-align: center;"">₪64
                                                <br>50%</p>
                  <p id=""wtp"" style=""text-align:center; margin-top: 0px; margin-bottom: 0px; font-size: 40px"";>מוכנים לשלם: <span id=""c_p_y""></span></p>","36","evaluation","11","25","1B,3B,4A","50","64","36","","","","","","","","","","","","","","","",""
"","","","","","html-keyboard-response","134","353609","0.0-21.0-2.6","d185a752-95e5-41b9-9923-1be62c42d5ca","null","<p style=""text-align: center;"">+</p>","null","fixation","","","","","","","","","","","","","","","","","","","","","",""
"","","","","","html-slider-response","135","354611","0.0-21.0-0.7","d185a752-95e5-41b9-9923-1be62c42d5ca","1000","
                  <p style=""text-align: center;"">₪79
                                                <br>65%</p>
                  <p id=""wtp"" style=""text-align:center; margin-top: 0px; margin-bottom: 0px; font-size: 40px"";>&ensp;</p>","-","viewing","0","31","8A","","","","","","","","","","","","","","","","","","",""
"","","","","","html-slider-response","136","355804","0.0-21.0-1.7","d185a752-95e5-41b9-9923-1be62c42d5ca","1191","
                  <p style=""text-align: center;"">₪79
                                                <br>65%</p>
                  <p id=""wtp"" style=""text-align:center; margin-top: 0px; margin-bottom: 0px; font-size: 40px"";>מוכנים לשלם: <span id=""c_p_y""></span></p>","80","evaluation","50","31","8A","65","79","80","","","","","","","","","","","","","","","",""
"","","","","","html-keyboard-response","137","356811","0.0-21.0-2.7","d185a752-95e5-41b9-9923-1be62c42d5ca","null","<p style=""text-align: center;"">+</p>","null","fixation","","","","","","","","","","","","","","","","","","","","","",""
"","","","","","html-slider-response","138","357814","0.0-21.0-0.8","d185a752-95e5-41b9-9923-1be62c42d5ca","1000","
                  <p style=""text-align: center;"">₪18
                                                <br>50%</p>
                  <p id=""wtp"" style=""text-align:center; margin-top: 0px; margin-bottom: 0px; font-size: 40px"";>&ensp;</p>","-","viewing","0","10","2C,16C,22B,28A","","","","","","","","","","","","","","","","","","",""
"","","","","","html-slider-response","139","360069","0.0-21.0-1.8","d185a752-95e5-41b9-9923-1be62c42d5ca","2253","
                  <p style=""text-align: center;"">₪18
                                                <br>50%</p>
                  <p id=""wtp"" style=""text-align:center; margin-top: 0px; margin-bottom: 0px; font-size: 40px"";>מוכנים לשלם: <span id=""c_p_y""></span></p>","16","evaluation","64","10","2C,16C,22B,28A","50","18","16","","","","","","","","","","","","","","","",""
"","","","","","html-keyboard-response","140","361359","0.0-21.0-2.8","d185a752-95e5-41b9-9923-1be62c42d5ca","null","<p style=""text-align: center;"">+</p>","null","fixation","","","","","","","","","","","","","","","","","","","","","",""
"","","","","","html-slider-response","141","362365","0.0-21.0-0.9","d185a752-95e5-41b9-9923-1be62c42d5ca","1000","
                  <p style=""text-align: center;"">₪61
                                                <br>45%</p>
                  <p id=""wtp"" style=""text-align:center; margin-top: 0px; margin-bottom: 0px; font-size: 40px"";>&ensp;</p>","-","viewing","0","22","10A,11A","","","","","","","","","","","","","","","","","","",""
"","","","","","html-slider-response","142","363981","0.0-21.0-1.9","d185a752-95e5-41b9-9923-1be62c42d5ca","1614","
                  <p style=""text-align: center;"">₪61
                                                <br>45%</p>
                  <p id=""wtp"" style=""text-align:center; margin-top: 0px; margin-bottom: 0px; font-size: 40px"";>מוכנים לשלם: <span id=""c_p_y""></span></p>","28","evaluation","22","22","10A,11A","45","61","28","","","","","","","","","","","","","","","",""
"","","","","","html-keyboard-response","143","365076","0.0-21.0-2.9","d185a752-95e5-41b9-9923-1be62c42d5ca","null","<p style=""text-align: center;"">+</p>","null","fixation","","","","","","","","","","","","","","","","","","","","","",""
"","","","","","html-slider-response","144","366079","0.0-21.0-0.10","d185a752-95e5-41b9-9923-1be62c42d5ca","1000","
                  <p style=""text-align: center;"">₪16
                                                <br>20%</p>
                  <p id=""wtp"" style=""text-align:center; margin-top: 0px; margin-bottom: 0px; font-size: 40px"";>&ensp;</p>","-","viewing","0","8","14C,17A,20C,27A","","","","","","","","","","","","","","","","","","",""
"","","","","","html-slider-response","145","367685","0.0-21.0-1.10","d185a752-95e5-41b9-9923-1be62c42d5ca","1605","
                  <p style=""text-align: center;"">₪16
                                                <br>20%</p>
                  <p id=""wtp"" style=""text-align:center; margin-top: 0px; margin-bottom: 0px; font-size: 40px"";>מוכנים לשלם: <span id=""c_p_y""></span></p>","11","evaluation","66","8","14C,17A,20C,27A","20","16","11","","","","","","","","","","","","","","","",""
"","","","","","html-keyboard-response","146","369199","0.0-21.0-2.10","d185a752-95e5-41b9-9923-1be62c42d5ca","null","<p style=""text-align: center;"">+</p>","null","fixation","","","","","","","","","","","","","","","","","","","","","",""
"","","","","","html-slider-response","147","370215","0.0-21.0-0.11","d185a752-95e5-41b9-9923-1be62c42d5ca","1000","
                  <p style=""text-align: center;"">₪4
                                                <br>50%</p>
                  <p id=""wtp"" style=""text-align:center; margin-top: 0px; margin-bottom: 0px; font-size: 40px"";>&ensp;</p>","-","viewing","0","2","4C,17B","","","","","","","","","","","","","","","","","","",""
"","","","","","html-slider-response","148","371829","0.0-21.0-1.11","d185a752-95e5-41b9-9923-1be62c42d5ca","1613","
                  <p style=""text-align: center;"">₪4
                                                <br>50%</p>
                  <p id=""wtp"" style=""text-align:center; margin-top: 0px; margin-bottom: 0px; font-size: 40px"";>מוכנים לשלם: <span id=""c_p_y""></span></p>","3","evaluation","3","2","4C,17B","50","4","4","","","","","","","","","","","","","","","",""
"","","","","","html-keyboard-response","149","372948","0.0-21.0-2.11","d185a752-95e5-41b9-9923-1be62c42d5ca","null","<p style=""text-align: center;"">+</p>","null","fixation","","","","","","","","","","","","","","","","","","","","","",""
"","","","","","html-slider-response","150","373952","0.0-21.0-0.12","d185a752-95e5-41b9-9923-1be62c42d5ca","1000","
                  <p style=""text-align: center;"">₪11
                                                <br>75%</p>
                  <p id=""wtp"" style=""text-align:center; margin-top: 0px; margin-bottom: 0px; font-size: 40px"";>&ensp;</p>","-","viewing","0","7","6B,18B,22C,24C,29A","","","","","","","","","","","","","","","","","","",""
"","","","","","html-slider-response","151","375973","0.0-21.0-1.12","d185a752-95e5-41b9-9923-1be62c42d5ca","2020","
                  <p style=""text-align: center;"">₪11
                                                <br>75%</p>
                  <p id=""wtp"" style=""text-align:center; margin-top: 0px; margin-bottom: 0px; font-size: 40px"";>מוכנים לשלם: <span id=""c_p_y""></span></p>","60","evaluation","37","7","6B,18B,22C,24C,29A","75","11","60","","","","","","","","","","","","","","","",""
"","","","","","html-keyboard-response","152","377074","0.0-21.0-2.12","d185a752-95e5-41b9-9923-1be62c42d5ca","null","<p style=""text-align: center;"">+</p>","null","fixation","","","","","","","","","","","","","","","","","","","","","",""
"","","","","","html-slider-response","153","378088","0.0-21.0-0.13","d185a752-95e5-41b9-9923-1be62c42d5ca","1000","
                  <p style=""text-align: center;"">₪79
                                                <br>40%</p>
                  <p id=""wtp"" style=""text-align:center; margin-top: 0px; margin-bottom: 0px; font-size: 40px"";>&ensp;</p>","-","viewing","0","30","9B","","","","","","","","","","","","","","","","","","",""
"","","","","","html-slider-response","154","380525","0.0-21.0-1.13","d185a752-95e5-41b9-9923-1be62c42d5ca","2436","
                  <p style=""text-align: center;"">₪79
                                                <br>40%</p>
                  <p id=""wtp"" style=""text-align:center; margin-top: 0px; margin-bottom: 0px; font-size: 40px"";>מוכנים לשלם: <span id=""c_p_y""></span></p>","26","evaluation","7","30","9B","40","79","26","","","","","","","","","","","","","","","",""
"","","","","","html-keyboard-response","155","381157","0.0-21.0-2.13","d185a752-95e5-41b9-9923-1be62c42d5ca","null","<p style=""text-align: center;"">+</p>","null","fixation","","","","","","","","","","","","","","","","","","","","","",""
"","","","","","html-slider-response","156","382159","0.0-21.0-0.14","d185a752-95e5-41b9-9923-1be62c42d5ca","1000","
                  <p style=""text-align: center;"">₪61
                                                <br>55%</p>
                  <p id=""wtp"" style=""text-align:center; margin-top: 0px; margin-bottom: 0px; font-size: 40px"";>&ensp;</p>","-","viewing","0","23","7B,26B","","","","","","","","","","","","","","","","","","",""
"","","","","","html-slider-response","157","384613","0.0-21.0-1.14","d185a752-95e5-41b9-9923-1be62c42d5ca","2453","
                  <p style=""text-align: center;"">₪61
                                                <br>55%</p>
                  <p id=""wtp"" style=""text-align:center; margin-top: 0px; margin-bottom: 0px; font-size: 40px"";>מוכנים לשלם: <span id=""c_p_y""></span></p>","18","evaluation","63","23","7B,26B","55","61","18","","","","","","","","","","","","","","","",""
"","","","","","html-keyboard-response","158","385872","0.0-21.0-2.14","d185a752-95e5-41b9-9923-1be62c42d5ca","null","<p style=""text-align: center;"">+</p>","null","fixation","","","","","","","","","","","","","","","","","","","","","",""
"","","","","","html-slider-response","159","386885","0.0-21.0-0.15","d185a752-95e5-41b9-9923-1be62c42d5ca","1000","
                  <p style=""text-align: center;"">₪71
                                                <br>55%</p>
                  <p id=""wtp"" style=""text-align:center; margin-top: 0px; margin-bottom: 0px; font-size: 40px"";>&ensp;</p>","-","viewing","0","27","5B,18A","","","","","","","","","","","","","","","","","","",""
"","","","","","html-slider-response","160","388533","0.0-21.0-1.15","d185a752-95e5-41b9-9923-1be62c42d5ca","1647","
                  <p style=""text-align: center;"">₪71
                                                <br>55%</p>
                  <p id=""wtp"" style=""text-align:center; margin-top: 0px; margin-bottom: 0px; font-size: 40px"";>מוכנים לשלם: <span id=""c_p_y""></span></p>","34","evaluation","73","27","5B,18A","55","71","34","","","","","","","","","","","","","","","",""
"","","","","","html-keyboard-response","161","389235","0.0-21.0-2.15","d185a752-95e5-41b9-9923-1be62c42d5ca","null","<p style=""text-align: center;"">+</p>","null","fixation","","","","","","","","","","","","","","","","","","","","","",""
"","","","","","html-slider-response","162","390244","0.0-21.0-0.16","d185a752-95e5-41b9-9923-1be62c42d5ca","1000","
                  <p style=""text-align: center;"">₪71
                                                <br>75%</p>
                  <p id=""wtp"" style=""text-align:center; margin-top: 0px; margin-bottom: 0px; font-size: 40px"";>&ensp;</p>","-","viewing","0","28","8B","","","","","","","","","","","","","","","","","","",""
"","","","","","html-slider-response","163","392245","0.0-21.0-1.16","d185a752-95e5-41b9-9923-1be62c42d5ca","2000","
                  <p style=""text-align: center;"">₪71
                                                <br>75%</p>
                  <p id=""wtp"" style=""text-align:center; margin-top: 0px; margin-bottom: 0px; font-size: 40px"";>מוכנים לשלם: <span id=""c_p_y""></span></p>","61","evaluation","54","28","8B","75","71","61","","","","","","","","","","","","","","","",""
"","","","","","html-keyboard-response","164","393211","0.0-21.0-2.16","d185a752-95e5-41b9-9923-1be62c42d5ca","null","<p style=""text-align: center;"">+</p>","null","fixation","","","","","","","","","","","","","","","","","","","","","",""
"","","","","","html-slider-response","165","394218","0.0-21.0-0.17","d185a752-95e5-41b9-9923-1be62c42d5ca","1000","
                  <p style=""text-align: center;"">₪36
                                                <br>30%</p>
                  <p id=""wtp"" style=""text-align:center; margin-top: 0px; margin-bottom: 0px; font-size: 40px"";>&ensp;</p>","-","viewing","0","11","3C,20A,22A","","","","","","","","","","","","","","","","","","",""
"","","","","","html-slider-response","166","395589","0.0-21.0-1.17","d185a752-95e5-41b9-9923-1be62c42d5ca","1370","
                  <p style=""text-align: center;"">₪36
                                                <br>30%</p>
                  <p id=""wtp"" style=""text-align:center; margin-top: 0px; margin-bottom: 0px; font-size: 40px"";>מוכנים לשלם: <span id=""c_p_y""></span></p>","13","evaluation","71","11","3C,20A,22A","30","36","13","","","","","","","","","","","","","","","",""
"","","","","","html-keyboard-response","167","396134","0.0-21.0-2.17","d185a752-95e5-41b9-9923-1be62c42d5ca","null","<p style=""text-align: center;"">+</p>","null","fixation","","","","","","","","","","","","","","","","","","","","","",""
"","","","","","html-slider-response","168","397147","0.0-21.0-0.18","d185a752-95e5-41b9-9923-1be62c42d5ca","1000","
                  <p style=""text-align: center;"">₪36
                                                <br>70%</p>
                  <p id=""wtp"" style=""text-align:center; margin-top: 0px; margin-bottom: 0px; font-size: 40px"";>&ensp;</p>","-","viewing","0","13","3A,5C,10B","","","","","","","","","","","","","","","","","","",""
"","","","","","html-slider-response","169","398333","0.0-21.0-1.18","d185a752-95e5-41b9-9923-1be62c42d5ca","1185","
                  <p style=""text-align: center;"">₪36
                                                <br>70%</p>
                  <p id=""wtp"" style=""text-align:center; margin-top: 0px; margin-bottom: 0px; font-size: 40px"";>מוכנים לשלם: <span id=""c_p_y""></span></p>","49","evaluation","41","13","3A,5C,10B","70","36","49","","","","","","","","","","","","","","","",""
"","","","","","html-keyboard-response","170","399454","0.0-21.0-2.18","d185a752-95e5-41b9-9923-1be62c42d5ca","null","<p style=""text-align: center;"">+</p>","null","fixation","","","","","","","","","","","","","","","","","","","","","",""
"","","","","","html-slider-response","171","400471","0.0-21.0-0.19","d185a752-95e5-41b9-9923-1be62c42d5ca","1000","
                  <p style=""text-align: center;"">₪71
                                                <br>45%</p>
                  <p id=""wtp"" style=""text-align:center; margin-top: 0px; margin-bottom: 0px; font-size: 40px"";>&ensp;</p>","-","viewing","0","26","2B,16A","","","","","","","","","","","","","","","","","","",""
"","","","","","html-slider-response","172","402245","0.0-21.0-1.19","d185a752-95e5-41b9-9923-1be62c42d5ca","1773","
                  <p style=""text-align: center;"">₪71
                                                <br>45%</p>
                  <p id=""wtp"" style=""text-align:center; margin-top: 0px; margin-bottom: 0px; font-size: 40px"";>מוכנים לשלם: <span id=""c_p_y""></span></p>","26","evaluation","29","26","2B,16A","45","71","26","","","","","","","","","","","","","","","",""
"","","","","","html-keyboard-response","173","402981","0.0-21.0-2.19","d185a752-95e5-41b9-9923-1be62c42d5ca","null","<p style=""text-align: center;"">+</p>","null","fixation","","","","","","","","","","","","","","","","","","","","","",""
"","","","","","html-slider-response","174","403994","0.0-21.0-0.20","d185a752-95e5-41b9-9923-1be62c42d5ca","1000","
                  <p style=""text-align: center;"">₪76
                                                <br>65%</p>
                  <p id=""wtp"" style=""text-align:center; margin-top: 0px; margin-bottom: 0px; font-size: 40px"";>&ensp;</p>","-","viewing","0","29","8C,19A,24B","","","","","","","","","","","","","","","","","","",""
"","","","","","html-slider-response","175","406301","0.0-21.0-1.20","d185a752-95e5-41b9-9923-1be62c42d5ca","2306","
                  <p style=""text-align: center;"">₪76
                                                <br>65%</p>
                  <p id=""wtp"" style=""text-align:center; margin-top: 0px; margin-bottom: 0px; font-size: 40px"";>מוכנים לשלם: <span id=""c_p_y""></span></p>","53","evaluation","46","29","8C,19A,24B","65","76","53","","","","","","","","","","","","","","","",""
"","","","","","html-keyboard-response","176","407712","0.0-21.0-2.20","d185a752-95e5-41b9-9923-1be62c42d5ca","null","<p style=""text-align: center;"">+</p>","null","fixation","","","","","","","","","","","","","","","","","","","","","",""
"","","","","","html-slider-response","177","408719","0.0-21.0-0.21","d185a752-95e5-41b9-9923-1be62c42d5ca","1000","
                  <p style=""text-align: center;"">₪39
                                                <br>65%</p>
                  <p id=""wtp"" style=""text-align:center; margin-top: 0px; margin-bottom: 0px; font-size: 40px"";>&ensp;</p>","-","viewing","0","16","1A,15A,26C","","","","","","","","","","","","","","","","","","",""
"","","","","","html-slider-response","178","410813","0.0-21.0-1.21","d185a752-95e5-41b9-9923-1be62c42d5ca","2092","
                  <p style=""text-align: center;"">₪39
                                                <br>65%</p>
                  <p id=""wtp"" style=""text-align:center; margin-top: 0px; margin-bottom: 0px; font-size: 40px"";>מוכנים לשלם: <span id=""c_p_y""></span></p>","27","evaluation","12","16","1A,15A,26C","65","39","27","","","","","","","","","","","","","","","",""
"","","","","","html-keyboard-response","179","411340","0.0-21.0-2.21","d185a752-95e5-41b9-9923-1be62c42d5ca","null","<p style=""text-align: center;"">+</p>","null","fixation","","","","","","","","","","","","","","","","","","","","","",""
"","","","","","html-slider-response","180","412343","0.0-21.0-0.22","d185a752-95e5-41b9-9923-1be62c42d5ca","1000","
                  <p style=""text-align: center;"">₪64
                                                <br>25%</p>
                  <p id=""wtp"" style=""text-align:center; margin-top: 0px; margin-bottom: 0px; font-size: 40px"";>&ensp;</p>","-","viewing","0","24","6A,21A","","","","","","","","","","","","","","","","","","",""
"","","","","","html-slider-response","181","415029","0.0-21.0-1.22","d185a752-95e5-41b9-9923-1be62c42d5ca","2686","
                  <p style=""text-align: center;"">₪64
                                                <br>25%</p>
                  <p id=""wtp"" style=""text-align:center; margin-top: 0px; margin-bottom: 0px; font-size: 40px"";>מוכנים לשלם: <span id=""c_p_y""></span></p>","6","evaluation","32","24","6A,21A","25","64","6","","","","","","","","","","","","","","","",""
"","","","","","html-keyboard-response","182","416374","0.0-21.0-2.22","d185a752-95e5-41b9-9923-1be62c42d5ca","null","<p style=""text-align: center;"">+</p>","null","fixation","","","","","","","","","","","","","","","","","","","","","",""
"","","","","","html-slider-response","183","417375","0.0-21.0-0.23","d185a752-95e5-41b9-9923-1be62c42d5ca","1000","
                  <p style=""text-align: center;"">₪4
                                                <br>25%</p>
                  <p id=""wtp"" style=""text-align:center; margin-top: 0px; margin-bottom: 0px; font-size: 40px"";>&ensp;</p>","-","viewing","0","1","6C,29B,30C","","","","","","","","","","","","","","","","","","",""
"","","","","","html-slider-response","184","418101","0.0-21.0-1.23","d185a752-95e5-41b9-9923-1be62c42d5ca","725","
                  <p style=""text-align: center;"">₪4
                                                <br>25%</p>
                  <p id=""wtp"" style=""text-align:center; margin-top: 0px; margin-bottom: 0px; font-size: 40px"";>מוכנים לשלם: <span id=""c_p_y""></span></p>","1","evaluation","35","1","6C,29B,30C","25","4","1","","","","","","","","","","","","","","","",""
"","","","","","html-keyboard-response","185","419098","0.0-21.0-2.23","d185a752-95e5-41b9-9923-1be62c42d5ca","null","<p style=""text-align: center;"">+</p>","null","fixation","","","","","","","","","","","","","","","","","","","","","",""
"","","","","","html-slider-response","186","420101","0.0-21.0-0.24","d185a752-95e5-41b9-9923-1be62c42d5ca","1000","
                  <p style=""text-align: center;"">₪39
                                                <br>60%</p>
                  <p id=""wtp"" style=""text-align:center; margin-top: 0px; margin-bottom: 0px; font-size: 40px"";>&ensp;</p>","-","viewing","0","15","9C,25B","","","","","","","","","","","","","","","","","","",""
"","","","","","html-slider-response","187","421805","0.0-21.0-1.24","d185a752-95e5-41b9-9923-1be62c42d5ca","1702","
                  <p style=""text-align: center;"">₪39
                                                <br>60%</p>
                  <p id=""wtp"" style=""text-align:center; margin-top: 0px; margin-bottom: 0px; font-size: 40px"";>מוכנים לשלם: <span id=""c_p_y""></span></p>","55","evaluation","45","15","9C,25B","60","39","55","","","","","","","","","","","","","","","",""
"","","","","","html-keyboard-response","188","422667","0.0-21.0-2.24","d185a752-95e5-41b9-9923-1be62c42d5ca","null","<p style=""text-align: center;"">+</p>","null","fixation","","","","","","","","","","","","","","","","","","","","","",""
"","","","","","html-slider-response","189","423676","0.0-21.0-0.25","d185a752-95e5-41b9-9923-1be62c42d5ca","1000","
                  <p style=""text-align: center;"">₪58
                                                <br>40%</p>
                  <p id=""wtp"" style=""text-align:center; margin-top: 0px; margin-bottom: 0px; font-size: 40px"";>&ensp;</p>","-","viewing","0","20","10C,13A,19C,21B","","","","","","","","","","","","","","","","","","",""
"","","","","","html-slider-response","190","425493","0.0-21.0-1.25","d185a752-95e5-41b9-9923-1be62c42d5ca","1817","
                  <p style=""text-align: center;"">₪58
                                                <br>40%</p>
                  <p id=""wtp"" style=""text-align:center; margin-top: 0px; margin-bottom: 0px; font-size: 40px"";>מוכנים לשלם: <span id=""c_p_y""></span></p>","27","evaluation","0","20","10C,13A,19C,21B","40","58","27","","","","","","","","","","","","","","","",""
"","","","","","html-keyboard-response","191","426050","0.0-21.0-2.25","d185a752-95e5-41b9-9923-1be62c42d5ca","null","<p style=""text-align: center;"">+</p>","null","fixation","","","","","","","","","","","","","","","","","","","","","",""
"","","","","","html-slider-response","192","427058","0.0-21.0-0.26","d185a752-95e5-41b9-9923-1be62c42d5ca","1000","
                  <p style=""text-align: center;"">₪4
                                                <br>75%</p>
                  <p id=""wtp"" style=""text-align:center; margin-top: 0px; margin-bottom: 0px; font-size: 40px"";>&ensp;</p>","-","viewing","0","3","12B,20B,23B,27C,29C","","","","","","","","","","","","","","","","","","",""
"","","","","","html-slider-response","193","429045","0.0-21.0-1.26","d185a752-95e5-41b9-9923-1be62c42d5ca","1986","
                  <p style=""text-align: center;"">₪4
                                                <br>75%</p>
                  <p id=""wtp"" style=""text-align:center; margin-top: 0px; margin-bottom: 0px; font-size: 40px"";>מוכנים לשלם: <span id=""c_p_y""></span></p>","19","evaluation","73","3","12B,20B,23B,27C,29C","75","4","19","","","","","","","","","","","","","","","",""
"","","","","","html-keyboard-response","194","430380","0.0-21.0-2.26","d185a752-95e5-41b9-9923-1be62c42d5ca","null","<p style=""text-align: center;"">+</p>","null","fixation","","","","","","","","","","","","","","","","","","","","","",""
"","","","","","html-slider-response","195","431382","0.0-21.0-0.27","d185a752-95e5-41b9-9923-1be62c42d5ca","1000","
                  <p style=""text-align: center;"">₪11
                                                <br>45%</p>
                  <p id=""wtp"" style=""text-align:center; margin-top: 0px; margin-bottom: 0px; font-size: 40px"";>&ensp;</p>","-","viewing","0","6","14B,21C,25C","","","","","","","","","","","","","","","","","","",""
"","","","","","html-slider-response","196","433261","0.0-21.0-1.27","d185a752-95e5-41b9-9923-1be62c42d5ca","1878","
                  <p style=""text-align: center;"">₪11
                                                <br>45%</p>
                  <p id=""wtp"" style=""text-align:center; margin-top: 0px; margin-bottom: 0px; font-size: 40px"";>מוכנים לשלם: <span id=""c_p_y""></span></p>","4","evaluation","22","6","14B,21C,25C","45","11","4","","","","","","","","","","","","","","","",""
"","","","","","html-keyboard-response","197","433911","0.0-21.0-2.27","d185a752-95e5-41b9-9923-1be62c42d5ca","null","<p style=""text-align: center;"">+</p>","null","fixation","","","","","","","","","","","","","","","","","","","","","",""
"","","","","","html-slider-response","198","434926","0.0-21.0-0.28","d185a752-95e5-41b9-9923-1be62c42d5ca","1000","
                  <p style=""text-align: center;"">₪36
                                                <br>60%</p>
                  <p id=""wtp"" style=""text-align:center; margin-top: 0px; margin-bottom: 0px; font-size: 40px"";>&ensp;</p>","-","viewing","0","12","1C,7C,15C","","","","","","","","","","","","","","","","","","",""
"","","","","","html-slider-response","199","436205","0.0-21.0-1.28","d185a752-95e5-41b9-9923-1be62c42d5ca","1278","
                  <p style=""text-align: center;"">₪36
                                                <br>60%</p>
                  <p id=""wtp"" style=""text-align:center; margin-top: 0px; margin-bottom: 0px; font-size: 40px"";>מוכנים לשלם: <span id=""c_p_y""></span></p>","49","evaluation","13","12","1C,7C,15C","60","36","49","","","","","","","","","","","","","","","",""
"","","","","","html-keyboard-response","200","436913","0.0-21.0-2.28","d185a752-95e5-41b9-9923-1be62c42d5ca","null","<p style=""text-align: center;"">+</p>","null","fixation","","","","","","","","","","","","","","","","","","","","","",""
"","","","","","html-slider-response","201","437916","0.0-21.0-0.29","d185a752-95e5-41b9-9923-1be62c42d5ca","1000","
                  <p style=""text-align: center;"">₪11
                                                <br>20%</p>
                  <p id=""wtp"" style=""text-align:center; margin-top: 0px; margin-bottom: 0px; font-size: 40px"";>&ensp;</p>","-","viewing","0","4","12C,17C,23C,28C","","","","","","","","","","","","","","","","","","",""
"","","","","","html-slider-response","202","438877","0.0-21.0-1.29","d185a752-95e5-41b9-9923-1be62c42d5ca","960","
                  <p style=""text-align: center;"">₪11
                                                <br>20%</p>
                  <p id=""wtp"" style=""text-align:center; margin-top: 0px; margin-bottom: 0px; font-size: 40px"";>מוכנים לשלם: <span id=""c_p_y""></span></p>","4","evaluation","80","4","12C,17C,23C,28C","20","11","4","","","","","","","","","","","","","","","",""
"","","","","","html-keyboard-response","203","439669","0.0-21.0-2.29","d185a752-95e5-41b9-9923-1be62c42d5ca","null","<p style=""text-align: center;"">+</p>","null","fixation","","","","","","","","","","","","","","","","","","","","","",""
"","","","","","html-slider-response","204","440681","0.0-21.0-0.30","d185a752-95e5-41b9-9923-1be62c42d5ca","1000","
                  <p style=""text-align: center;"">₪36
                                                <br>75%</p>
                  <p id=""wtp"" style=""text-align:center; margin-top: 0px; margin-bottom: 0px; font-size: 40px"";>&ensp;</p>","-","viewing","0","14","4B,5A,13B,16B","","","","","","","","","","","","","","","","","","",""
"","","","","","html-slider-response","205","442405","0.0-21.0-1.30","d185a752-95e5-41b9-9923-1be62c42d5ca","1722","
                  <p style=""text-align: center;"">₪36
                                                <br>75%</p>
                  <p id=""wtp"" style=""text-align:center; margin-top: 0px; margin-bottom: 0px; font-size: 40px"";>מוכנים לשלם: <span id=""c_p_y""></span></p>","52","evaluation","31","14","4B,5A,13B,16B","75","36","52","","","","","","","","","","","","","","","",""
"","","","","","html-keyboard-response","206","443642","0.0-21.0-2.30","d185a752-95e5-41b9-9923-1be62c42d5ca","null","<p style=""text-align: center;"">+</p>","null","fixation","","","","","","","","","","","","","","","","","","","","","",""
"","","","","","html-keyboard-response","207","444643","0.0-22.0","d185a752-95e5-41b9-9923-1be62c42d5ca","null","<p style=""text-align: center;"">+</p>","null","fixation","","","","","","","","","","","","","","","","","","","","","",""
"","","","","","html-keyboard-response","208","456197","0.0-23.0","d185a752-95e5-41b9-9923-1be62c42d5ca","null","<p>הפסקה.
          <br>לחצו כדי להמשיך.</p>","1","scan_wait","","","","","","","","","","","","","","","","","","","","","",""
"","","","","","html-keyboard-response","209","457202","0.0-24.0","d185a752-95e5-41b9-9923-1be62c42d5ca","null","<p style=""text-align: center;"">+</p>","null","fixation","","","","","","","","","","","","","","","","","","","","","",""
"","","","","","html-slider-response","210","458204","0.0-25.0-0.0","d185a752-95e5-41b9-9923-1be62c42d5ca","1000","
                  <p style=""text-align: center;"">₪58
                                                <br>30%</p>
                  <p id=""wtp"" style=""text-align:center; margin-top: 0px; margin-bottom: 0px; font-size: 40px"";>&ensp;</p>","-","viewing","0","19","13C,30A","","","","","","","","","","","","","","","","","","",""
"","","","","","html-slider-response","211","460093","0.0-25.0-1.0","d185a752-95e5-41b9-9923-1be62c42d5ca","1887","
                  <p style=""text-align: center;"">₪58
                                                <br>30%</p>
                  <p id=""wtp"" style=""text-align:center; margin-top: 0px; margin-bottom: 0px; font-size: 40px"";>מוכנים לשלם: <span id=""c_p_y""></span></p>","14","evaluation","3","19","13C,30A","30","58","14","","","","","","","","","","","","","","","",""
"","","","","","html-keyboard-response","212","461261","0.0-25.0-2.0","d185a752-95e5-41b9-9923-1be62c42d5ca","null","<p style=""text-align: center;"">+</p>","null","fixation","","","","","","","","","","","","","","","","","","","","","",""
"","","","","","html-slider-response","213","462268","0.0-25.0-0.1","d185a752-95e5-41b9-9923-1be62c42d5ca","1000","
                  <p style=""text-align: center;"">₪71
                                                <br>55%</p>
                  <p id=""wtp"" style=""text-align:center; margin-top: 0px; margin-bottom: 0px; font-size: 40px"";>&ensp;</p>","-","viewing","0","27","5B,18A","","","","","","","","","","","","","","","","","","",""
"","","","","","html-slider-response","214","463893","0.0-25.0-1.1","d185a752-95e5-41b9-9923-1be62c42d5ca","1623","
                  <p style=""text-align: center;"">₪71
                                                <br>55%</p>
                  <p id=""wtp"" style=""text-align:center; margin-top: 0px; margin-bottom: 0px; font-size: 40px"";>מוכנים לשלם: <span id=""c_p_y""></span></p>","52","evaluation","71","27","5B,18A","55","71","52","","","","","","","","","","","","","","","",""
"","","","","","html-keyboard-response","215","464553","0.0-25.0-2.1","d185a752-95e5-41b9-9923-1be62c42d5ca","null","<p style=""text-align: center;"">+</p>","null","fixation","","","","","","","","","","","","","","","","","","","","","",""
"","","","","","html-slider-response","216","465557","0.0-25.0-0.2","d185a752-95e5-41b9-9923-1be62c42d5ca","1000","
                  <p style=""text-align: center;"">₪36
                                                <br>30%</p>
                  <p id=""wtp"" style=""text-align:center; margin-top: 0px; margin-bottom: 0px; font-size: 40px"";>&ensp;</p>","-","viewing","0","11","3C,20A,22A","","","","","","","","","","","","","","","","","","",""
"","","","","","html-slider-response","217","467285","0.0-25.0-1.2","d185a752-95e5-41b9-9923-1be62c42d5ca","1727","
                  <p style=""text-align: center;"">₪36
                                                <br>30%</p>
                  <p id=""wtp"" style=""text-align:center; margin-top: 0px; margin-bottom: 0px; font-size: 40px"";>מוכנים לשלם: <span id=""c_p_y""></span></p>","14","evaluation","46","11","3C,20A,22A","30","36","14","","","","","","","","","","","","","","","",""
"","","","","","html-keyboard-response","218","468117","0.0-25.0-2.2","d185a752-95e5-41b9-9923-1be62c42d5ca","null","<p style=""text-align: center;"">+</p>","null","fixation","","","","","","","","","","","","","","","","","","","","","",""
"","","","","","html-slider-response","219","469118","0.0-25.0-0.3","d185a752-95e5-41b9-9923-1be62c42d5ca","1000","
                  <p style=""text-align: center;"">₪79
                                                <br>40%</p>
                  <p id=""wtp"" style=""text-align:center; margin-top: 0px; margin-bottom: 0px; font-size: 40px"";>&ensp;</p>","-","viewing","0","30","9B","","","","","","","","","","","","","","","","","","",""
"","","","","","html-slider-response","220","471997","0.0-25.0-1.3","d185a752-95e5-41b9-9923-1be62c42d5ca","2878","
                  <p style=""text-align: center;"">₪79
                                                <br>40%</p>
                  <p id=""wtp"" style=""text-align:center; margin-top: 0px; margin-bottom: 0px; font-size: 40px"";>מוכנים לשלם: <span id=""c_p_y""></span></p>","29","evaluation","69","30","9B","40","79","29","","","","","","","","","","","","","","","",""
"","","","","","html-keyboard-response","221","473449","0.0-25.0-2.3","d185a752-95e5-41b9-9923-1be62c42d5ca","null","<p style=""text-align: center;"">+</p>","null","fixation","","","","","","","","","","","","","","","","","","","","","",""
"","","","","","html-slider-response","222","474453","0.0-25.0-0.4","d185a752-95e5-41b9-9923-1be62c42d5ca","1000","
                  <p style=""text-align: center;"">₪39
                                                <br>65%</p>
                  <p id=""wtp"" style=""text-align:center; margin-top: 0px; margin-bottom: 0px; font-size: 40px"";>&ensp;</p>","-","viewing","0","16","1A,15A,26C","","","","","","","","","","","","","","","","","","",""
"","","","","","html-slider-response","223","478445","0.0-25.0-1.4","d185a752-95e5-41b9-9923-1be62c42d5ca","3990","
                  <p style=""text-align: center;"">₪39
                                                <br>65%</p>
                  <p id=""wtp"" style=""text-align:center; margin-top: 0px; margin-bottom: 0px; font-size: 40px"";>מוכנים לשלם: <span id=""c_p_y""></span></p>","14","evaluation","30","16","1A,15A,26C","65","39","14","","","","","","","","","","","","","","","",""
"","","","","","html-keyboard-response","224","479076","0.0-25.0-2.4","d185a752-95e5-41b9-9923-1be62c42d5ca","null","<p style=""text-align: center;"">+</p>","null","fixation","","","","","","","","","","","","","","","","","","","","","",""
"","","","","","html-slider-response","225","480089","0.0-25.0-0.5","d185a752-95e5-41b9-9923-1be62c42d5ca","1000","
                  <p style=""text-align: center;"">₪43
                                                <br>75%</p>
                  <p id=""wtp"" style=""text-align:center; margin-top: 0px; margin-bottom: 0px; font-size: 40px"";>&ensp;</p>","-","viewing","0","18","11B,19B,24A,26A","","","","","","","","","","","","","","","","","","",""
"","","","","","html-slider-response","226","482581","0.0-25.0-1.5","d185a752-95e5-41b9-9923-1be62c42d5ca","2490","
                  <p style=""text-align: center;"">₪43
                                                <br>75%</p>
                  <p id=""wtp"" style=""text-align:center; margin-top: 0px; margin-bottom: 0px; font-size: 40px"";>מוכנים לשלם: <span id=""c_p_y""></span></p>","60","evaluation","68","18","11B,19B,24A,26A","75","43","60","","","","","","","","","","","","","","","",""
"","","","","","html-keyboard-response","227","483449","0.0-25.0-2.5","d185a752-95e5-41b9-9923-1be62c42d5ca","null","<p style=""text-align: center;"">+</p>","null","fixation","","","","","","","","","","","","","","","","","","","","","",""
"","","","","","html-slider-response","228","484458","0.0-25.0-0.6","d185a752-95e5-41b9-9923-1be62c42d5ca","1000","
                  <p style=""text-align: center;"">₪71
                                                <br>45%</p>
                  <p id=""wtp"" style=""text-align:center; margin-top: 0px; margin-bottom: 0px; font-size: 40px"";>&ensp;</p>","-","viewing","0","26","2B,16A","","","","","","","","","","","","","","","","","","",""
"","","","","","html-slider-response","229","486829","0.0-25.0-1.6","d185a752-95e5-41b9-9923-1be62c42d5ca","2370","
                  <p style=""text-align: center;"">₪71
                                                <br>45%</p>
                  <p id=""wtp"" style=""text-align:center; margin-top: 0px; margin-bottom: 0px; font-size: 40px"";>מוכנים לשלם: <span id=""c_p_y""></span></p>","24","evaluation","39","26","2B,16A","45","71","24","","","","","","","","","","","","","","","",""
"","","","","","html-keyboard-response","230","487534","0.0-25.0-2.6","d185a752-95e5-41b9-9923-1be62c42d5ca","null","<p style=""text-align: center;"">+</p>","null","fixation","","","","","","","","","","","","","","","","","","","","","",""
"","","","","","html-slider-response","231","488535","0.0-25.0-0.7","d185a752-95e5-41b9-9923-1be62c42d5ca","1000","
                  <p style=""text-align: center;"">₪36
                                                <br>75%</p>
                  <p id=""wtp"" style=""text-align:center; margin-top: 0px; margin-bottom: 0px; font-size: 40px"";>&ensp;</p>","-","viewing","0","14","4B,5A,13B,16B","","","","","","","","","","","","","","","","","","",""
"","","","","","html-slider-response","232","490637","0.0-25.0-1.7","d185a752-95e5-41b9-9923-1be62c42d5ca","2101","
                  <p style=""text-align: center;"">₪36
                                                <br>75%</p>
                  <p id=""wtp"" style=""text-align:center; margin-top: 0px; margin-bottom: 0px; font-size: 40px"";>מוכנים לשלם: <span id=""c_p_y""></span></p>","63","evaluation","60","14","4B,5A,13B,16B","75","36","62","","","","","","","","","","","","","","","",""
"","","","","","html-keyboard-response","233","491209","0.0-25.0-2.7","d185a752-95e5-41b9-9923-1be62c42d5ca","null","<p style=""text-align: center;"">+</p>","null","fixation","","","","","","","","","","","","","","","","","","","","","",""
"","","","","","html-slider-response","234","492211","0.0-25.0-0.8","d185a752-95e5-41b9-9923-1be62c42d5ca","1000","
                  <p style=""text-align: center;"">₪64
                                                <br>25%</p>
                  <p id=""wtp"" style=""text-align:center; margin-top: 0px; margin-bottom: 0px; font-size: 40px"";>&ensp;</p>","-","viewing","0","24","6A,21A","","","","","","","","","","","","","","","","","","",""
"","","","","","html-slider-response","235","495213","0.0-25.0-1.8","d185a752-95e5-41b9-9923-1be62c42d5ca","3001","
                  <p style=""text-align: center;"">₪64
                                                <br>25%</p>
                  <p id=""wtp"" style=""text-align:center; margin-top: 0px; margin-bottom: 0px; font-size: 40px"";>מוכנים לשלם: <span id=""c_p_y""></span></p>","50","evaluation","43","24","6A,21A","25","64","50","","","","","","","","","","","","","","","",""
"","","","","","html-keyboard-response","236","496043","0.0-25.0-2.8","d185a752-95e5-41b9-9923-1be62c42d5ca","null","<p style=""text-align: center;"">+</p>","null","fixation","","","","","","","","","","","","","","","","","","","","","",""
"","","","","","html-slider-response","237","497052","0.0-25.0-0.9","d185a752-95e5-41b9-9923-1be62c42d5ca","1000","
                  <p style=""text-align: center;"">₪76
                                                <br>65%</p>
                  <p id=""wtp"" style=""text-align:center; margin-top: 0px; margin-bottom: 0px; font-size: 40px"";>&ensp;</p>","-","viewing","0","29","8C,19A,24B","","","","","","","","","","","","","","","","","","",""
"","","","","","html-slider-response","238","498909","0.0-25.0-1.9","d185a752-95e5-41b9-9923-1be62c42d5ca","1856","
                  <p style=""text-align: center;"">₪76
                                                <br>65%</p>
                  <p id=""wtp"" style=""text-align:center; margin-top: 0px; margin-bottom: 0px; font-size: 40px"";>מוכנים לשלם: <span id=""c_p_y""></span></p>","42","evaluation","72","29","8C,19A,24B","65","76","42","","","","","","","","","","","","","","","",""
"","","","","","html-keyboard-response","239","500002","0.0-25.0-2.9","d185a752-95e5-41b9-9923-1be62c42d5ca","null","<p style=""text-align: center;"">+</p>","null","fixation","","","","","","","","","","","","","","","","","","","","","",""
"","","","","","html-slider-response","240","501012","0.0-25.0-0.10","d185a752-95e5-41b9-9923-1be62c42d5ca","1000","
                  <p style=""text-align: center;"">₪36
                                                <br>60%</p>
                  <p id=""wtp"" style=""text-align:center; margin-top: 0px; margin-bottom: 0px; font-size: 40px"";>&ensp;</p>","-","viewing","0","12","1C,7C,15C","","","","","","","","","","","","","","","","","","",""
"","","","","","html-slider-response","241","504085","0.0-25.0-1.10","d185a752-95e5-41b9-9923-1be62c42d5ca","3072","
                  <p style=""text-align: center;"">₪36
                                                <br>60%</p>
                  <p id=""wtp"" style=""text-align:center; margin-top: 0px; margin-bottom: 0px; font-size: 40px"";>מוכנים לשלם: <span id=""c_p_y""></span></p>","35","evaluation","68","12","1C,7C,15C","60","36","35","","","","","","","","","","","","","","","",""
"","","","","","html-keyboard-response","242","505033","0.0-25.0-2.10","d185a752-95e5-41b9-9923-1be62c42d5ca","null","<p style=""text-align: center;"">+</p>","null","fixation","","","","","","","","","","","","","","","","","","","","","",""
"","","","","","html-slider-response","243","506035","0.0-25.0-0.11","d185a752-95e5-41b9-9923-1be62c42d5ca","1000","
                  <p style=""text-align: center;"">₪11
                                                <br>25%</p>
                  <p id=""wtp"" style=""text-align:center; margin-top: 0px; margin-bottom: 0px; font-size: 40px"";>&ensp;</p>","-","viewing","0","5","12A,27B,28B,30B","","","","","","","","","","","","","","","","","","",""
"","","","","","html-slider-response","244","507333","0.0-25.0-1.11","d185a752-95e5-41b9-9923-1be62c42d5ca","1297","
                  <p style=""text-align: center;"">₪11
                                                <br>25%</p>
                  <p id=""wtp"" style=""text-align:center; margin-top: 0px; margin-bottom: 0px; font-size: 40px"";>מוכנים לשלם: <span id=""c_p_y""></span></p>","7","evaluation","20","5","12A,27B,28B,30B","25","11","7","","","","","","","","","","","","","","","",""
"","","","","","html-keyboard-response","245","508097","0.0-25.0-2.11","d185a752-95e5-41b9-9923-1be62c42d5ca","null","<p style=""text-align: center;"">+</p>","null","fixation","","","","","","","","","","","","","","","","","","","","","",""
"","","","","","html-slider-response","246","509101","0.0-25.0-0.12","d185a752-95e5-41b9-9923-1be62c42d5ca","1000","
                  <p style=""text-align: center;"">₪4
                                                <br>75%</p>
                  <p id=""wtp"" style=""text-align:center; margin-top: 0px; margin-bottom: 0px; font-size: 40px"";>&ensp;</p>","-","viewing","0","3","12B,20B,23B,27C,29C","","","","","","","","","","","","","","","","","","",""
"","","","","","html-slider-response","247","510413","0.0-25.0-1.12","d185a752-95e5-41b9-9923-1be62c42d5ca","1311","
                  <p style=""text-align: center;"">₪4
                                                <br>75%</p>
                  <p id=""wtp"" style=""text-align:center; margin-top: 0px; margin-bottom: 0px; font-size: 40px"";>מוכנים לשלם: <span id=""c_p_y""></span></p>","10","evaluation","71","3","12B,20B,23B,27C,29C","75","4","10","","","","","","","","","","","","","","","",""
"","","","","","html-keyboard-response","248","511432","0.0-25.0-2.12","d185a752-95e5-41b9-9923-1be62c42d5ca","null","<p style=""text-align: center;"">+</p>","null","fixation","","","","","","","","","","","","","","","","","","","","","",""
"","","","","","html-slider-response","249","512446","0.0-25.0-0.13","d185a752-95e5-41b9-9923-1be62c42d5ca","1000","
                  <p style=""text-align: center;"">₪11
                                                <br>75%</p>
                  <p id=""wtp"" style=""text-align:center; margin-top: 0px; margin-bottom: 0px; font-size: 40px"";>&ensp;</p>","-","viewing","0","7","6B,18B,22C,24C,29A","","","","","","","","","","","","","","","","","","",""
"","","","","","html-slider-response","250","514149","0.0-25.0-1.13","d185a752-95e5-41b9-9923-1be62c42d5ca","1702","
                  <p style=""text-align: center;"">₪11
                                                <br>75%</p>
