"success","timeout","failed_images","failed_audio","failed_video","trial_type","trial_index","time_elapsed","internal_node_id","subject_id","rt","stimulus","response","part","slider_start","ID","set_ID","prob","amount","last_location","actual_choice","actual_EV","binary_id","trinary_id","catch","direction","A_key","S_key","D_key","choice_prob","choice_amount","chosen_part","potential_prize_prob","potential_prize_amount","won_prize","total_prize","prize_cost","accuracy"
"true","false","[]","[]","[]","preload","0","67","0.0-0.0","9b7ebcd5-2ebc-4338-a938-05af65044106","","","","","","","","","","","","","","","","","","","","","","","","","","","",""
"","","","","","html-keyboard-response","1","821501","0.0-1.0","9b7ebcd5-2ebc-4338-a938-05af65044106","null","
          <h1>שלום וברוכים הבאים!</h1>
          <p>לפניכם ניסוי בקבלת החלטות עם שני חלקים.
          <br><br>לחצו על העכבר כדי להמשיך.</p>","0","example","","","","","","","","","","","","","","","","","","","","","","","",""
"","","","","","html-keyboard-response","2","854028","0.0-2.0","9b7ebcd5-2ebc-4338-a938-05af65044106","null","
        <h1>חלק 1</h1>
        <p>בקרוב יוצגו בפניכם הגרלות.
        <br>עליכם לבחור את המחיר המירבי שתהיו מוכנים לשלם כדי להשתתף בהגרלה שתוצג.
        <br>יש לכם תקציב של ₪80 לכל הגרלה. 
        <br>נסו להעריך כל הגרלה בנפרד ולחשוב כמה היא שווה עבורכם, ₪80 זמינים לכל הגרלה בנפרד.
        <br><br>לחצו על העכבר כדי להמשיך.</p>","1","instructions","","","","","","","","","","","","","","","","","","","","","","","",""
"","","","","","html-keyboard-response","3","882361","0.0-3.0","9b7ebcd5-2ebc-4338-a938-05af65044106","null","
        <p>בסוף הניסוי, המחשב יבחר את אחת ההגרלות ויקבע מחיר לכרטיס עבורה. 
        <br>במידה והמחיר שבחרתם נמוך מהמחיר שנבחר על ידי המחשב, לא תשתתפו בהגרלה ותשארו עם מלוא התקציב.
        <br>במידה והמחיר שבחרתם גבוה מהמחיר שנבחר על ידי המחשב, תשלמו את המחיר שנקבע ותשתתפו בהגרלה.
        <br><br>לחצו על העכבר כדי להמשיך.</p>","1","instructions","","","","","","","","","","","","","","","","","","","","","","","",""
"","","","","","html-slider-response","4","933322","0.0-4.0","9b7ebcd5-2ebc-4338-a938-05af65044106","50849","
        <p style=""font-size: 42px;"">נתחיל עם דוגמא: 
        <br>ההגרלה מטה מציעה 65% סיכוי לזכות ב-₪40 
        <br>&emsp;&emsp;&emsp;&emsp;&emsp;&emsp;&emsp;&emsp;&ensp;35% סיכוי לזכות ב-₪0.
        <br><br>מה המחיר המירבי שתהיו מוכנים לשלם על כרטיס להגרלה זו בין 0 ל-₪80?
        <br>הזיזו את העכבר על פני המלבן ולחצו כדי לבצע בחירה.</p>
        
        <p style=""text-align: center;"">₪40<br>65%</p>

        <p id=""wtp"" style=""text-align:center; margin-top: 0px; margin-bottom: 0px; font-size: 40px"";>מוכנים לשלם: <span id=""c_p_y""></span></p>","30","example","35","","","","","","","","","","","","","","","","","","","","","","",""
"","","","","","html-keyboard-response","5","948782","0.0-5.0","9b7ebcd5-2ebc-4338-a938-05af65044106","null","<p>יפה מאוד!
                <br> בחרתם שתהיו מוכנים לשלם ₪30 כדי להשתתף בהגרלה:
                <br><p style=""text-align: center;"">₪40<br>65%</p>
                <p>נשמע נכון?
                <br>נניח שהגרלה זו נבחרה בסוף הניסוי.
                <br>כעת המחשב יקבע מחיר עבורה באקראי.
                <br>לחצו על העכבר להמשך.</p>","1","example","","","","","","","","","","","","","","","","","","","","","","","",""
"","","","","","html-keyboard-response","6","963974","0.0-6.0","9b7ebcd5-2ebc-4338-a938-05af65044106","null","<p>המחשב קבע מחיר: ₪46
                <br>ואתם בחרתם לשלם לכל היותר: ₪30
                <br><br>מכיוון שהמחיר שבחרתם נמוך מהמחיר שנקבע, לא תתשתתפו בהגרלה.
                <br>במקרה כזה, בסוף הניסוי תקבלו את כל התקציב ההתחלתי של ₪80.
                <br><br>לחצו על העכבר להמשך.</p>","1","example","","","","","","","","","","","","","","","","","","","","","","","",""
"","","","","","html-slider-response","7","986030","0.0-7.0","9b7ebcd5-2ebc-4338-a938-05af65044106","21789","<p style=""font-size: 42px;"">הנה עוד דוגמא:
                <br>ההגרלה מטה מציעה 35% סיכוי לזכות ב-₪18 
                <br>&emsp;&emsp;&emsp;&emsp;&emsp;&emsp;&emsp;&emsp;&ensp;65% סיכוי לזכות ב-₪0.</p>
        
                <p style=""text-align: center;"">₪18<br>35%</p>
                <p id=""wtp"" style=""text-align:center; margin-top: 0px; margin-bottom: 0px; font-size: 40px"";>מוכנים לשלם: <span id=""c_p_y""></span></p>","8","example","6","","","","","","","","","","","","","","","","","","","","","","",""
"","","","","","html-keyboard-response","8","1058627","0.0-8.0","9b7ebcd5-2ebc-4338-a938-05af65044106","null","<p>הייתם מוכנים לשלם  ₪8 כדי להשתתף בהגרלה:
                <p style=""text-align: center;"">₪18<br>35%</p>
                <p>כעת נניח שהמחשב בחר את ההגרלה הזו בסוף הניסוי, וקבע עבורה מחיר.
                <br><br>לחצו על העכבר כדי להמשיך.</p>","1","instructions","","","","","","","","","","","","","","","","","","","","","","","",""
"","","","","","html-keyboard-response","9","1102512","0.0-9.0","9b7ebcd5-2ebc-4338-a938-05af65044106","null","<p>המחשב קבע מחיר להגרלה: ₪5<br>ואתם בחרתם לשלם לכל היותר: ₪8
                <br><br>כעת המחיר שנקבע נמוך מזה שבחרתם, אז תשלמו את המחיר שקבע המחשב (₪5) ותשתתפו בהגרלה.
                <br>במקרה כזה, תסיימו את הניסוי עם תקציב של ₪75 ועם סיכוי לזכות ב-₪18 נוספים מההגרלה.
                <br>כלומר, תוכלו לקבל ₪75 אם לא תזכו בהגרלה, או ₪93 אם תזכו בהגרלה.
                <br><br>לחצו על העכבר להמשך.</p>","1","example","","","","","","","","","","","","","","","","","","","","","","","",""
"","","","","","html-keyboard-response","10","1130037","0.0-10.0","9b7ebcd5-2ebc-4338-a938-05af65044106","null","<p>במהלך הניסוי, קודם תראו את ההגרלה ורק לאחר מכן תוכלו לבחור.
                <p>כמו כן, יהיו לכם מספר שניות מוגבל להגיב.
                <p>בואו ננסה זאת עם ההגרלה הקודמת.
                <br>לחצו על העכבר כדי להמשיך.</p>","1","instructions","","","","","","","","","","","","","","","","","","","","","","","",""
"","","","","","html-slider-response","11","1131293","0.0-11.0","9b7ebcd5-2ebc-4338-a938-05af65044106","1000","
                    <p style=""text-align: center;"">₪18<br>35%</p>
                    <p id=""wtp"" style=""text-align:center; margin-top: 0px; margin-bottom: 0px; font-size: 40px"";>&ensp;</p>","67","instructions","0","","","","","","","","","","","","","","","","","","","","","","",""
"","","","","","html-slider-response","12","1134133","0.0-12.0","9b7ebcd5-2ebc-4338-a938-05af65044106","2588","
                    <p style=""text-align: center;"">₪18<br>35%</p>
                    <p id=""wtp"" style=""text-align:center; margin-top: 0px; margin-bottom: 0px; font-size: 40px"";>מוכנים לשלם: <span id=""c_p_y""></span></p>","8","instructions","77","","","","","","","","","","","","","","","","","","","","","","",""
"","","","","","html-keyboard-response","13","1137493","0.0-13.0","9b7ebcd5-2ebc-4338-a938-05af65044106","null","<p>יפה. הפעם בחרתם לשלם לכל היותר ₪8.
                <br><br>לחצו על העכבר כדי להמשיך.</p>","1","instructions","","","","","","","","","","","","","","","","","","","","","","","",""
"","","","","","html-keyboard-response","14","1153525","0.0-15.0","9b7ebcd5-2ebc-4338-a938-05af65044106","null","<p>כעת נתחיל את הניסוי.
                <br><br>אתם תראו הגרלות ותתבקשו לבחור כמה תהיו מוכנים לשלם כדי להשתתף בהן.
                <br>יש לכם תקציב של ₪80 עבור כל הגרלה.
                <br>בסוף הניסוי הגרלה אחת תבחר באקראי ותשוחק.
                <br><br>לחצו על העכבר כדי להתחיל את הניסוי.</p>","1","instructions","","","","","","","","","","","","","","","","","","","","","","","",""
"","","","","","html-keyboard-response","15","1154800","0.0-16.0","9b7ebcd5-2ebc-4338-a938-05af65044106","null","<p style=""text-align: center;"">+</p>","null","fixation","","","","","","","","","","","","","","","","","","","","","","","",""
"","","","","","html-slider-response","16","1155803","0.0-17.0-0.0","9b7ebcd5-2ebc-4338-a938-05af65044106","1000","
                  <p style=""text-align: center;"">₪43
                                                <br>60%</p>
                  <p id=""wtp"" style=""text-align:center; margin-top: 0px; margin-bottom: 0px; font-size: 40px"";>&ensp;</p>","-","viewing","0","17","2A,7A,9A,15B","","","","","","","","","","","","","","","","","","","","",""
"","","","","","html-slider-response","17","1159285","0.0-17.0-1.0","9b7ebcd5-2ebc-4338-a938-05af65044106","3481","
                  <p style=""text-align: center;"">₪43
                                                <br>60%</p>
                  <p id=""wtp"" style=""text-align:center; margin-top: 0px; margin-bottom: 0px; font-size: 40px"";>מוכנים לשלם: <span id=""c_p_y""></span></p>","25","evaluation","65","17","2A,7A,9A,15B","60","43","25","","","","","","","","","","","","","","","","","",""
"","","","","","html-keyboard-response","18","1160516","0.0-17.0-2.0","9b7ebcd5-2ebc-4338-a938-05af65044106","null","<p style=""text-align: center;"">+</p>","null","fixation","","","","","","","","","","","","","","","","","","","","","","","",""
"","","","","","html-slider-response","19","1161533","0.0-17.0-0.1","9b7ebcd5-2ebc-4338-a938-05af65044106","1000","
                  <p style=""text-align: center;"">₪36
                                                <br>30%</p>
                  <p id=""wtp"" style=""text-align:center; margin-top: 0px; margin-bottom: 0px; font-size: 40px"";>&ensp;</p>","-","viewing","0","11","3C,20A,22A","","","","","","","","","","","","","","","","","","","","",""
"","","","","","html-slider-response","20","1164637","0.0-17.0-1.1","9b7ebcd5-2ebc-4338-a938-05af65044106","3104","
                  <p style=""text-align: center;"">₪36
                                                <br>30%</p>
                  <p id=""wtp"" style=""text-align:center; margin-top: 0px; margin-bottom: 0px; font-size: 40px"";>מוכנים לשלם: <span id=""c_p_y""></span></p>","16","evaluation","74","11","3C,20A,22A","30","36","16","","","","","","","","","","","","","","","","","",""
"","","","","","html-keyboard-response","21","1166144","0.0-17.0-2.1","9b7ebcd5-2ebc-4338-a938-05af65044106","null","<p style=""text-align: center;"">+</p>","null","fixation","","","","","","","","","","","","","","","","","","","","","","","",""
"","","","","","html-slider-response","22","1167147","0.0-17.0-0.2","9b7ebcd5-2ebc-4338-a938-05af65044106","1000","
                  <p style=""text-align: center;"">₪4
                                                <br>50%</p>
                  <p id=""wtp"" style=""text-align:center; margin-top: 0px; margin-bottom: 0px; font-size: 40px"";>&ensp;</p>","-","viewing","0","2","4C,17B","","","","","","","","","","","","","","","","","","","","",""
"","","","","","html-slider-response","23","1171150","0.0-17.0-1.2","9b7ebcd5-2ebc-4338-a938-05af65044106","null","
                  <p style=""text-align: center;"">₪4
                                                <br>50%</p>
                  <p id=""wtp"" style=""text-align:center; margin-top: 0px; margin-bottom: 0px; font-size: 40px"";>מוכנים לשלם: <span id=""c_p_y""></span></p>","null","evaluation","73","2","4C,17B","50","4","28","","","","","","","","","","","","","","","","","",""
"","","","","","html-keyboard-response","24","1172217","0.0-17.0-2.2","9b7ebcd5-2ebc-4338-a938-05af65044106","null","<p style=""text-align: center;"">+</p>","null","fixation","","","","","","","","","","","","","","","","","","","","","","","",""
"","","","","","html-slider-response","25","1173220","0.0-17.0-0.3","9b7ebcd5-2ebc-4338-a938-05af65044106","1000","
                  <p style=""text-align: center;"">₪4
                                                <br>25%</p>
                  <p id=""wtp"" style=""text-align:center; margin-top: 0px; margin-bottom: 0px; font-size: 40px"";>&ensp;</p>","-","viewing","0","1","6C,29B,30C","","","","","","","","","","","","","","","","","","","","",""
"","","","","","html-slider-response","26","1174853","0.0-17.0-1.3","9b7ebcd5-2ebc-4338-a938-05af65044106","1632","
                  <p style=""text-align: center;"">₪4
                                                <br>25%</p>
                  <p id=""wtp"" style=""text-align:center; margin-top: 0px; margin-bottom: 0px; font-size: 40px"";>מוכנים לשלם: <span id=""c_p_y""></span></p>","2","evaluation","54","1","6C,29B,30C","25","4","2","","","","","","","","","","","","","","","","","",""
"","","","","","html-keyboard-response","27","1175401","0.0-17.0-2.3","9b7ebcd5-2ebc-4338-a938-05af65044106","null","<p style=""text-align: center;"">+</p>","null","fixation","","","","","","","","","","","","","","","","","","","","","","","",""
"","","","","","html-slider-response","28","1176406","0.0-17.0-0.4","9b7ebcd5-2ebc-4338-a938-05af65044106","1000","
                  <p style=""text-align: center;"">₪11
                                                <br>45%</p>
                  <p id=""wtp"" style=""text-align:center; margin-top: 0px; margin-bottom: 0px; font-size: 40px"";>&ensp;</p>","-","viewing","0","6","14B,21C,25C","","","","","","","","","","","","","","","","","","","","",""
"","","","","","html-slider-response","29","1179229","0.0-17.0-1.4","9b7ebcd5-2ebc-4338-a938-05af65044106","2822","
                  <p style=""text-align: center;"">₪11
                                                <br>45%</p>
                  <p id=""wtp"" style=""text-align:center; margin-top: 0px; margin-bottom: 0px; font-size: 40px"";>מוכנים לשלם: <span id=""c_p_y""></span></p>","4","evaluation","33","6","14B,21C,25C","45","11","4","","","","","","","","","","","","","","","","","",""
"","","","","","html-keyboard-response","30","1180420","0.0-17.0-2.4","9b7ebcd5-2ebc-4338-a938-05af65044106","null","<p style=""text-align: center;"">+</p>","null","fixation","","","","","","","","","","","","","","","","","","","","","","","",""
"","","","","","html-slider-response","31","1181429","0.0-17.0-0.5","9b7ebcd5-2ebc-4338-a938-05af65044106","1000","
                  <p style=""text-align: center;"">₪61
                                                <br>55%</p>
                  <p id=""wtp"" style=""text-align:center; margin-top: 0px; margin-bottom: 0px; font-size: 40px"";>&ensp;</p>","-","viewing","0","23","7B,26B","","","","","","","","","","","","","","","","","","","","",""
"","","","","","html-slider-response","32","1184781","0.0-17.0-1.5","9b7ebcd5-2ebc-4338-a938-05af65044106","3351","
                  <p style=""text-align: center;"">₪61
                                                <br>55%</p>
                  <p id=""wtp"" style=""text-align:center; margin-top: 0px; margin-bottom: 0px; font-size: 40px"";>מוכנים לשלם: <span id=""c_p_y""></span></p>","18","evaluation","15","23","7B,26B","55","61","18","","","","","","","","","","","","","","","","","",""
"","","","","","html-keyboard-response","33","1186110","0.0-17.0-2.5","9b7ebcd5-2ebc-4338-a938-05af65044106","null","<p style=""text-align: center;"">+</p>","null","fixation","","","","","","","","","","","","","","","","","","","","","","","",""
"","","","","","html-slider-response","34","1187115","0.0-17.0-0.6","9b7ebcd5-2ebc-4338-a938-05af65044106","1000","
                  <p style=""text-align: center;"">₪76
                                                <br>65%</p>
                  <p id=""wtp"" style=""text-align:center; margin-top: 0px; margin-bottom: 0px; font-size: 40px"";>&ensp;</p>","-","viewing","0","29","8C,19A,24B","","","","","","","","","","","","","","","","","","","","",""
"","","","","","html-slider-response","35","1191119","0.0-17.0-1.6","9b7ebcd5-2ebc-4338-a938-05af65044106","null","
                  <p style=""text-align: center;"">₪76
                                                <br>65%</p>
                  <p id=""wtp"" style=""text-align:center; margin-top: 0px; margin-bottom: 0px; font-size: 40px"";>מוכנים לשלם: <span id=""c_p_y""></span></p>","null","evaluation","48","29","8C,19A,24B","65","76","42","","","","","","","","","","","","","","","","","",""
"","","","","","html-keyboard-response","36","1191848","0.0-17.0-2.6","9b7ebcd5-2ebc-4338-a938-05af65044106","null","<p style=""text-align: center;"">+</p>","null","fixation","","","","","","","","","","","","","","","","","","","","","","","",""
"","","","","","html-slider-response","37","1192851","0.0-17.0-0.7","9b7ebcd5-2ebc-4338-a938-05af65044106","1000","
                  <p style=""text-align: center;"">₪58
                                                <br>40%</p>
                  <p id=""wtp"" style=""text-align:center; margin-top: 0px; margin-bottom: 0px; font-size: 40px"";>&ensp;</p>","-","viewing","0","20","10C,13A,19C,21B","","","","","","","","","","","","","","","","","","","","",""
"","","","","","html-slider-response","38","1195402","0.0-17.0-1.7","9b7ebcd5-2ebc-4338-a938-05af65044106","2550","
                  <p style=""text-align: center;"">₪58
                                                <br>40%</p>
                  <p id=""wtp"" style=""text-align:center; margin-top: 0px; margin-bottom: 0px; font-size: 40px"";>מוכנים לשלם: <span id=""c_p_y""></span></p>","24","evaluation","51","20","10C,13A,19C,21B","40","58","25","","","","","","","","","","","","","","","","","",""
"","","","","","html-keyboard-response","39","1196745","0.0-17.0-2.7","9b7ebcd5-2ebc-4338-a938-05af65044106","null","<p style=""text-align: center;"">+</p>","null","fixation","","","","","","","","","","","","","","","","","","","","","","","",""
"","","","","","html-slider-response","40","1197753","0.0-17.0-0.8","9b7ebcd5-2ebc-4338-a938-05af65044106","1000","
                  <p style=""text-align: center;"">₪79
                                                <br>65%</p>
                  <p id=""wtp"" style=""text-align:center; margin-top: 0px; margin-bottom: 0px; font-size: 40px"";>&ensp;</p>","-","viewing","0","31","8A","","","","","","","","","","","","","","","","","","","","",""
"","","","","","html-slider-response","41","1200938","0.0-17.0-1.8","9b7ebcd5-2ebc-4338-a938-05af65044106","3184","
                  <p style=""text-align: center;"">₪79
                                                <br>65%</p>
                  <p id=""wtp"" style=""text-align:center; margin-top: 0px; margin-bottom: 0px; font-size: 40px"";>מוכנים לשלם: <span id=""c_p_y""></span></p>","33","evaluation","24","31","8A","65","79","33","","","","","","","","","","","","","","","","","",""
"","","","","","html-keyboard-response","42","1201848","0.0-17.0-2.8","9b7ebcd5-2ebc-4338-a938-05af65044106","null","<p style=""text-align: center;"">+</p>","null","fixation","","","","","","","","","","","","","","","","","","","","","","","",""
"","","","","","html-slider-response","43","1202851","0.0-17.0-0.9","9b7ebcd5-2ebc-4338-a938-05af65044106","1000","
                  <p style=""text-align: center;"">₪39
                                                <br>60%</p>
                  <p id=""wtp"" style=""text-align:center; margin-top: 0px; margin-bottom: 0px; font-size: 40px"";>&ensp;</p>","-","viewing","0","15","9C,25B","","","","","","","","","","","","","","","","","","","","",""
"","","","","","html-slider-response","44","1206857","0.0-17.0-1.9","9b7ebcd5-2ebc-4338-a938-05af65044106","null","
                  <p style=""text-align: center;"">₪39
                                                <br>60%</p>
                  <p id=""wtp"" style=""text-align:center; margin-top: 0px; margin-bottom: 0px; font-size: 40px"";>מוכנים לשלם: <span id=""c_p_y""></span></p>","null","evaluation","0","15","9C,25B","60","39","40","","","","","","","","","","","","","","","","","",""
"","","","","","html-keyboard-response","45","1207979","0.0-17.0-2.9","9b7ebcd5-2ebc-4338-a938-05af65044106","null","<p style=""text-align: center;"">+</p>","null","fixation","","","","","","","","","","","","","","","","","","","","","","","",""
"","","","","","html-slider-response","46","1208986","0.0-17.0-0.10","9b7ebcd5-2ebc-4338-a938-05af65044106","1000","
                  <p style=""text-align: center;"">₪71
                                                <br>55%</p>
                  <p id=""wtp"" style=""text-align:center; margin-top: 0px; margin-bottom: 0px; font-size: 40px"";>&ensp;</p>","-","viewing","0","27","5B,18A","","","","","","","","","","","","","","","","","","","","",""
"","","","","","html-slider-response","47","1212018","0.0-17.0-1.10","9b7ebcd5-2ebc-4338-a938-05af65044106","3032","
                  <p style=""text-align: center;"">₪71
                                                <br>55%</p>
                  <p id=""wtp"" style=""text-align:center; margin-top: 0px; margin-bottom: 0px; font-size: 40px"";>מוכנים לשלם: <span id=""c_p_y""></span></p>","33","evaluation","30","27","5B,18A","55","71","33","","","","","","","","","","","","","","","","","",""
"","","","","","html-keyboard-response","48","1212658","0.0-17.0-2.10","9b7ebcd5-2ebc-4338-a938-05af65044106","null","<p style=""text-align: center;"">+</p>","null","fixation","","","","","","","","","","","","","","","","","","","","","","","",""
"","","","","","html-slider-response","49","1213660","0.0-17.0-0.11","9b7ebcd5-2ebc-4338-a938-05af65044106","1000","
                  <p style=""text-align: center;"">₪39
                                                <br>65%</p>
                  <p id=""wtp"" style=""text-align:center; margin-top: 0px; margin-bottom: 0px; font-size: 40px"";>&ensp;</p>","-","viewing","0","16","1A,15A,26C","","","","","","","","","","","","","","","","","","","","",""
"","","","","","html-slider-response","50","1217666","0.0-17.0-1.11","9b7ebcd5-2ebc-4338-a938-05af65044106","null","
                  <p style=""text-align: center;"">₪39
                                                <br>65%</p>
                  <p id=""wtp"" style=""text-align:center; margin-top: 0px; margin-bottom: 0px; font-size: 40px"";>מוכנים לשלם: <span id=""c_p_y""></span></p>","null","evaluation","48","16","1A,15A,26C","65","39","26","","","","","","","","","","","","","","","","","",""
"","","","","","html-keyboard-response","51","1218684","0.0-17.0-2.11","9b7ebcd5-2ebc-4338-a938-05af65044106","null","<p style=""text-align: center;"">+</p>","null","fixation","","","","","","","","","","","","","","","","","","","","","","","",""
"","","","","","html-slider-response","52","1219693","0.0-17.0-0.12","9b7ebcd5-2ebc-4338-a938-05af65044106","1000","
                  <p style=""text-align: center;"">₪36
                                                <br>75%</p>
                  <p id=""wtp"" style=""text-align:center; margin-top: 0px; margin-bottom: 0px; font-size: 40px"";>&ensp;</p>","-","viewing","0","14","4B,5A,13B,16B","","","","","","","","","","","","","","","","","","","","",""
"","","","","","html-slider-response","53","1222746","0.0-17.0-1.12","9b7ebcd5-2ebc-4338-a938-05af65044106","3053","
                  <p style=""text-align: center;"">₪36
                                                <br>75%</p>
                  <p id=""wtp"" style=""text-align:center; margin-top: 0px; margin-bottom: 0px; font-size: 40px"";>מוכנים לשלם: <span id=""c_p_y""></span></p>","36","evaluation","51","14","4B,5A,13B,16B","75","36","36","","","","","","","","","","","","","","","","","",""
"","","","","","html-keyboard-response","54","1224220","0.0-17.0-2.12","9b7ebcd5-2ebc-4338-a938-05af65044106","null","<p style=""text-align: center;"">+</p>","null","fixation","","","","","","","","","","","","","","","","","","","","","","","",""
"","","","","","html-slider-response","55","1225237","0.0-17.0-0.13","9b7ebcd5-2ebc-4338-a938-05af65044106","1000","
                  <p style=""text-align: center;"">₪36
                                                <br>60%</p>
                  <p id=""wtp"" style=""text-align:center; margin-top: 0px; margin-bottom: 0px; font-size: 40px"";>&ensp;</p>","-","viewing","0","12","1C,7C,15C","","","","","","","","","","","","","","","","","","","","",""
"","","","","","html-slider-response","56","1228914","0.0-17.0-1.13","9b7ebcd5-2ebc-4338-a938-05af65044106","3676","
                  <p style=""text-align: center;"">₪36
                                                <br>60%</p>
                  <p id=""wtp"" style=""text-align:center; margin-top: 0px; margin-bottom: 0px; font-size: 40px"";>מוכנים לשלם: <span id=""c_p_y""></span></p>","19","evaluation","9","12","1C,7C,15C","60","36","19","","","","","","","","","","","","","","","","","",""
"","","","","","html-keyboard-response","57","1230260","0.0-17.0-2.13","9b7ebcd5-2ebc-4338-a938-05af65044106","null","<p style=""text-align: center;"">+</p>","null","fixation","","","","","","","","","","","","","","","","","","","","","","","",""
"","","","","","html-slider-response","58","1231261","0.0-17.0-0.14","9b7ebcd5-2ebc-4338-a938-05af65044106","1000","
                  <p style=""text-align: center;"">₪43
                                                <br>75%</p>
                  <p id=""wtp"" style=""text-align:center; margin-top: 0px; margin-bottom: 0px; font-size: 40px"";>&ensp;</p>","-","viewing","0","18","11B,19B,24A,26A","","","","","","","","","","","","","","","","","","","","",""
"","","","","","html-slider-response","59","1232986","0.0-17.0-1.14","9b7ebcd5-2ebc-4338-a938-05af65044106","1724","
                  <p style=""text-align: center;"">₪43
                                                <br>75%</p>
                  <p id=""wtp"" style=""text-align:center; margin-top: 0px; margin-bottom: 0px; font-size: 40px"";>מוכנים לשלם: <span id=""c_p_y""></span></p>","29","evaluation","77","18","11B,19B,24A,26A","75","43","29","","","","","","","","","","","","","","","","","",""
"","","","","","html-keyboard-response","60","1233972","0.0-17.0-2.14","9b7ebcd5-2ebc-4338-a938-05af65044106","null","<p style=""text-align: center;"">+</p>","null","fixation","","","","","","","","","","","","","","","","","","","","","","","",""
"","","","","","html-slider-response","61","1234976","0.0-17.0-0.15","9b7ebcd5-2ebc-4338-a938-05af65044106","1000","
                  <p style=""text-align: center;"">₪36
                                                <br>70%</p>
                  <p id=""wtp"" style=""text-align:center; margin-top: 0px; margin-bottom: 0px; font-size: 40px"";>&ensp;</p>","-","viewing","0","13","3A,5C,10B","","","","","","","","","","","","","","","","","","","","",""
"","","","","","html-slider-response","62","1237034","0.0-17.0-1.15","9b7ebcd5-2ebc-4338-a938-05af65044106","2057","
                  <p style=""text-align: center;"">₪36
                                                <br>70%</p>
                  <p id=""wtp"" style=""text-align:center; margin-top: 0px; margin-bottom: 0px; font-size: 40px"";>מוכנים לשלם: <span id=""c_p_y""></span></p>","23","evaluation","73","13","3A,5C,10B","70","36","23","","","","","","","","","","","","","","","","","",""
"","","","","","html-keyboard-response","63","1237665","0.0-17.0-2.15","9b7ebcd5-2ebc-4338-a938-05af65044106","null","<p style=""text-align: center;"">+</p>","null","fixation","","","","","","","","","","","","","","","","","","","","","","","",""
"","","","","","html-slider-response","64","1238667","0.0-17.0-0.16","9b7ebcd5-2ebc-4338-a938-05af65044106","1000","
                  <p style=""text-align: center;"">₪61
                                                <br>45%</p>
                  <p id=""wtp"" style=""text-align:center; margin-top: 0px; margin-bottom: 0px; font-size: 40px"";>&ensp;</p>","-","viewing","0","22","10A,11A","","","","","","","","","","","","","","","","","","","","",""
"","","","","","html-slider-response","65","1241346","0.0-17.0-1.16","9b7ebcd5-2ebc-4338-a938-05af65044106","2679","
                  <p style=""text-align: center;"">₪61
                                                <br>45%</p>
                  <p id=""wtp"" style=""text-align:center; margin-top: 0px; margin-bottom: 0px; font-size: 40px"";>מוכנים לשלם: <span id=""c_p_y""></span></p>","25","evaluation","57","22","10A,11A","45","61","25","","","","","","","","","","","","","","","","","",""
"","","","","","html-keyboard-response","66","1241899","0.0-17.0-2.16","9b7ebcd5-2ebc-4338-a938-05af65044106","null","<p style=""text-align: center;"">+</p>","null","fixation","","","","","","","","","","","","","","","","","","","","","","","",""
"","","","","","html-slider-response","67","1242913","0.0-17.0-0.17","9b7ebcd5-2ebc-4338-a938-05af65044106","1000","
                  <p style=""text-align: center;"">₪11
                                                <br>25%</p>
                  <p id=""wtp"" style=""text-align:center; margin-top: 0px; margin-bottom: 0px; font-size: 40px"";>&ensp;</p>","-","viewing","0","5","12A,27B,28B,30B","","","","","","","","","","","","","","","","","","","","",""
"","","","","","html-slider-response","68","1245795","0.0-17.0-1.17","9b7ebcd5-2ebc-4338-a938-05af65044106","2880","
                  <p style=""text-align: center;"">₪11
                                                <br>25%</p>
                  <p id=""wtp"" style=""text-align:center; margin-top: 0px; margin-bottom: 0px; font-size: 40px"";>מוכנים לשלם: <span id=""c_p_y""></span></p>","13","evaluation","16","5","12A,27B,28B,30B","25","11","13","","","","","","","","","","","","","","","","","",""
"","","","","","html-keyboard-response","69","1246546","0.0-17.0-2.17","9b7ebcd5-2ebc-4338-a938-05af65044106","null","<p style=""text-align: center;"">+</p>","null","fixation","","","","","","","","","","","","","","","","","","","","","","","",""
"","","","","","html-slider-response","70","1247553","0.0-17.0-0.18","9b7ebcd5-2ebc-4338-a938-05af65044106","1000","
                  <p style=""text-align: center;"">₪16
                                                <br>20%</p>
                  <p id=""wtp"" style=""text-align:center; margin-top: 0px; margin-bottom: 0px; font-size: 40px"";>&ensp;</p>","-","viewing","0","8","14C,17A,20C,27A","","","","","","","","","","","","","","","","","","","","",""
"","","","","","html-slider-response","71","1249839","0.0-17.0-1.18","9b7ebcd5-2ebc-4338-a938-05af65044106","2288","
                  <p style=""text-align: center;"">₪16
                                                <br>20%</p>
                  <p id=""wtp"" style=""text-align:center; margin-top: 0px; margin-bottom: 0px; font-size: 40px"";>מוכנים לשלם: <span id=""c_p_y""></span></p>","1","evaluation","8","8","14C,17A,20C,27A","20","16","1","","","","","","","","","","","","","","","","","",""
"","","","","","html-keyboard-response","72","1251056","0.0-17.0-2.18","9b7ebcd5-2ebc-4338-a938-05af65044106","null","<p style=""text-align: center;"">+</p>","null","fixation","","","","","","","","","","","","","","","","","","","","","","","",""
"","","","","","html-slider-response","73","1252060","0.0-17.0-0.19","9b7ebcd5-2ebc-4338-a938-05af65044106","1000","
                  <p style=""text-align: center;"">₪11
                                                <br>20%</p>
                  <p id=""wtp"" style=""text-align:center; margin-top: 0px; margin-bottom: 0px; font-size: 40px"";>&ensp;</p>","-","viewing","0","4","12C,17C,23C,28C","","","","","","","","","","","","","","","","","","","","",""
"","","","","","html-slider-response","74","1253543","0.0-17.0-1.19","9b7ebcd5-2ebc-4338-a938-05af65044106","1482","
                  <p style=""text-align: center;"">₪11
                                                <br>20%</p>
                  <p id=""wtp"" style=""text-align:center; margin-top: 0px; margin-bottom: 0px; font-size: 40px"";>מוכנים לשלם: <span id=""c_p_y""></span></p>","3","evaluation","28","4","12C,17C,23C,28C","20","11","3","","","","","","","","","","","","","","","","","",""
"","","","","","html-keyboard-response","75","1254119","0.0-17.0-2.19","9b7ebcd5-2ebc-4338-a938-05af65044106","null","<p style=""text-align: center;"">+</p>","null","fixation","","","","","","","","","","","","","","","","","","","","","","","",""
"","","","","","html-slider-response","76","1255129","0.0-17.0-0.20","9b7ebcd5-2ebc-4338-a938-05af65044106","1000","
                  <p style=""text-align: center;"">₪58
                                                <br>30%</p>
                  <p id=""wtp"" style=""text-align:center; margin-top: 0px; margin-bottom: 0px; font-size: 40px"";>&ensp;</p>","-","viewing","0","19","13C,30A","","","","","","","","","","","","","","","","","","","","",""
"","","","","","html-slider-response","77","1257959","0.0-17.0-1.20","9b7ebcd5-2ebc-4338-a938-05af65044106","2829","
                  <p style=""text-align: center;"">₪58
                                                <br>30%</p>
                  <p id=""wtp"" style=""text-align:center; margin-top: 0px; margin-bottom: 0px; font-size: 40px"";>מוכנים לשלם: <span id=""c_p_y""></span></p>","7","evaluation","26","19","13C,30A","30","58","8","","","","","","","","","","","","","","","","","",""
"","","","","","html-keyboard-response","78","1259348","0.0-17.0-2.20","9b7ebcd5-2ebc-4338-a938-05af65044106","null","<p style=""text-align: center;"">+</p>","null","fixation","","","","","","","","","","","","","","","","","","","","","","","",""
"","","","","","html-slider-response","79","1260352","0.0-17.0-0.21","9b7ebcd5-2ebc-4338-a938-05af65044106","1000","
                  <p style=""text-align: center;"">₪64
                                                <br>25%</p>
                  <p id=""wtp"" style=""text-align:center; margin-top: 0px; margin-bottom: 0px; font-size: 40px"";>&ensp;</p>","-","viewing","0","24","6A,21A","","","","","","","","","","","","","","","","","","","","",""
"","","","","","html-slider-response","80","1264357","0.0-17.0-1.21","9b7ebcd5-2ebc-4338-a938-05af65044106","null","
                  <p style=""text-align: center;"">₪64
                                                <br>25%</p>
                  <p id=""wtp"" style=""text-align:center; margin-top: 0px; margin-bottom: 0px; font-size: 40px"";>מוכנים לשלם: <span id=""c_p_y""></span></p>","null","evaluation","18","24","6A,21A","25","64","13","","","","","","","","","","","","","","","","","",""
"","","","","","html-keyboard-response","81","1265621","0.0-17.0-2.21","9b7ebcd5-2ebc-4338-a938-05af65044106","null","<p style=""text-align: center;"">+</p>","null","fixation","","","","","","","","","","","","","","","","","","","","","","","",""
"","","","","","html-slider-response","82","1266634","0.0-17.0-0.22","9b7ebcd5-2ebc-4338-a938-05af65044106","1000","
                  <p style=""text-align: center;"">₪64
                                                <br>50%</p>
                  <p id=""wtp"" style=""text-align:center; margin-top: 0px; margin-bottom: 0px; font-size: 40px"";>&ensp;</p>","-","viewing","0","25","1B,3B,4A","","","","","","","","","","","","","","","","","","","","",""
"","","","","","html-slider-response","83","1268311","0.0-17.0-1.22","9b7ebcd5-2ebc-4338-a938-05af65044106","1676","
                  <p style=""text-align: center;"">₪64
                                                <br>50%</p>
                  <p id=""wtp"" style=""text-align:center; margin-top: 0px; margin-bottom: 0px; font-size: 40px"";>מוכנים לשלם: <span id=""c_p_y""></span></p>","31","evaluation","15","25","1B,3B,4A","50","64","31","","","","","","","","","","","","","","","","","",""
"","","","","","html-keyboard-response","84","1269279","0.0-17.0-2.22","9b7ebcd5-2ebc-4338-a938-05af65044106","null","<p style=""text-align: center;"">+</p>","null","fixation","","","","","","","","","","","","","","","","","","","","","","","",""
"","","","","","html-slider-response","85","1270281","0.0-17.0-0.23","9b7ebcd5-2ebc-4338-a938-05af65044106","1000","
                  <p style=""text-align: center;"">₪4
                                                <br>75%</p>
                  <p id=""wtp"" style=""text-align:center; margin-top: 0px; margin-bottom: 0px; font-size: 40px"";>&ensp;</p>","-","viewing","0","3","12B,20B,23B,27C,29C","","","","","","","","","","","","","","","","","","","","",""
"","","","","","html-slider-response","86","1272383","0.0-17.0-1.23","9b7ebcd5-2ebc-4338-a938-05af65044106","2101","
                  <p style=""text-align: center;"">₪4
                                                <br>75%</p>
                  <p id=""wtp"" style=""text-align:center; margin-top: 0px; margin-bottom: 0px; font-size: 40px"";>מוכנים לשלם: <span id=""c_p_y""></span></p>","5","evaluation","70","3","12B,20B,23B,27C,29C","75","4","5","","","","","","","","","","","","","","","","","",""
"","","","","","html-keyboard-response","87","1273411","0.0-17.0-2.23","9b7ebcd5-2ebc-4338-a938-05af65044106","null","<p style=""text-align: center;"">+</p>","null","fixation","","","","","","","","","","","","","","","","","","","","","","","",""
"","","","","","html-slider-response","88","1274416","0.0-17.0-0.24","9b7ebcd5-2ebc-4338-a938-05af65044106","1000","
                  <p style=""text-align: center;"">₪11
                                                <br>75%</p>
                  <p id=""wtp"" style=""text-align:center; margin-top: 0px; margin-bottom: 0px; font-size: 40px"";>&ensp;</p>","-","viewing","0","7","6B,18B,22C,24C,29A","","","","","","","","","","","","","","","","","","","","",""
"","","","","","html-slider-response","89","1277575","0.0-17.0-1.24","9b7ebcd5-2ebc-4338-a938-05af65044106","3158","
                  <p style=""text-align: center;"">₪11
                                                <br>75%</p>
                  <p id=""wtp"" style=""text-align:center; margin-top: 0px; margin-bottom: 0px; font-size: 40px"";>מוכנים לשלם: <span id=""c_p_y""></span></p>","4","evaluation","72","7","6B,18B,22C,24C,29A","75","11","4","","","","","","","","","","","","","","","","","",""
"","","","","","html-keyboard-response","90","1278880","0.0-17.0-2.24","9b7ebcd5-2ebc-4338-a938-05af65044106","null","<p style=""text-align: center;"">+</p>","null","fixation","","","","","","","","","","","","","","","","","","","","","","","",""
"","","","","","html-slider-response","91","1279887","0.0-17.0-0.25","9b7ebcd5-2ebc-4338-a938-05af65044106","1000","
                  <p style=""text-align: center;"">₪18
                                                <br>50%</p>
                  <p id=""wtp"" style=""text-align:center; margin-top: 0px; margin-bottom: 0px; font-size: 40px"";>&ensp;</p>","-","viewing","0","10","2C,16C,22B,28A","","","","","","","","","","","","","","","","","","","","",""
"","","","","","html-slider-response","92","1283367","0.0-17.0-1.25","9b7ebcd5-2ebc-4338-a938-05af65044106","3479","
                  <p style=""text-align: center;"">₪18
                                                <br>50%</p>
                  <p id=""wtp"" style=""text-align:center; margin-top: 0px; margin-bottom: 0px; font-size: 40px"";>מוכנים לשלם: <span id=""c_p_y""></span></p>","8","evaluation","20","10","2C,16C,22B,28A","50","18","8","","","","","","","","","","","","","","","","","",""
"","","","","","html-keyboard-response","93","1284615","0.0-17.0-2.25","9b7ebcd5-2ebc-4338-a938-05af65044106","null","<p style=""text-align: center;"">+</p>","null","fixation","","","","","","","","","","","","","","","","","","","","","","","",""
"","","","","","html-slider-response","94","1285627","0.0-17.0-0.26","9b7ebcd5-2ebc-4338-a938-05af65044106","1000","
                  <p style=""text-align: center;"">₪18
                                                <br>25%</p>
                  <p id=""wtp"" style=""text-align:center; margin-top: 0px; margin-bottom: 0px; font-size: 40px"";>&ensp;</p>","-","viewing","0","9","14A,23A","","","","","","","","","","","","","","","","","","","","",""
"","","","","","html-slider-response","95","1288776","0.0-17.0-1.26","9b7ebcd5-2ebc-4338-a938-05af65044106","3148","
                  <p style=""text-align: center;"">₪18
                                                <br>25%</p>
                  <p id=""wtp"" style=""text-align:center; margin-top: 0px; margin-bottom: 0px; font-size: 40px"";>מוכנים לשלם: <span id=""c_p_y""></span></p>","3","evaluation","24","9","14A,23A","25","18","3","","","","","","","","","","","","","","","","","",""
"","","","","","html-keyboard-response","96","1290259","0.0-17.0-2.26","9b7ebcd5-2ebc-4338-a938-05af65044106","null","<p style=""text-align: center;"">+</p>","null","fixation","","","","","","","","","","","","","","","","","","","","","","","",""
"","","","","","html-slider-response","97","1291263","0.0-17.0-0.27","9b7ebcd5-2ebc-4338-a938-05af65044106","1000","
                  <p style=""text-align: center;"">₪71
                                                <br>45%</p>
                  <p id=""wtp"" style=""text-align:center; margin-top: 0px; margin-bottom: 0px; font-size: 40px"";>&ensp;</p>","-","viewing","0","26","2B,16A","","","","","","","","","","","","","","","","","","","","",""
"","","","","","html-slider-response","98","1293543","0.0-17.0-1.27","9b7ebcd5-2ebc-4338-a938-05af65044106","2279","
                  <p style=""text-align: center;"">₪71
                                                <br>45%</p>
                  <p id=""wtp"" style=""text-align:center; margin-top: 0px; margin-bottom: 0px; font-size: 40px"";>מוכנים לשלם: <span id=""c_p_y""></span></p>","32","evaluation","29","26","2B,16A","45","71","32","","","","","","","","","","","","","","","","","",""
"","","","","","html-keyboard-response","99","1295036","0.0-17.0-2.27","9b7ebcd5-2ebc-4338-a938-05af65044106","null","<p style=""text-align: center;"">+</p>","null","fixation","","","","","","","","","","","","","","","","","","","","","","","",""
"","","","","","html-slider-response","100","1296049","0.0-17.0-0.28","9b7ebcd5-2ebc-4338-a938-05af65044106","1000","
                  <p style=""text-align: center;"">₪79
                                                <br>40%</p>
                  <p id=""wtp"" style=""text-align:center; margin-top: 0px; margin-bottom: 0px; font-size: 40px"";>&ensp;</p>","-","viewing","0","30","9B","","","","","","","","","","","","","","","","","","","","",""
"","","","","","html-slider-response","101","1299391","0.0-17.0-1.28","9b7ebcd5-2ebc-4338-a938-05af65044106","3342","
                  <p style=""text-align: center;"">₪79
                                                <br>40%</p>
                  <p id=""wtp"" style=""text-align:center; margin-top: 0px; margin-bottom: 0px; font-size: 40px"";>מוכנים לשלם: <span id=""c_p_y""></span></p>","16","evaluation","62","30","9B","40","79","16","","","","","","","","","","","","","","","","","",""
"","","","","","html-keyboard-response","102","1300187","0.0-17.0-2.28","9b7ebcd5-2ebc-4338-a938-05af65044106","null","<p style=""text-align: center;"">+</p>","null","fixation","","","","","","","","","","","","","","","","","","","","","","","",""
"","","","","","html-slider-response","103","1301189","0.0-17.0-0.29","9b7ebcd5-2ebc-4338-a938-05af65044106","1000","
                  <p style=""text-align: center;"">₪58
                                                <br>45%</p>
                  <p id=""wtp"" style=""text-align:center; margin-top: 0px; margin-bottom: 0px; font-size: 40px"";>&ensp;</p>","-","viewing","0","21","11C,18C,25A","","","","","","","","","","","","","","","","","","","","",""
"","","","","","html-slider-response","104","1304575","0.0-17.0-1.29","9b7ebcd5-2ebc-4338-a938-05af65044106","3385","
                  <p style=""text-align: center;"">₪58
                                                <br>45%</p>
                  <p id=""wtp"" style=""text-align:center; margin-top: 0px; margin-bottom: 0px; font-size: 40px"";>מוכנים לשלם: <span id=""c_p_y""></span></p>","11","evaluation","15","21","11C,18C,25A","45","58","12","","","","","","","","","","","","","","","","","",""
"","","","","","html-keyboard-response","105","1305144","0.0-17.0-2.29","9b7ebcd5-2ebc-4338-a938-05af65044106","null","<p style=""text-align: center;"">+</p>","null","fixation","","","","","","","","","","","","","","","","","","","","","","","",""
"","","","","","html-slider-response","106","1306147","0.0-17.0-0.30","9b7ebcd5-2ebc-4338-a938-05af65044106","1000","
                  <p style=""text-align: center;"">₪71
                                                <br>75%</p>
                  <p id=""wtp"" style=""text-align:center; margin-top: 0px; margin-bottom: 0px; font-size: 40px"";>&ensp;</p>","-","viewing","0","28","8B","","","","","","","","","","","","","","","","","","","","",""
"","","","","","html-slider-response","107","1308780","0.0-17.0-1.30","9b7ebcd5-2ebc-4338-a938-05af65044106","2635","
                  <p style=""text-align: center;"">₪71
                                                <br>75%</p>
                  <p id=""wtp"" style=""text-align:center; margin-top: 0px; margin-bottom: 0px; font-size: 40px"";>מוכנים לשלם: <span id=""c_p_y""></span></p>","37","evaluation","65","28","8B","75","71","37","","","","","","","","","","","","","","","","","",""
"","","","","","html-keyboard-response","108","1309435","0.0-17.0-2.30","9b7ebcd5-2ebc-4338-a938-05af65044106","null","<p style=""text-align: center;"">+</p>","null","fixation","","","","","","","","","","","","","","","","","","","","","","","",""
"","","","","","html-keyboard-response","109","1310447","0.0-18.0","9b7ebcd5-2ebc-4338-a938-05af65044106","null","<p style=""text-align: center;"">+</p>","null","fixation","","","","","","","","","","","","","","","","","","","","","","","",""
"","","","","","html-keyboard-response","110","1313956","0.0-19.0","9b7ebcd5-2ebc-4338-a938-05af65044106","null","<p>הפסקה.
          <br>לחצו כדי להמשיך.</p>","1","scan_wait","","","","","","","","","","","","","","","","","","","","","","","",""
"","","","","","html-keyboard-response","111","1314968","0.0-20.0","9b7ebcd5-2ebc-4338-a938-05af65044106","null","<p style=""text-align: center;"">+</p>","null","fixation","","","","","","","","","","","","","","","","","","","","","","","",""
"","","","","","html-slider-response","112","1315971","0.0-21.0-0.0","9b7ebcd5-2ebc-4338-a938-05af65044106","1000","
                  <p style=""text-align: center;"">₪71
                                                <br>55%</p>
                  <p id=""wtp"" style=""text-align:center; margin-top: 0px; margin-bottom: 0px; font-size: 40px"";>&ensp;</p>","-","viewing","0","27","5B,18A","","","","","","","","","","","","","","","","","","","","",""
"","","","","","html-slider-response","113","1318452","0.0-21.0-1.0","9b7ebcd5-2ebc-4338-a938-05af65044106","2481","
                  <p style=""text-align: center;"">₪71
                                                <br>55%</p>
                  <p id=""wtp"" style=""text-align:center; margin-top: 0px; margin-bottom: 0px; font-size: 40px"";>מוכנים לשלם: <span id=""c_p_y""></span></p>","32","evaluation","24","27","5B,18A","55","71","32","","","","","","","","","","","","","","","","","",""
"","","","","","html-keyboard-response","114","1319850","0.0-21.0-2.0","9b7ebcd5-2ebc-4338-a938-05af65044106","null","<p style=""text-align: center;"">+</p>","null","fixation","","","","","","","","","","","","","","","","","","","","","","","",""
"","","","","","html-slider-response","115","1320856","0.0-21.0-0.1","9b7ebcd5-2ebc-4338-a938-05af65044106","1000","
                  <p style=""text-align: center;"">₪39
                                                <br>65%</p>
                  <p id=""wtp"" style=""text-align:center; margin-top: 0px; margin-bottom: 0px; font-size: 40px"";>&ensp;</p>","-","viewing","0","16","1A,15A,26C","","","","","","","","","","","","","","","","","","","","",""
"","","","","","html-slider-response","116","1323532","0.0-21.0-1.1","9b7ebcd5-2ebc-4338-a938-05af65044106","2675","
                  <p style=""text-align: center;"">₪39
                                                <br>65%</p>
                  <p id=""wtp"" style=""text-align:center; margin-top: 0px; margin-bottom: 0px; font-size: 40px"";>מוכנים לשלם: <span id=""c_p_y""></span></p>","16","evaluation","64","16","1A,15A,26C","65","39","16","","","","","","","","","","","","","","","","","",""
"","","","","","html-keyboard-response","117","1324076","0.0-21.0-2.1","9b7ebcd5-2ebc-4338-a938-05af65044106","null","<p style=""text-align: center;"">+</p>","null","fixation","","","","","","","","","","","","","","","","","","","","","","","",""
"","","","","","html-slider-response","118","1325078","0.0-21.0-0.2","9b7ebcd5-2ebc-4338-a938-05af65044106","1000","
                  <p style=""text-align: center;"">₪11
                                                <br>75%</p>
                  <p id=""wtp"" style=""text-align:center; margin-top: 0px; margin-bottom: 0px; font-size: 40px"";>&ensp;</p>","-","viewing","0","7","6B,18B,22C,24C,29A","","","","","","","","","","","","","","","","","","","","",""
"","","","","","html-slider-response","119","1326884","0.0-21.0-1.2","9b7ebcd5-2ebc-4338-a938-05af65044106","1805","
                  <p style=""text-align: center;"">₪11
                                                <br>75%</p>
                  <p id=""wtp"" style=""text-align:center; margin-top: 0px; margin-bottom: 0px; font-size: 40px"";>מוכנים לשלם: <span id=""c_p_y""></span></p>","9","evaluation","48","7","6B,18B,22C,24C,29A","75","11","9","","","","","","","","","","","","","","","","","",""
"","","","","","html-keyboard-response","120","1327658","0.0-21.0-2.2","9b7ebcd5-2ebc-4338-a938-05af65044106","null","<p style=""text-align: center;"">+</p>","null","fixation","","","","","","","","","","","","","","","","","","","","","","","",""
"","","","","","html-slider-response","121","1328665","0.0-21.0-0.3","9b7ebcd5-2ebc-4338-a938-05af65044106","1000","
                  <p style=""text-align: center;"">₪64
                                                <br>50%</p>
                  <p id=""wtp"" style=""text-align:center; margin-top: 0px; margin-bottom: 0px; font-size: 40px"";>&ensp;</p>","-","viewing","0","25","1B,3B,4A","","","","","","","","","","","","","","","","","","","","",""
"","","","","","html-slider-response","122","1331180","0.0-21.0-1.3","9b7ebcd5-2ebc-4338-a938-05af65044106","2515","
                  <p style=""text-align: center;"">₪64
                                                <br>50%</p>
                  <p id=""wtp"" style=""text-align:center; margin-top: 0px; margin-bottom: 0px; font-size: 40px"";>מוכנים לשלם: <span id=""c_p_y""></span></p>","18","evaluation","31","25","1B,3B,4A","50","64","18","","","","","","","","","","","","","","","","","",""
"","","","","","html-keyboard-response","123","1332140","0.0-21.0-2.3","9b7ebcd5-2ebc-4338-a938-05af65044106","null","<p style=""text-align: center;"">+</p>","null","fixation","","","","","","","","","","","","","","","","","","","","","","","",""
"","","","","","html-slider-response","124","1333156","0.0-21.0-0.4","9b7ebcd5-2ebc-4338-a938-05af65044106","1000","
                  <p style=""text-align: center;"">₪11
                                                <br>20%</p>
                  <p id=""wtp"" style=""text-align:center; margin-top: 0px; margin-bottom: 0px; font-size: 40px"";>&ensp;</p>","-","viewing","0","4","12C,17C,23C,28C","","","","","","","","","","","","","","","","","","","","",""
"","","","","","html-slider-response","125","1337158","0.0-21.0-1.4","9b7ebcd5-2ebc-4338-a938-05af65044106","null","
                  <p style=""text-align: center;"">₪11
                                                <br>20%</p>
                  <p id=""wtp"" style=""text-align:center; margin-top: 0px; margin-bottom: 0px; font-size: 40px"";>מוכנים לשלם: <span id=""c_p_y""></span></p>","null","evaluation","51","4","12C,17C,23C,28C","20","11","8","","","","","","","","","","","","","","","","","",""
"","","","","","html-keyboard-response","126","1337688","0.0-21.0-2.4","9b7ebcd5-2ebc-4338-a938-05af65044106","null","<p style=""text-align: center;"">+</p>","null","fixation","","","","","","","","","","","","","","","","","","","","","","","",""
"","","","","","html-slider-response","127","1338701","0.0-21.0-0.5","9b7ebcd5-2ebc-4338-a938-05af65044106","1000","
                  <p style=""text-align: center;"">₪64
                                                <br>25%</p>
                  <p id=""wtp"" style=""text-align:center; margin-top: 0px; margin-bottom: 0px; font-size: 40px"";>&ensp;</p>","-","viewing","0","24","6A,21A","","","","","","","","","","","","","","","","","","","","",""
"","","","","","html-slider-response","128","1341204","0.0-21.0-1.5","9b7ebcd5-2ebc-4338-a938-05af65044106","2503","
                  <p style=""text-align: center;"">₪64
                                                <br>25%</p>
                  <p id=""wtp"" style=""text-align:center; margin-top: 0px; margin-bottom: 0px; font-size: 40px"";>מוכנים לשלם: <span id=""c_p_y""></span></p>","10","evaluation","31","24","6A,21A","25","64","10","","","","","","","","","","","","","","","","","",""
"","","","","","html-keyboard-response","129","1342545","0.0-21.0-2.5","9b7ebcd5-2ebc-4338-a938-05af65044106","null","<p style=""text-align: center;"">+</p>","null","fixation","","","","","","","","","","","","","","","","","","","","","","","",""
"","","","","","html-slider-response","130","1343555","0.0-21.0-0.6","9b7ebcd5-2ebc-4338-a938-05af65044106","1000","
                  <p style=""text-align: center;"">₪58
                                                <br>40%</p>
                  <p id=""wtp"" style=""text-align:center; margin-top: 0px; margin-bottom: 0px; font-size: 40px"";>&ensp;</p>","-","viewing","0","20","10C,13A,19C,21B","","","","","","","","","","","","","","","","","","","","",""
"","","","","","html-slider-response","131","1346668","0.0-21.0-1.6","9b7ebcd5-2ebc-4338-a938-05af65044106","3112","
                  <p style=""text-align: center;"">₪58
                                                <br>40%</p>
                  <p id=""wtp"" style=""text-align:center; margin-top: 0px; margin-bottom: 0px; font-size: 40px"";>מוכנים לשלם: <span id=""c_p_y""></span></p>","21","evaluation","24","20","10C,13A,19C,21B","40","58","21","","","","","","","","","","","","","","","","","",""
"","","","","","html-keyboard-response","132","1347193","0.0-21.0-2.6","9b7ebcd5-2ebc-4338-a938-05af65044106","null","<p style=""text-align: center;"">+</p>","null","fixation","","","","","","","","","","","","","","","","","","","","","","","",""
"","","","","","html-slider-response","133","1348199","0.0-21.0-0.7","9b7ebcd5-2ebc-4338-a938-05af65044106","1000","
                  <p style=""text-align: center;"">₪76
                                                <br>65%</p>
                  <p id=""wtp"" style=""text-align:center; margin-top: 0px; margin-bottom: 0px; font-size: 40px"";>&ensp;</p>","-","viewing","0","29","8C,19A,24B","","","","","","","","","","","","","","","","","","","","",""
"","","","","","html-slider-response","134","1350084","0.0-21.0-1.7","9b7ebcd5-2ebc-4338-a938-05af65044106","1884","
                  <p style=""text-align: center;"">₪76
                                                <br>65%</p>
                  <p id=""wtp"" style=""text-align:center; margin-top: 0px; margin-bottom: 0px; font-size: 40px"";>מוכנים לשלם: <span id=""c_p_y""></span></p>","40","evaluation","12","29","8C,19A,24B","65","76","40","","","","","","","","","","","","","","","","","",""
"","","","","","html-keyboard-response","135","1351501","0.0-21.0-2.7","9b7ebcd5-2ebc-4338-a938-05af65044106","null","<p style=""text-align: center;"">+</p>","null","fixation","","","","","","","","","","","","","","","","","","","","","","","",""
"","","","","","html-slider-response","136","1352505","0.0-21.0-0.8","9b7ebcd5-2ebc-4338-a938-05af65044106","1000","
                  <p style=""text-align: center;"">₪36
                                                <br>30%</p>
                  <p id=""wtp"" style=""text-align:center; margin-top: 0px; margin-bottom: 0px; font-size: 40px"";>&ensp;</p>","-","viewing","0","11","3C,20A,22A","","","","","","","","","","","","","","","","","","","","",""
"","","","","","html-slider-response","137","1354860","0.0-21.0-1.8","9b7ebcd5-2ebc-4338-a938-05af65044106","2354","
                  <p style=""text-align: center;"">₪36
                                                <br>30%</p>
                  <p id=""wtp"" style=""text-align:center; margin-top: 0px; margin-bottom: 0px; font-size: 40px"";>מוכנים לשלם: <span id=""c_p_y""></span></p>","26","evaluation","78","11","3C,20A,22A","30","36","26","","","","","","","","","","","","","","","","","",""
"","","","","","html-keyboard-response","138","1355557","0.0-21.0-2.8","9b7ebcd5-2ebc-4338-a938-05af65044106","null","<p style=""text-align: center;"">+</p>","null","fixation","","","","","","","","","","","","","","","","","","","","","","","",""
"","","","","","html-slider-response","139","1356572","0.0-21.0-0.9","9b7ebcd5-2ebc-4338-a938-05af65044106","1000","
                  <p style=""text-align: center;"">₪4
                                                <br>75%</p>
                  <p id=""wtp"" style=""text-align:center; margin-top: 0px; margin-bottom: 0px; font-size: 40px"";>&ensp;</p>","-","viewing","0","3","12B,20B,23B,27C,29C","","","","","","","","","","","","","","","","","","","","",""
"","","","","","html-slider-response","140","1358148","0.0-21.0-1.9","9b7ebcd5-2ebc-4338-a938-05af65044106","1575","
                  <p style=""text-align: center;"">₪4
                                                <br>75%</p>
                  <p id=""wtp"" style=""text-align:center; margin-top: 0px; margin-bottom: 0px; font-size: 40px"";>מוכנים לשלם: <span id=""c_p_y""></span></p>","0","evaluation","71","3","12B,20B,23B,27C,29C","75","4","0","","","","","","","","","","","","","","","","","",""
"","","","","","html-keyboard-response","141","1359245","0.0-21.0-2.9","9b7ebcd5-2ebc-4338-a938-05af65044106","null","<p style=""text-align: center;"">+</p>","null","fixation","","","","","","","","","","","","","","","","","","","","","","","",""
"","","","","","html-slider-response","142","1360250","0.0-21.0-0.10","9b7ebcd5-2ebc-4338-a938-05af65044106","1000","
                  <p style=""text-align: center;"">₪71
                                                <br>45%</p>
                  <p id=""wtp"" style=""text-align:center; margin-top: 0px; margin-bottom: 0px; font-size: 40px"";>&ensp;</p>","-","viewing","0","26","2B,16A","","","","","","","","","","","","","","","","","","","","",""
"","","","","","html-slider-response","143","1364156","0.0-21.0-1.10","9b7ebcd5-2ebc-4338-a938-05af65044106","3906","
                  <p style=""text-align: center;"">₪71
                                                <br>45%</p>
                  <p id=""wtp"" style=""text-align:center; margin-top: 0px; margin-bottom: 0px; font-size: 40px"";>מוכנים לשלם: <span id=""c_p_y""></span></p>","28","evaluation","69","26","2B,16A","45","71","28","","","","","","","","","","","","","","","","","",""
"","","","","","html-keyboard-response","144","1364766","0.0-21.0-2.10","9b7ebcd5-2ebc-4338-a938-05af65044106","null","<p style=""text-align: center;"">+</p>","null","fixation","","","","","","","","","","","","","","","","","","","","","","","",""
"","","","","","html-slider-response","145","1365779","0.0-21.0-0.11","9b7ebcd5-2ebc-4338-a938-05af65044106","1000","
                  <p style=""text-align: center;"">₪61
                                                <br>55%</p>
                  <p id=""wtp"" style=""text-align:center; margin-top: 0px; margin-bottom: 0px; font-size: 40px"";>&ensp;</p>","-","viewing","0","23","7B,26B","","","","","","","","","","","","","","","","","","","","",""
"","","","","","html-slider-response","146","1369778","0.0-21.0-1.11","9b7ebcd5-2ebc-4338-a938-05af65044106","null","
                  <p style=""text-align: center;"">₪61
                                                <br>55%</p>
                  <p id=""wtp"" style=""text-align:center; margin-top: 0px; margin-bottom: 0px; font-size: 40px"";>מוכנים לשלם: <span id=""c_p_y""></span></p>","null","evaluation","15","23","7B,26B","55","61","43","","","","","","","","","","","","","","","","","",""
"","","","","","html-keyboard-response","147","1370900","0.0-21.0-2.11","9b7ebcd5-2ebc-4338-a938-05af65044106","null","<p style=""text-align: center;"">+</p>","null","fixation","","","","","","","","","","","","","","","","","","","","","","","",""
"","","","","","html-slider-response","148","1371908","0.0-21.0-0.12","9b7ebcd5-2ebc-4338-a938-05af65044106","1000","
                  <p style=""text-align: center;"">₪18
                                                <br>25%</p>
                  <p id=""wtp"" style=""text-align:center; margin-top: 0px; margin-bottom: 0px; font-size: 40px"";>&ensp;</p>","-","viewing","0","9","14A,23A","","","","","","","","","","","","","","","","","","","","",""
"","","","","","html-slider-response","149","1375909","0.0-21.0-1.12","9b7ebcd5-2ebc-4338-a938-05af65044106","null","
                  <p style=""text-align: center;"">₪18
                                                <br>25%</p>
                  <p id=""wtp"" style=""text-align:center; margin-top: 0px; margin-bottom: 0px; font-size: 40px"";>מוכנים לשלם: <span id=""c_p_y""></span></p>","null","evaluation","14","9","14A,23A","25","18","29","","","","","","","","","","","","","","","","","",""
"","","","","","html-keyboard-response","150","1376719","0.0-21.0-2.12","9b7ebcd5-2ebc-4338-a938-05af65044106","null","<p style=""text-align: center;"">+</p>","null","fixation","","","","","","","","","","","","","","","","","","","","","","","",""
"","","","","","html-slider-response","151","1377722","0.0-21.0-0.13","9b7ebcd5-2ebc-4338-a938-05af65044106","1000","
                  <p style=""text-align: center;"">₪43
                                                <br>60%</p>
                  <p id=""wtp"" style=""text-align:center; margin-top: 0px; margin-bottom: 0px; font-size: 40px"";>&ensp;</p>","-","viewing","0","17","2A,7A,9A,15B","","","","","","","","","","","","","","","","","","","","",""
"","","","","","html-slider-response","152","1381727","0.0-21.0-1.13","9b7ebcd5-2ebc-4338-a938-05af65044106","null","
                  <p style=""text-align: center;"">₪43
                                                <br>60%</p>
                  <p id=""wtp"" style=""text-align:center; margin-top: 0px; margin-bottom: 0px; font-size: 40px"";>מוכנים לשלם: <span id=""c_p_y""></span></p>","null","evaluation","68","17","2A,7A,9A,15B","60","43","13","","","","","","","","","","","","","","","","","",""
"","","","","","html-keyboard-response","153","1382689","0.0-21.0-2.13","9b7ebcd5-2ebc-4338-a938-05af65044106","null","<p style=""text-align: center;"">+</p>","null","fixation","","","","","","","","","","","","","","","","","","","","","","","",""
"","","","","","html-slider-response","154","1383701","0.0-21.0-0.14","9b7ebcd5-2ebc-4338-a938-05af65044106","1000","
                  <p style=""text-align: center;"">₪11
                                                <br>45%</p>
                  <p id=""wtp"" style=""text-align:center; margin-top: 0px; margin-bottom: 0px; font-size: 40px"";>&ensp;</p>","-","viewing","0","6","14B,21C,25C","","","","","","","","","","","","","","","","","","","","",""
"","","","","","html-slider-response","155","1387708","0.0-21.0-1.14","9b7ebcd5-2ebc-4338-a938-05af65044106","null","
                  <p style=""text-align: center;"">₪11
                                                <br>45%</p>
                  <p id=""wtp"" style=""text-align:center; margin-top: 0px; margin-bottom: 0px; font-size: 40px"";>מוכנים לשלם: <span id=""c_p_y""></span></p>","null","evaluation","28","6","14B,21C,25C","45","11","16","","","","","","","","","","","","","","","","","",""
"","","","","","html-keyboard-response","156","1388283","0.0-21.0-2.14","9b7ebcd5-2ebc-4338-a938-05af65044106","null","<p style=""text-align: center;"">+</p>","null","fixation","","","","","","","","","","","","","","","","","","","","","","","",""
"","","","","","html-slider-response","157","1389291","0.0-21.0-0.15","9b7ebcd5-2ebc-4338-a938-05af65044106","1000","
                  <p style=""text-align: center;"">₪16
                                                <br>20%</p>
                  <p id=""wtp"" style=""text-align:center; margin-top: 0px; margin-bottom: 0px; font-size: 40px"";>&ensp;</p>","-","viewing","0","8","14C,17A,20C,27A","","","","","","","","","","","","","","","","","","","","",""
"","","","","","html-slider-response","158","1390689","0.0-21.0-1.15","9b7ebcd5-2ebc-4338-a938-05af65044106","1397","
                  <p style=""text-align: center;"">₪16
                                                <br>20%</p>
                  <p id=""wtp"" style=""text-align:center; margin-top: 0px; margin-bottom: 0px; font-size: 40px"";>מוכנים לשלם: <span id=""c_p_y""></span></p>","4","evaluation","39","8","14C,17A,20C,27A","20","16","4","","","","","","","","","","","","","","","","","",""
"","","","","","html-keyboard-response","159","1391747","0.0-21.0-2.15","9b7ebcd5-2ebc-4338-a938-05af65044106","null","<p style=""text-align: center;"">+</p>","null","fixation","","","","","","","","","","","","","","","","","","","","","","","",""
"","","","","","html-slider-response","160","1392764","0.0-21.0-0.16","9b7ebcd5-2ebc-4338-a938-05af65044106","1000","
                  <p style=""text-align: center;"">₪4
                                                <br>25%</p>
                  <p id=""wtp"" style=""text-align:center; margin-top: 0px; margin-bottom: 0px; font-size: 40px"";>&ensp;</p>","-","viewing","0","1","6C,29B,30C","","","","","","","","","","","","","","","","","","","","",""
"","","","","","html-slider-response","161","1395009","0.0-21.0-1.16","9b7ebcd5-2ebc-4338-a938-05af65044106","2245","
                  <p style=""text-align: center;"">₪4
                                                <br>25%</p>
                  <p id=""wtp"" style=""text-align:center; margin-top: 0px; margin-bottom: 0px; font-size: 40px"";>מוכנים לשלם: <span id=""c_p_y""></span></p>","6","evaluation","32","1","6C,29B,30C","25","4","7","","","","","","","","","","","","","","","","","",""
"","","","","","html-keyboard-response","162","1395938","0.0-21.0-2.16","9b7ebcd5-2ebc-4338-a938-05af65044106","null","<p style=""text-align: center;"">+</p>","null","fixation","","","","","","","","","","","","","","","","","","","","","","","",""
"","","","","","html-slider-response","163","1396942","0.0-21.0-0.17","9b7ebcd5-2ebc-4338-a938-05af65044106","1000","
                  <p style=""text-align: center;"">₪36
                                                <br>70%</p>
                  <p id=""wtp"" style=""text-align:center; margin-top: 0px; margin-bottom: 0px; font-size: 40px"";>&ensp;</p>","-","viewing","0","13","3A,5C,10B","","","","","","","","","","","","","","","","","","","","",""
"","","","","","html-slider-response","164","1399825","0.0-21.0-1.17","9b7ebcd5-2ebc-4338-a938-05af65044106","2882","
                  <p style=""text-align: center;"">₪36
                                                <br>70%</p>
                  <p id=""wtp"" style=""text-align:center; margin-top: 0px; margin-bottom: 0px; font-size: 40px"";>מוכנים לשלם: <span id=""c_p_y""></span></p>","14","evaluation","27","13","3A,5C,10B","70","36","14","","","","","","","","","","","","","","","","","",""
"","","","","","html-keyboard-response","165","1400441","0.0-21.0-2.17","9b7ebcd5-2ebc-4338-a938-05af65044106","null","<p style=""text-align: center;"">+</p>","null","fixation","","","","","","","","","","","","","","","","","","","","","","","",""
"","","","","","html-slider-response","166","1401444","0.0-21.0-0.18","9b7ebcd5-2ebc-4338-a938-05af65044106","1000","
                  <p style=""text-align: center;"">₪36
                                                <br>60%</p>
                  <p id=""wtp"" style=""text-align:center; margin-top: 0px; margin-bottom: 0px; font-size: 40px"";>&ensp;</p>","-","viewing","0","12","1C,7C,15C","","","","","","","","","","","","","","","","","","","","",""
"","","","","","html-slider-response","167","1404817","0.0-21.0-1.18","9b7ebcd5-2ebc-4338-a938-05af65044106","3373","
                  <p style=""text-align: center;"">₪36
                                                <br>60%</p>
                  <p id=""wtp"" style=""text-align:center; margin-top: 0px; margin-bottom: 0px; font-size: 40px"";>מוכנים לשלם: <span id=""c_p_y""></span></p>","22","evaluation","21","12","1C,7C,15C","60","36","22","","","","","","","","","","","","","","","","","",""
"","","","","","html-keyboard-response","168","1406071","0.0-21.0-2.18","9b7ebcd5-2ebc-4338-a938-05af65044106","null","<p style=""text-align: center;"">+</p>","null","fixation","","","","","","","","","","","","","","","","","","","","","","","",""
"","","","","","html-slider-response","169","1407074","0.0-21.0-0.19","9b7ebcd5-2ebc-4338-a938-05af65044106","1000","
                  <p style=""text-align: center;"">₪79
                                                <br>65%</p>
                  <p id=""wtp"" style=""text-align:center; margin-top: 0px; margin-bottom: 0px; font-size: 40px"";>&ensp;</p>","-","viewing","0","31","8A","","","","","","","","","","","","","","","","","","","","",""
"","","","","","html-slider-response","170","1409913","0.0-21.0-1.19","9b7ebcd5-2ebc-4338-a938-05af65044106","2838","
                  <p style=""text-align: center;"">₪79
                                                <br>65%</p>
                  <p id=""wtp"" style=""text-align:center; margin-top: 0px; margin-bottom: 0px; font-size: 40px"";>מוכנים לשלם: <span id=""c_p_y""></span></p>","40","evaluation","20","31","8A","65","79","40","","","","","","","","","","","","","","","","","",""
"","","","","","html-keyboard-response","171","1410432","0.0-21.0-2.19","9b7ebcd5-2ebc-4338-a938-05af65044106","null","<p style=""text-align: center;"">+</p>","null","fixation","","","","","","","","","","","","","","","","","","","","","","","",""
"","","","","","html-slider-response","172","1411444","0.0-21.0-0.20","9b7ebcd5-2ebc-4338-a938-05af65044106","1000","
                  <p style=""text-align: center;"">₪4
                                                <br>50%</p>
                  <p id=""wtp"" style=""text-align:center; margin-top: 0px; margin-bottom: 0px; font-size: 40px"";>&ensp;</p>","-","viewing","0","2","4C,17B","","","","","","","","","","","","","","","","","","","","",""
"","","","","","html-slider-response","173","1414985","0.0-21.0-1.20","9b7ebcd5-2ebc-4338-a938-05af65044106","3540","
                  <p style=""text-align: center;"">₪4
                                                <br>50%</p>
                  <p id=""wtp"" style=""text-align:center; margin-top: 0px; margin-bottom: 0px; font-size: 40px"";>מוכנים לשלם: <span id=""c_p_y""></span></p>","8","evaluation","70","2","4C,17B","50","4","8","","","","","","","","","","","","","","","","","",""
"","","","","","html-keyboard-response","174","1415946","0.0-21.0-2.20","9b7ebcd5-2ebc-4338-a938-05af65044106","null","<p style=""text-align: center;"">+</p>","null","fixation","","","","","","","","","","","","","","","","","","","","","","","",""
"","","","","","html-slider-response","175","1416948","0.0-21.0-0.21","9b7ebcd5-2ebc-4338-a938-05af65044106","1000","
                  <p style=""text-align: center;"">₪43
                                                <br>75%</p>
                  <p id=""wtp"" style=""text-align:center; margin-top: 0px; margin-bottom: 0px; font-size: 40px"";>&ensp;</p>","-","viewing","0","18","11B,19B,24A,26A","","","","","","","","","","","","","","","","","","","","",""
"","","","","","html-slider-response","176","1420955","0.0-21.0-1.21","9b7ebcd5-2ebc-4338-a938-05af65044106","null","
                  <p style=""text-align: center;"">₪43
                                                <br>75%</p>
                  <p id=""wtp"" style=""text-align:center; margin-top: 0px; margin-bottom: 0px; font-size: 40px"";>מוכנים לשלם: <span id=""c_p_y""></span></p>","null","evaluation","36","18","11B,19B,24A,26A","75","43","13","","","","","","","","","","","","","","","","","",""
"","","","","","html-keyboard-response","177","1421661","0.0-21.0-2.21","9b7ebcd5-2ebc-4338-a938-05af65044106","null","<p style=""text-align: center;"">+</p>","null","fixation","","","","","","","","","","","","","","","","","","","","","","","",""
"","","","","","html-slider-response","178","1422662","0.0-21.0-0.22","9b7ebcd5-2ebc-4338-a938-05af65044106","1000","
                  <p style=""text-align: center;"">₪11
                                                <br>25%</p>
                  <p id=""wtp"" style=""text-align:center; margin-top: 0px; margin-bottom: 0px; font-size: 40px"";>&ensp;</p>","-","viewing","0","5","12A,27B,28B,30B","","","","","","","","","","","","","","","","","","","","",""
"","","","","","html-slider-response","179","1426678","0.0-21.0-1.22","9b7ebcd5-2ebc-4338-a938-05af65044106","null","
                  <p style=""text-align: center;"">₪11
                                                <br>25%</p>
                  <p id=""wtp"" style=""text-align:center; margin-top: 0px; margin-bottom: 0px; font-size: 40px"";>מוכנים לשלם: <span id=""c_p_y""></span></p>","null","evaluation","49","5","12A,27B,28B,30B","25","11","24","","","","","","","","","","","","","","","","","",""
"","","","","","html-keyboard-response","180","1427336","0.0-21.0-2.22","9b7ebcd5-2ebc-4338-a938-05af65044106","null","<p style=""text-align: center;"">+</p>","null","fixation","","","","","","","","","","","","","","","","","","","","","","","",""
"","","","","","html-slider-response","181","1428343","0.0-21.0-0.23","9b7ebcd5-2ebc-4338-a938-05af65044106","1000","
                  <p style=""text-align: center;"">₪61
                                                <br>45%</p>
                  <p id=""wtp"" style=""text-align:center; margin-top: 0px; margin-bottom: 0px; font-size: 40px"";>&ensp;</p>","-","viewing","0","22","10A,11A","","","","","","","","","","","","","","","","","","","","",""
"","","","","","html-slider-response","182","1431727","0.0-21.0-1.23","9b7ebcd5-2ebc-4338-a938-05af65044106","3383","
                  <p style=""text-align: center;"">₪61
                                                <br>45%</p>
                  <p id=""wtp"" style=""text-align:center; margin-top: 0px; margin-bottom: 0px; font-size: 40px"";>מוכנים לשלם: <span id=""c_p_y""></span></p>","18","evaluation","20","22","10A,11A","45","61","19","","","","","","","","","","","","","","","","","",""
"","","","","","html-keyboard-response","183","1432793","0.0-21.0-2.23","9b7ebcd5-2ebc-4338-a938-05af65044106","null","<p style=""text-align: center;"">+</p>","null","fixation","","","","","","","","","","","","","","","","","","","","","","","",""
"","","","","","html-slider-response","184","1433801","0.0-21.0-0.24","9b7ebcd5-2ebc-4338-a938-05af65044106","1000","
                  <p style=""text-align: center;"">₪36
                                                <br>75%</p>
                  <p id=""wtp"" style=""text-align:center; margin-top: 0px; margin-bottom: 0px; font-size: 40px"";>&ensp;</p>","-","viewing","0","14","4B,5A,13B,16B","","","","","","","","","","","","","","","","","","","","",""
"","","","","","html-slider-response","185","1436158","0.0-21.0-1.24","9b7ebcd5-2ebc-4338-a938-05af65044106","2357","
                  <p style=""text-align: center;"">₪36
                                                <br>75%</p>
                  <p id=""wtp"" style=""text-align:center; margin-top: 0px; margin-bottom: 0px; font-size: 40px"";>מוכנים לשלם: <span id=""c_p_y""></span></p>","17","evaluation","39","14","4B,5A,13B,16B","75","36","17","","","","","","","","","","","","","","","","","",""
"","","","","","html-keyboard-response","186","1436700","0.0-21.0-2.24","9b7ebcd5-2ebc-4338-a938-05af65044106","null","<p style=""text-align: center;"">+</p>","null","fixation","","","","","","","","","","","","","","","","","","","","","","","",""
"","","","","","html-slider-response","187","1437702","0.0-21.0-0.25","9b7ebcd5-2ebc-4338-a938-05af65044106","1000","
                  <p style=""text-align: center;"">₪18
                                                <br>50%</p>
                  <p id=""wtp"" style=""text-align:center; margin-top: 0px; margin-bottom: 0px; font-size: 40px"";>&ensp;</p>","-","viewing","0","10","2C,16C,22B,28A","","","","","","","","","","","","","","","","","","","","",""
"","","","","","html-slider-response","188","1441711","0.0-21.0-1.25","9b7ebcd5-2ebc-4338-a938-05af65044106","4007","
                  <p style=""text-align: center;"">₪18
                                                <br>50%</p>
                  <p id=""wtp"" style=""text-align:center; margin-top: 0px; margin-bottom: 0px; font-size: 40px"";>מוכנים לשלם: <span id=""c_p_y""></span></p>","14","evaluation","10","10","2C,16C,22B,28A","50","18","14","","","","","","","","","","","","","","","","","",""
"","","","","","html-keyboard-response","189","1443092","0.0-21.0-2.25","9b7ebcd5-2ebc-4338-a938-05af65044106","null","<p style=""text-align: center;"">+</p>","null","fixation","","","","","","","","","","","","","","","","","","","","","","","",""
"","","","","","html-slider-response","190","1444104","0.0-21.0-0.26","9b7ebcd5-2ebc-4338-a938-05af65044106","1000","
                  <p style=""text-align: center;"">₪39
                                                <br>60%</p>
                  <p id=""wtp"" style=""text-align:center; margin-top: 0px; margin-bottom: 0px; font-size: 40px"";>&ensp;</p>","-","viewing","0","15","9C,25B","","","","","","","","","","","","","","","","","","","","",""
"","","","","","html-slider-response","191","1446703","0.0-21.0-1.26","9b7ebcd5-2ebc-4338-a938-05af65044106","2597","
                  <p style=""text-align: center;"">₪39
                                                <br>60%</p>
                  <p id=""wtp"" style=""text-align:center; margin-top: 0px; margin-bottom: 0px; font-size: 40px"";>מוכנים לשלם: <span id=""c_p_y""></span></p>","20","evaluation","48","15","9C,25B","60","39","21","","","","","","","","","","","","","","","","","",""
"","","","","","html-keyboard-response","192","1448093","0.0-21.0-2.26","9b7ebcd5-2ebc-4338-a938-05af65044106","null","<p style=""text-align: center;"">+</p>","null","fixation","","","","","","","","","","","","","","","","","","","","","","","",""
"","","","","","html-slider-response","193","1449096","0.0-21.0-0.27","9b7ebcd5-2ebc-4338-a938-05af65044106","1000","
                  <p style=""text-align: center;"">₪79
                                                <br>40%</p>
                  <p id=""wtp"" style=""text-align:center; margin-top: 0px; margin-bottom: 0px; font-size: 40px"";>&ensp;</p>","-","viewing","0","30","9B","","","","","","","","","","","","","","","","","","","","",""
"","","","","","html-slider-response","194","1452783","0.0-21.0-1.27","9b7ebcd5-2ebc-4338-a938-05af65044106","3685","
                  <p style=""text-align: center;"">₪79
                                                <br>40%</p>
                  <p id=""wtp"" style=""text-align:center; margin-top: 0px; margin-bottom: 0px; font-size: 40px"";>מוכנים לשלם: <span id=""c_p_y""></span></p>","40","evaluation","35","30","9B","40","79","40","","","","","","","","","","","","","","","","","",""
"","","","","","html-keyboard-response","195","1454073","0.0-21.0-2.27","9b7ebcd5-2ebc-4338-a938-05af65044106","null","<p style=""text-align: center;"">+</p>","null","fixation","","","","","","","","","","","","","","","","","","","","","","","",""
"","","","","","html-slider-response","196","1455089","0.0-21.0-0.28","9b7ebcd5-2ebc-4338-a938-05af65044106","1000","
                  <p style=""text-align: center;"">₪58
                                                <br>30%</p>
                  <p id=""wtp"" style=""text-align:center; margin-top: 0px; margin-bottom: 0px; font-size: 40px"";>&ensp;</p>","-","viewing","0","19","13C,30A","","","","","","","","","","","","","","","","","","","","",""
"","","","","","html-slider-response","197","1458830","0.0-21.0-1.28","9b7ebcd5-2ebc-4338-a938-05af65044106","3740","
                  <p style=""text-align: center;"">₪58
                                                <br>30%</p>
                  <p id=""wtp"" style=""text-align:center; margin-top: 0px; margin-bottom: 0px; font-size: 40px"";>מוכנים לשלם: <span id=""c_p_y""></span></p>","13","evaluation","61","19","13C,30A","30","58","13","","","","","","","","","","","","","","","","","",""
"","","","","","html-keyboard-response","198","1459727","0.0-21.0-2.28","9b7ebcd5-2ebc-4338-a938-05af65044106","null","<p style=""text-align: center;"">+</p>","null","fixation","","","","","","","","","","","","","","","","","","","","","","","",""
"","","","","","html-slider-response","199","1460735","0.0-21.0-0.29","9b7ebcd5-2ebc-4338-a938-05af65044106","1000","
                  <p style=""text-align: center;"">₪71
                                                <br>75%</p>
                  <p id=""wtp"" style=""text-align:center; margin-top: 0px; margin-bottom: 0px; font-size: 40px"";>&ensp;</p>","-","viewing","0","28","8B","","","","","","","","","","","","","","","","","","","","",""
"","","","","","html-slider-response","200","1463078","0.0-21.0-1.29","9b7ebcd5-2ebc-4338-a938-05af65044106","2342","
                  <p style=""text-align: center;"">₪71
                                                <br>75%</p>
                  <p id=""wtp"" style=""text-align:center; margin-top: 0px; margin-bottom: 0px; font-size: 40px"";>מוכנים לשלם: <span id=""c_p_y""></span></p>","33","evaluation","24","28","8B","75","71","33","","","","","","","","","","","","","","","","","",""
"","","","","","html-keyboard-response","201","1463893","0.0-21.0-2.29","9b7ebcd5-2ebc-4338-a938-05af65044106","null","<p style=""text-align: center;"">+</p>","null","fixation","","","","","","","","","","","","","","","","","","","","","","","",""
"","","","","","html-slider-response","202","1464894","0.0-21.0-0.30","9b7ebcd5-2ebc-4338-a938-05af65044106","1000","
                  <p style=""text-align: center;"">₪58
                                                <br>45%</p>
                  <p id=""wtp"" style=""text-align:center; margin-top: 0px; margin-bottom: 0px; font-size: 40px"";>&ensp;</p>","-","viewing","0","21","11C,18C,25A","","","","","","","","","","","","","","","","","","","","",""
"","","","","","html-slider-response","203","1468599","0.0-21.0-1.30","9b7ebcd5-2ebc-4338-a938-05af65044106","3703","
                  <p style=""text-align: center;"">₪58
                                                <br>45%</p>
                  <p id=""wtp"" style=""text-align:center; margin-top: 0px; margin-bottom: 0px; font-size: 40px"";>מוכנים לשלם: <span id=""c_p_y""></span></p>","17","evaluation","21","21","11C,18C,25A","45","58","17","","","","","","","","","","","","","","","","","",""
"","","","","","html-keyboard-response","204","1469530","0.0-21.0-2.30","9b7ebcd5-2ebc-4338-a938-05af65044106","null","<p style=""text-align: center;"">+</p>","null","fixation","","","","","","","","","","","","","","","","","","","","","","","",""
"","","","","","html-keyboard-response","205","1470539","0.0-22.0","9b7ebcd5-2ebc-4338-a938-05af65044106","null","<p style=""text-align: center;"">+</p>","null","fixation","","","","","","","","","","","","","","","","","","","","","","","",""
"","","","","","html-keyboard-response","206","1519275","0.0-23.0","9b7ebcd5-2ebc-4338-a938-05af65044106","null","<p>הפסקה.
          <br>לחצו כדי להמשיך.</p>","1","scan_wait","","","","","","","","","","","","","","","","","","","","","","","",""
"","","","","","html-keyboard-response","207","1520277","0.0-24.0","9b7ebcd5-2ebc-4338-a938-05af65044106","null","<p style=""text-align: center;"">+</p>","null","fixation","","","","","","","","","","","","","","","","","","","","","","","",""
"","","","","","html-slider-response","208","1521281","0.0-25.0-0.0","9b7ebcd5-2ebc-4338-a938-05af65044106","1000","
                  <p style=""text-align: center;"">₪64
                                                <br>50%</p>
                  <p id=""wtp"" style=""text-align:center; margin-top: 0px; margin-bottom: 0px; font-size: 40px"";>&ensp;</p>","-","viewing","0","25","1B,3B,4A","","","","","","","","","","","","","","","","","","","","",""
"","","","","","html-slider-response","209","1524578","0.0-25.0-1.0","9b7ebcd5-2ebc-4338-a938-05af65044106","3297","
                  <p style=""text-align: center;"">₪64
                                                <br>50%</p>
                  <p id=""wtp"" style=""text-align:center; margin-top: 0px; margin-bottom: 0px; font-size: 40px"";>מוכנים לשלם: <span id=""c_p_y""></span></p>","15","evaluation","14","25","1B,3B,4A","50","64","15","","","","","","","","","","","","","","","","","",""
"","","","","","html-keyboard-response","210","1525756","0.0-25.0-2.0","9b7ebcd5-2ebc-4338-a938-05af65044106","null","<p style=""text-align: center;"">+</p>","null","fixation","","","","","","","","","","","","","","","","","","","","","","","",""
"","","","","","html-slider-response","211","1526758","0.0-25.0-0.1","9b7ebcd5-2ebc-4338-a938-05af65044106","1000","
                  <p style=""text-align: center;"">₪18
                                                <br>50%</p>
                  <p id=""wtp"" style=""text-align:center; margin-top: 0px; margin-bottom: 0px; font-size: 40px"";>&ensp;</p>","-","viewing","0","10","2C,16C,22B,28A","","","","","","","","","","","","","","","","","","","","",""
"","","","","","html-slider-response","212","1528779","0.0-25.0-1.1","9b7ebcd5-2ebc-4338-a938-05af65044106","2020","
                  <p style=""text-align: center;"">₪18
                                                <br>50%</p>
                  <p id=""wtp"" style=""text-align:center; margin-top: 0px; margin-bottom: 0px; font-size: 40px"";>מוכנים לשלם: <span id=""c_p_y""></span></p>","9","evaluation","59","10","2C,16C,22B,28A","50","18","10","","","","","","","","","","","","","","","","","",""
"","","","","","html-keyboard-response","213","1530102","0.0-25.0-2.1","9b7ebcd5-2ebc-4338-a938-05af65044106","null","<p style=""text-align: center;"">+</p>","null","fixation","","","","","","","","","","","","","","","","","","","","","","","",""
"","","","","","html-slider-response","214","1531118","0.0-25.0-0.2","9b7ebcd5-2ebc-4338-a938-05af65044106","1000","
                  <p style=""text-align: center;"">₪11
                                                <br>45%</p>
                  <p id=""wtp"" style=""text-align:center; margin-top: 0px; margin-bottom: 0px; font-size: 40px"";>&ensp;</p>","-","viewing","0","6","14B,21C,25C","","","","","","","","","","","","","","","","","","","","",""
"","","","","","html-slider-response","215","1532506","0.0-25.0-1.2","9b7ebcd5-2ebc-4338-a938-05af65044106","1388","
                  <p style=""text-align: center;"">₪11
                                                <br>45%</p>
                  <p id=""wtp"" style=""text-align:center; margin-top: 0px; margin-bottom: 0px; font-size: 40px"";>מוכנים לשלם: <span id=""c_p_y""></span></p>","1","evaluation","40","6","14B,21C,25C","45","11","1","","","","","","","","","","","","","","","","","",""
"","","","","","html-keyboard-response","216","1533765","0.0-25.0-2.2","9b7ebcd5-2ebc-4338-a938-05af65044106","null","<p style=""text-align: center;"">+</p>","null","fixation","","","","","","","","","","","","","","","","","","","","","","","",""
"","","","","","html-slider-response","217","1534766","0.0-25.0-0.3","9b7ebcd5-2ebc-4338-a938-05af65044106","1000","
                  <p style=""text-align: center;"">₪43
                                                <br>60%</p>
                  <p id=""wtp"" style=""text-align:center; margin-top: 0px; margin-bottom: 0px; font-size: 40px"";>&ensp;</p>","-","viewing","0","17","2A,7A,9A,15B","","","","","","","","","","","","","","","","","","","","",""
"","","","","","html-slider-response","218","1538774","0.0-25.0-1.3","9b7ebcd5-2ebc-4338-a938-05af65044106","null","
                  <p style=""text-align: center;"">₪43
                                                <br>60%</p>
                  <p id=""wtp"" style=""text-align:center; margin-top: 0px; margin-bottom: 0px; font-size: 40px"";>מוכנים לשלם: <span id=""c_p_y""></span></p>","null","evaluation","62","17","2A,7A,9A,15B","60","43","9","","","","","","","","","","","","","","","","","",""
"","","","","","html-keyboard-response","219","1539431","0.0-25.0-2.3","9b7ebcd5-2ebc-4338-a938-05af65044106","null","<p style=""text-align: center;"">+</p>","null","fixation","","","","","","","","","","","","","","","","","","","","","","","",""
"","","","","","html-slider-response","220","1540436","0.0-25.0-0.4","9b7ebcd5-2ebc-4338-a938-05af65044106","1000","
                  <p style=""text-align: center;"">₪43
                                                <br>75%</p>
                  <p id=""wtp"" style=""text-align:center; margin-top: 0px; margin-bottom: 0px; font-size: 40px"";>&ensp;</p>","-","viewing","0","18","11B,19B,24A,26A","","","","","","","","","","","","","","","","","","","","",""
"","","","","","html-slider-response","221","1544438","0.0-25.0-1.4","9b7ebcd5-2ebc-4338-a938-05af65044106","null","
                  <p style=""text-align: center;"">₪43
                                                <br>75%</p>
                  <p id=""wtp"" style=""text-align:center; margin-top: 0px; margin-bottom: 0px; font-size: 40px"";>מוכנים לשלם: <span id=""c_p_y""></span></p>","null","evaluation","47","18","11B,19B,24A,26A","75","43","23","","","","","","","","","","","","","","","","","",""
"","","","","","html-keyboard-response","222","1545914","0.0-25.0-2.4","9b7ebcd5-2ebc-4338-a938-05af65044106","null","<p style=""text-align: center;"">+</p>","null","fixation","","","","","","","","","","","","","","","","","","","","","","","",""
"","","","","","html-slider-response","223","1546924","0.0-25.0-0.5","9b7ebcd5-2ebc-4338-a938-05af65044106","1000","
                  <p style=""text-align: center;"">₪11
                                                <br>20%</p>
                  <p id=""wtp"" style=""text-align:center; margin-top: 0px; margin-bottom: 0px; font-size: 40px"";>&ensp;</p>","-","viewing","0","4","12C,17C,23C,28C","","","","","","","","","","","","","","","","","","","","",""
"","","","","","html-slider-response","224","1549508","0.0-25.0-1.5","9b7ebcd5-2ebc-4338-a938-05af65044106","2583","
                  <p style=""text-align: center;"">₪11
                                                <br>20%</p>
                  <p id=""wtp"" style=""text-align:center; margin-top: 0px; margin-bottom: 0px; font-size: 40px"";>מוכנים לשלם: <span id=""c_p_y""></span></p>","22","evaluation","47","4","12C,17C,23C,28C","20","11","22","","","","","","","","","","","","","","","","","",""
"","","","","","html-keyboard-response","225","1550547","0.0-25.0-2.5","9b7ebcd5-2ebc-4338-a938-05af65044106","null","<p style=""text-align: center;"">+</p>","null","fixation","","","","","","","","","","","","","","","","","","","","","","","",""
"","","","","","html-slider-response","226","1551549","0.0-25.0-0.6","9b7ebcd5-2ebc-4338-a938-05af65044106","1000","
                  <p style=""text-align: center;"">₪4
                                                <br>25%</p>
                  <p id=""wtp"" style=""text-align:center; margin-top: 0px; margin-bottom: 0px; font-size: 40px"";>&ensp;</p>","-","viewing","0","1","6C,29B,30C","","","","","","","","","","","","","","","","","","","","",""
"","","","","","html-slider-response","227","1553338","0.0-25.0-1.6","9b7ebcd5-2ebc-4338-a938-05af65044106","1789","
                  <p style=""text-align: center;"">₪4
                                                <br>25%</p>
                  <p id=""wtp"" style=""text-align:center; margin-top: 0px; margin-bottom: 0px; font-size: 40px"";>מוכנים לשלם: <span id=""c_p_y""></span></p>","1","evaluation","26","1","6C,29B,30C","25","4","1","","","","","","","","","","","","","","","","","",""
"","","","","","html-keyboard-response","228","1554063","0.0-25.0-2.6","9b7ebcd5-2ebc-4338-a938-05af65044106","null","<p style=""text-align: center;"">+</p>","null","fixation","","","","","","","","","","","","","","","","","","","","","","","",""
"","","","","","html-slider-response","229","1555076","0.0-25.0-0.7","9b7ebcd5-2ebc-4338-a938-05af65044106","1000","
                  <p style=""text-align: center;"">₪58
                                                <br>30%</p>
                  <p id=""wtp"" style=""text-align:center; margin-top: 0px; margin-bottom: 0px; font-size: 40px"";>&ensp;</p>","-","viewing","0","19","13C,30A","","","","","","","","","","","","","","","","","","","","",""
"","","","","","html-slider-response","230","1559077","0.0-25.0-1.7","9b7ebcd5-2ebc-4338-a938-05af65044106","null","
                  <p style=""text-align: center;"">₪58
                                                <br>30%</p>
                  <p id=""wtp"" style=""text-align:center; margin-top: 0px; margin-bottom: 0px; font-size: 40px"";>מוכנים לשלם: <span id=""c_p_y""></span></p>","null","evaluation","57","19","13C,30A","30","58","6","","","","","","","","","","","","","","","","","",""
"","","","","","html-keyboard-response","231","1559640","0.0-25.0-2.7","9b7ebcd5-2ebc-4338-a938-05af65044106","null","<p style=""text-align: center;"">+</p>","null","fixation","","","","","","","","","","","","","","","","","","","","","","","",""
"","","","","","html-slider-response","232","1560643","0.0-25.0-0.8","9b7ebcd5-2ebc-4338-a938-05af65044106","1000","
                  <p style=""text-align: center;"">₪71
                                                <br>75%</p>
                  <p id=""wtp"" style=""text-align:center; margin-top: 0px; margin-bottom: 0px; font-size: 40px"";>&ensp;</p>","-","viewing","0","28","8B","","","","","","","","","","","","","","","","","","","","",""
"","","","","","html-slider-response","233","1564444","0.0-25.0-1.8","9b7ebcd5-2ebc-4338-a938-05af65044106","3800","
                  <p style=""text-align: center;"">₪71
                                                <br>75%</p>
                  <p id=""wtp"" style=""text-align:center; margin-top: 0px; margin-bottom: 0px; font-size: 40px"";>מוכנים לשלם: <span id=""c_p_y""></span></p>","10","evaluation","68","28","8B","75","71","11","","","","","","","","","","","","","","","","","",""
"","","","","","html-keyboard-response","234","1565105","0.0-25.0-2.8","9b7ebcd5-2ebc-4338-a938-05af65044106","null","<p style=""text-align: center;"">+</p>","null","fixation","","","","","","","","","","","","","","","","","","","","","","","",""
"","","","","","html-slider-response","235","1566110","0.0-25.0-0.9","9b7ebcd5-2ebc-4338-a938-05af65044106","1000","
                  <p style=""text-align: center;"">₪61
                                                <br>55%</p>
                  <p id=""wtp"" style=""text-align:center; margin-top: 0px; margin-bottom: 0px; font-size: 40px"";>&ensp;</p>","-","viewing","0","23","7B,26B","","","","","","","","","","","","","","","","","","","","",""
"","","","","","html-slider-response","236","1569330","0.0-25.0-1.9","9b7ebcd5-2ebc-4338-a938-05af65044106","3220","
                  <p style=""text-align: center;"">₪61
                                                <br>55%</p>
                  <p id=""wtp"" style=""text-align:center; margin-top: 0px; margin-bottom: 0px; font-size: 40px"";>מוכנים לשלם: <span id=""c_p_y""></span></p>","25","evaluation","69","23","7B,26B","55","61","25","","","","","","","","","","","","","","","","","",""
"","","","","","html-keyboard-response","237","1570694","0.0-25.0-2.9","9b7ebcd5-2ebc-4338-a938-05af65044106","null","<p style=""text-align: center;"">+</p>","null","fixation","","","","","","","","","","","","","","","","","","","","","","","",""
"","","","","","html-slider-response","238","1571698","0.0-25.0-0.10","9b7ebcd5-2ebc-4338-a938-05af65044106","1000","
                  <p style=""text-align: center;"">₪79
                                                <br>40%</p>
                  <p id=""wtp"" style=""text-align:center; margin-top: 0px; margin-bottom: 0px; font-size: 40px"";>&ensp;</p>","-","viewing","0","30","9B","","","","","","","","","","","","","","","","","","","","",""
"","","","","","html-slider-response","239","1575697","0.0-25.0-1.10","9b7ebcd5-2ebc-4338-a938-05af65044106","null","
                  <p style=""text-align: center;"">₪79
                                                <br>40%</p>
                  <p id=""wtp"" style=""text-align:center; margin-top: 0px; margin-bottom: 0px; font-size: 40px"";>מוכנים לשלם: <span id=""c_p_y""></span></p>","null","evaluation","8","30","9B","40","79","27","","","","","","","","","","","","","","","","","",""
"","","","","","html-keyboard-response","240","1576605","0.0-25.0-2.10","9b7ebcd5-2ebc-4338-a938-05af65044106","null","<p style=""text-align: center;"">+</p>","null","fixation","","","","","","","","","","","","","","","","","","","","","","","",""
"","","","","","html-slider-response","241","1577608","0.0-25.0-0.11","9b7ebcd5-2ebc-4338-a938-05af65044106","1000","
                  <p style=""text-align: center;"">₪58
                                                <br>40%</p>
                  <p id=""wtp"" style=""text-align:center; margin-top: 0px; margin-bottom: 0px; font-size: 40px"";>&ensp;</p>","-","viewing","0","20","10C,13A,19C,21B","","","","","","","","","","","","","","","","","","","","",""
"","","","","","html-slider-response","242","1580784","0.0-25.0-1.11","9b7ebcd5-2ebc-4338-a938-05af65044106","3175","
                  <p style=""text-align: center;"">₪58
                                                <br>40%</p>
                  <p id=""wtp"" style=""text-align:center; margin-top: 0px; margin-bottom: 0px; font-size: 40px"";>מוכנים לשלם: <span id=""c_p_y""></span></p>","16","evaluation","70","20","10C,13A,19C,21B","40","58","16","","","","","","","","","","","","","","","","","",""
"","","","","","html-keyboard-response","243","1581567","0.0-25.0-2.11","9b7ebcd5-2ebc-4338-a938-05af65044106","null","<p style=""text-align: center;"">+</p>","null","fixation","","","","","","","","","","","","","","","","","","","","","","","",""
"","","","","","html-slider-response","244","1582584","0.0-25.0-0.12","9b7ebcd5-2ebc-4338-a938-05af65044106","1000","
                  <p style=""text-align: center;"">₪11
                                                <br>75%</p>
                  <p id=""wtp"" style=""text-align:center; margin-top: 0px; margin-bottom: 0px; font-size: 40px"";>&ensp;</p>","-","viewing","0","7","6B,18B,22C,24C,29A","","","","","","","","","","","","","","","","","","","","",""
"","","","","","html-slider-response","245","1585759","0.0-25.0-1.12","9b7ebcd5-2ebc-4338-a938-05af65044106","3174","
                  <p style=""text-align: center;"">₪11
                                                <br>75%</p>
                  <p id=""wtp"" style=""text-align:center; margin-top: 0px; margin-bottom: 0px; font-size: 40px"";>מוכנים לשלם: <span id=""c_p_y""></span></p>","5","evaluation","71","7","6B,18B,22C,24C,29A","75","11","5","","","","","","","","","","","","","","","","","",""
"","","","","","html-keyboard-response","246","1587136","0.0-25.0-2.12","9b7ebcd5-2ebc-4338-a938-05af65044106","null","<p style=""text-align: center;"">+</p>","null","fixation","","","","","","","","","","","","","","","","","","","","","","","",""
"","","","","","html-slider-response","247","1588147","0.0-25.0-0.13","9b7ebcd5-2ebc-4338-a938-05af65044106","1000","
