"success","timeout","failed_images","failed_audio","failed_video","trial_type","trial_index","time_elapsed","internal_node_id","subject_id","rt","stimulus","response","part","slider_start","ID","set_ID","prob","amount","last_location","actual_choice","actual_EV","binary_id","trinary_id","catch","direction","A_key","S_key","D_key","choice_prob","choice_amount","chosen_part","won_prize","potential_prize_amount","potential_prize_prob","total_prize","accuracy"
"true","false","[]","[]","[]","preload","0","63","0.0-0.0","3c47eb2e-4d12-4c97-9e9d-433d49382f36","","","","","","","","","","","","","","","","","","","","","","","","","","",""
"","","","","","html-keyboard-response","1","634869","0.0-1.0","3c47eb2e-4d12-4c97-9e9d-433d49382f36","634888","
          <h1>שלום וברוכים הבאים!</h1>
          <p>לפניכם ניסוי בקבלת החלטות עם שני חלקים.
          <br><br>לחצו על העכבר כדי להמשיך.</p>","0","example","","","","","","","","","","","","","","","","","","","","","","",""
"","","","","","html-keyboard-response","2","674242","0.0-2.0","3c47eb2e-4d12-4c97-9e9d-433d49382f36","39120","
        <h1>חלק 1</h1>
        <p>בקרוב יוצגו בפניכם הגרלות.
        <br>עליכם לבחור את המחיר המירבי שתהיו מוכנים לשלם כדי להשתתף בהגרלה שתוצג.
        <br>יש לכם תקציב של ₪80 לכל הגרלה. 
        <br>נסו להעריך כל הגרלה בנפרד ולחשוב כמה היא שווה עבורכם, ₪80 זמינים לכל הגרלה בנפרד.
        <br><br>לחצו על העכבר כדי להמשיך.</p>"," ","instructions","","","","","","","","","","","","","","","","","","","","","","",""
"","","","","","html-keyboard-response","3","730631","0.0-3.0","3c47eb2e-4d12-4c97-9e9d-433d49382f36","null","
        <p>בסוף הניסוי, המחשב יבחר את אחת ההגרלות ויקבע מחיר לכרטיס עבורה. 
        <br>במידה והמחיר שבחרתם נמוך מהמחיר שנבחר על ידי המחשב, לא תשתתפו בהגרלה ותשארו עם מלוא התקציב.
        <br>במידה והמחיר שבחרתם גבוה מהמחיר שנבחר על ידי המחשב, תשלמו את המחיר שנקבע ותשתתפו בהגרלה.
        <br><br>לחצו על העכבר כדי להמשיך.</p>","1","instructions","","","","","","","","","","","","","","","","","","","","","","",""
"","","","","","html-slider-response","4","770279","0.0-4.0","3c47eb2e-4d12-4c97-9e9d-433d49382f36","39530","
        <p style=""font-size: 42px;"">נתחיל עם דוגמא: 
        <br>ההגרלה מטה מציעה 65% סיכוי לזכות ב-₪40 
        <br>&emsp;&emsp;&emsp;&emsp;&emsp;&emsp;&emsp;&emsp;&ensp;35% סיכוי לזכות ב-₪0.
        <br><br>מה המחיר המירבי שתהיו מוכנים לשלם על כרטיס להגרלה זו בין 0 ל-₪80?
        <br>הזיזו את העכבר על פני המלבן ולחצו כדי לבצע בחירה.</p>
        
        <p style=""text-align: center;"">₪40<br>65%</p>

        <p id=""wtp"" style=""text-align:center; margin-top: 0px; margin-bottom: 0px; font-size: 40px"";>מוכנים לשלם: <span id=""c_p_y""></span></p>","20","example","74","","","","","","","","","","","","","","","","","","","","","",""
"","","","","","html-keyboard-response","5","794392","0.0-5.0","3c47eb2e-4d12-4c97-9e9d-433d49382f36","null","<p>יפה מאוד!
                <br> בחרתם שתהיו מוכנים לשלם ₪20 כדי להשתתף בהגרלה:
                <br><p style=""text-align: center;"">₪40<br>65%</p>
                <p>נשמע נכון?
                <br>נניח שהגרלה זו נבחרה בסוף הניסוי.
                <br>כעת המחשב יקבע מחיר עבורה באקראי.
                <br>לחצו על העכבר להמשך.</p>","1","example","","","","","","","","","","","","","","","","","","","","","","",""
"","","","","","html-keyboard-response","6","811528","0.0-6.0","3c47eb2e-4d12-4c97-9e9d-433d49382f36","null","<p>המחשב קבע מחיר: ₪42
                <br>ואתם בחרתם לשלם לכל היותר: ₪20
                <br><br>מכיוון שהמחיר שבחרתם נמוך מהמחיר שנקבע, לא תתשתתפו בהגרלה.
                <br>במקרה כזה, בסוף הניסוי תקבלו את כל התקציב ההתחלתי של ₪80.
                <br><br>לחצו על העכבר להמשך.</p>","1","example","","","","","","","","","","","","","","","","","","","","","","",""
"","","","","","html-slider-response","7","821049","0.0-7.0","3c47eb2e-4d12-4c97-9e9d-433d49382f36","9263","<p style=""font-size: 42px;"">הנה עוד דוגמא:
                <br>ההגרלה מטה מציעה 35% סיכוי לזכות ב-₪18 
                <br>&emsp;&emsp;&emsp;&emsp;&emsp;&emsp;&emsp;&emsp;&ensp;65% סיכוי לזכות ב-₪0.</p>
        
                <p style=""text-align: center;"">₪18<br>35%</p>
                <p id=""wtp"" style=""text-align:center; margin-top: 0px; margin-bottom: 0px; font-size: 40px"";>מוכנים לשלם: <span id=""c_p_y""></span></p>","15","example","0","","","","","","","","","","","","","","","","","","","","","",""
"","","","","","html-keyboard-response","8","830568","0.0-8.0","3c47eb2e-4d12-4c97-9e9d-433d49382f36","null","<p>הייתם מוכנים לשלם  ₪15 כדי להשתתף בהגרלה:
                <p style=""text-align: center;"">₪18<br>35%</p>
                <p>כעת נניח שהמחשב בחר את ההגרלה הזו בסוף הניסוי, וקבע עבורה מחיר.
                <br><br>לחצו על העכבר כדי להמשיך.</p>","1","instructions","","","","","","","","","","","","","","","","","","","","","","",""
"","","","","","html-keyboard-response","9","850746","0.0-9.0","3c47eb2e-4d12-4c97-9e9d-433d49382f36","null","<p>המחשב קבע מחיר להגרלה: ₪14<br>ואתם בחרתם לשלם לכל היותר: ₪15
                <br><br>כעת המחיר שנקבע נמוך מזה שבחרתם, אז תשלמו את המחיר שקבע המחשב (₪14) ותשתתפו בהגרלה.
                <br>במקרה כזה, תסיימו את הניסוי עם תקציב של ₪66 ועם סיכוי לזכות ב-₪18 נוספים מההגרלה.
                <br>כלומר, תוכלו לקבל ₪66 אם לא תזכו בהגרלה, או ₪84 אם תזכו בהגרלה.
                <br><br>לחצו על העכבר להמשך.</p>","1","example","","","","","","","","","","","","","","","","","","","","","","",""
"","","","","","html-keyboard-response","10","861338","0.0-10.0","3c47eb2e-4d12-4c97-9e9d-433d49382f36","null","<p>במהלך הניסוי, קודם תראו את ההגרלה ורק לאחר מכן תוכלו לבחור.
                <p>כמו כן, יהיו לכם מספר שניות מוגבל להגיב.
                <p>בואו ננסה זאת עם ההגרלה הקודמת.
                <br>לחצו על העכבר כדי להמשיך.</p>","1","instructions","","","","","","","","","","","","","","","","","","","","","","",""
"","","","","","html-slider-response","11","862617","0.0-11.0","3c47eb2e-4d12-4c97-9e9d-433d49382f36","1000","
                    <p style=""text-align: center;"">₪18<br>35%</p>
                    <p id=""wtp"" style=""text-align:center; margin-top: 0px; margin-bottom: 0px; font-size: 40px"";>&ensp;</p>","30","instructions","0","","","","","","","","","","","","","","","","","","","","","",""
"","","","","","html-slider-response","12","866888","0.0-12.0","3c47eb2e-4d12-4c97-9e9d-433d49382f36","null","
                    <p style=""text-align: center;"">₪18<br>35%</p>
                    <p id=""wtp"" style=""text-align:center; margin-top: 0px; margin-bottom: 0px; font-size: 40px"";>מוכנים לשלם: <span id=""c_p_y""></span></p>","null","instructions","18","","","","","","","","","","","","","","","","","","","","","",""
"","","","","","html-keyboard-response","13","870850","0.0-13.0","3c47eb2e-4d12-4c97-9e9d-433d49382f36","null","<p>לא הגבתם בזמן המוקצב לתגובה. 
                <br>נסו להגיב מהר יותר בפעם הבאה.
                <br><br>לחצו על העכבר כדי להמשיך.</p>","1","instructions","","","","","","","","","","","","","","","","","","","","","","",""
"","","","","","html-slider-response","14","875105","0.0-14.0-0.0","3c47eb2e-4d12-4c97-9e9d-433d49382f36","null","
                    <p style=""text-align: center;"">₪40<br>65%</p>
                    <p id=""wtp"" style=""text-align:center; margin-top: 0px; margin-bottom: 0px; font-size: 40px"";>מוכנים לשלם: <span id=""c_p_y""></span></p>","null","instructions","46","","","","","","","","","","","","","","","","","","","","","",""
"","","","","","html-keyboard-response","15","876266","0.0-14.0-1.0","3c47eb2e-4d12-4c97-9e9d-433d49382f36","null","<p>לא הגבתם בזמן המוקצב לתגובה. 
                <br>נסו להגיב מהר יותר בפעם הבאה.
                <br><br>לחצו על העכבר כדי להמשיך.</p>","1","instructions","","","","","","","","","","","","","","","","","","","","","","",""
"","","","","","html-keyboard-response","16","883674","0.0-15.0","3c47eb2e-4d12-4c97-9e9d-433d49382f36","null","<p>כעת נתחיל את הניסוי.
                <br><br>אתם תראו הגרלות ותתבקשו לבחור כמה תהיו מוכנים לשלם כדי להשתתף בהן.
                <br>יש לכם תקציב של ₪80 עבור כל הגרלה.
                <br>בסוף הניסוי הגרלה אחת תבחר באקראי ותשוחק.
                <br><br>לחצו על העכבר כדי להתחיל את הניסוי.</p>","1","instructions","","","","","","","","","","","","","","","","","","","","","","",""
"","","","","","html-keyboard-response","17","884937","0.0-16.0","3c47eb2e-4d12-4c97-9e9d-433d49382f36","null","<p style=""text-align: center;"">+</p>","null","fixation","","","","","","","","","","","","","","","","","","","","","","",""
"","","","","","html-slider-response","18","885946","0.0-17.0-0.0","3c47eb2e-4d12-4c97-9e9d-433d49382f36","1000","
                  <p style=""text-align: center;"">₪11
                                                <br>20%</p>
                  <p id=""wtp"" style=""text-align:center; margin-top: 0px; margin-bottom: 0px; font-size: 40px"";>&ensp;</p>","-","viewing","0","4","12C,17C,23C,28C","","","","","","","","","","","","","","","","","","","",""
"","","","","","html-slider-response","19","888250","0.0-17.0-1.0","3c47eb2e-4d12-4c97-9e9d-433d49382f36","2302","
                  <p style=""text-align: center;"">₪11
                                                <br>20%</p>
                  <p id=""wtp"" style=""text-align:center; margin-top: 0px; margin-bottom: 0px; font-size: 40px"";>מוכנים לשלם: <span id=""c_p_y""></span></p>","24","evaluation","57","4","12C,17C,23C,28C","20","11","25","","","","","","","","","","","","","","","","",""
"","","","","","html-keyboard-response","20","888965","0.0-17.0-2.0","3c47eb2e-4d12-4c97-9e9d-433d49382f36","null","<p style=""text-align: center;"">+</p>","null","fixation","","","","","","","","","","","","","","","","","","","","","","",""
"","","","","","html-slider-response","21","889980","0.0-17.0-0.1","3c47eb2e-4d12-4c97-9e9d-433d49382f36","1000","
                  <p style=""text-align: center;"">₪36
                                                <br>70%</p>
                  <p id=""wtp"" style=""text-align:center; margin-top: 0px; margin-bottom: 0px; font-size: 40px"";>&ensp;</p>","-","viewing","0","13","3A,5C,10B","","","","","","","","","","","","","","","","","","","",""
"","","","","","html-slider-response","22","892729","0.0-17.0-1.1","3c47eb2e-4d12-4c97-9e9d-433d49382f36","2748","
                  <p style=""text-align: center;"">₪36
                                                <br>70%</p>
                  <p id=""wtp"" style=""text-align:center; margin-top: 0px; margin-bottom: 0px; font-size: 40px"";>מוכנים לשלם: <span id=""c_p_y""></span></p>","60","evaluation","13","13","3A,5C,10B","70","36","60","","","","","","","","","","","","","","","","",""
"","","","","","html-keyboard-response","23","893281","0.0-17.0-2.1","3c47eb2e-4d12-4c97-9e9d-433d49382f36","null","<p style=""text-align: center;"">+</p>","null","fixation","","","","","","","","","","","","","","","","","","","","","","",""
"","","","","","html-slider-response","24","894296","0.0-17.0-0.2","3c47eb2e-4d12-4c97-9e9d-433d49382f36","1000","
                  <p style=""text-align: center;"">₪43
                                                <br>60%</p>
                  <p id=""wtp"" style=""text-align:center; margin-top: 0px; margin-bottom: 0px; font-size: 40px"";>&ensp;</p>","-","viewing","0","17","2A,7A,9A,15B","","","","","","","","","","","","","","","","","","","",""
"","","","","","html-slider-response","25","896786","0.0-17.0-1.2","3c47eb2e-4d12-4c97-9e9d-433d49382f36","2488","
                  <p style=""text-align: center;"">₪43
                                                <br>60%</p>
                  <p id=""wtp"" style=""text-align:center; margin-top: 0px; margin-bottom: 0px; font-size: 40px"";>מוכנים לשלם: <span id=""c_p_y""></span></p>","55","evaluation","53","17","2A,7A,9A,15B","60","43","55","","","","","","","","","","","","","","","","",""
"","","","","","html-keyboard-response","26","897814","0.0-17.0-2.2","3c47eb2e-4d12-4c97-9e9d-433d49382f36","null","<p style=""text-align: center;"">+</p>","null","fixation","","","","","","","","","","","","","","","","","","","","","","",""
"","","","","","html-slider-response","27","898828","0.0-17.0-0.3","3c47eb2e-4d12-4c97-9e9d-433d49382f36","1000","
                  <p style=""text-align: center;"">₪79
                                                <br>40%</p>
                  <p id=""wtp"" style=""text-align:center; margin-top: 0px; margin-bottom: 0px; font-size: 40px"";>&ensp;</p>","-","viewing","0","30","9B","","","","","","","","","","","","","","","","","","","",""
"","","","","","html-slider-response","28","901619","0.0-17.0-1.3","3c47eb2e-4d12-4c97-9e9d-433d49382f36","2797","
                  <p style=""text-align: center;"">₪79
                                                <br>40%</p>
                  <p id=""wtp"" style=""text-align:center; margin-top: 0px; margin-bottom: 0px; font-size: 40px"";>מוכנים לשלם: <span id=""c_p_y""></span></p>","33","evaluation","46","30","9B","40","79","33","","","","","","","","","","","","","","","","",""
"","","","","","html-keyboard-response","29","902802","0.0-17.0-2.3","3c47eb2e-4d12-4c97-9e9d-433d49382f36","null","<p style=""text-align: center;"">+</p>","null","fixation","","","","","","","","","","","","","","","","","","","","","","",""
"","","","","","html-slider-response","30","903806","0.0-17.0-0.4","3c47eb2e-4d12-4c97-9e9d-433d49382f36","1000","
                  <p style=""text-align: center;"">₪61
                                                <br>45%</p>
                  <p id=""wtp"" style=""text-align:center; margin-top: 0px; margin-bottom: 0px; font-size: 40px"";>&ensp;</p>","-","viewing","0","22","10A,11A","","","","","","","","","","","","","","","","","","","",""
"","","","","","html-slider-response","31","906891","0.0-17.0-1.4","3c47eb2e-4d12-4c97-9e9d-433d49382f36","3084","
                  <p style=""text-align: center;"">₪61
                                                <br>45%</p>
                  <p id=""wtp"" style=""text-align:center; margin-top: 0px; margin-bottom: 0px; font-size: 40px"";>מוכנים לשלם: <span id=""c_p_y""></span></p>","39","evaluation","5","22","10A,11A","45","61","39","","","","","","","","","","","","","","","","",""
"","","","","","html-keyboard-response","32","907716","0.0-17.0-2.4","3c47eb2e-4d12-4c97-9e9d-433d49382f36","null","<p style=""text-align: center;"">+</p>","null","fixation","","","","","","","","","","","","","","","","","","","","","","",""
"","","","","","html-slider-response","33","908724","0.0-17.0-0.5","3c47eb2e-4d12-4c97-9e9d-433d49382f36","1000","
                  <p style=""text-align: center;"">₪11
                                                <br>25%</p>
                  <p id=""wtp"" style=""text-align:center; margin-top: 0px; margin-bottom: 0px; font-size: 40px"";>&ensp;</p>","-","viewing","0","5","12A,27B,28B,30B","","","","","","","","","","","","","","","","","","","",""
"","","","","","html-slider-response","34","911539","0.0-17.0-1.5","3c47eb2e-4d12-4c97-9e9d-433d49382f36","2814","
                  <p style=""text-align: center;"">₪11
                                                <br>25%</p>
                  <p id=""wtp"" style=""text-align:center; margin-top: 0px; margin-bottom: 0px; font-size: 40px"";>מוכנים לשלם: <span id=""c_p_y""></span></p>","26","evaluation","29","5","12A,27B,28B,30B","25","11","26","","","","","","","","","","","","","","","","",""
"","","","","","html-keyboard-response","35","913007","0.0-17.0-2.5","3c47eb2e-4d12-4c97-9e9d-433d49382f36","null","<p style=""text-align: center;"">+</p>","null","fixation","","","","","","","","","","","","","","","","","","","","","","",""
"","","","","","html-slider-response","36","914013","0.0-17.0-0.6","3c47eb2e-4d12-4c97-9e9d-433d49382f36","1000","
                  <p style=""text-align: center;"">₪71
                                                <br>75%</p>
                  <p id=""wtp"" style=""text-align:center; margin-top: 0px; margin-bottom: 0px; font-size: 40px"";>&ensp;</p>","-","viewing","0","28","8B","","","","","","","","","","","","","","","","","","","",""
"","","","","","html-slider-response","37","916731","0.0-17.0-1.6","3c47eb2e-4d12-4c97-9e9d-433d49382f36","2717","
                  <p style=""text-align: center;"">₪71
                                                <br>75%</p>
                  <p id=""wtp"" style=""text-align:center; margin-top: 0px; margin-bottom: 0px; font-size: 40px"";>מוכנים לשלם: <span id=""c_p_y""></span></p>","69","evaluation","61","28","8B","75","71","69","","","","","","","","","","","","","","","","",""
"","","","","","html-keyboard-response","38","917601","0.0-17.0-2.6","3c47eb2e-4d12-4c97-9e9d-433d49382f36","null","<p style=""text-align: center;"">+</p>","null","fixation","","","","","","","","","","","","","","","","","","","","","","",""
"","","","","","html-slider-response","39","918603","0.0-17.0-0.7","3c47eb2e-4d12-4c97-9e9d-433d49382f36","1000","
                  <p style=""text-align: center;"">₪61
                                                <br>55%</p>
                  <p id=""wtp"" style=""text-align:center; margin-top: 0px; margin-bottom: 0px; font-size: 40px"";>&ensp;</p>","-","viewing","0","23","7B,26B","","","","","","","","","","","","","","","","","","","",""
"","","","","","html-slider-response","40","922291","0.0-17.0-1.7","3c47eb2e-4d12-4c97-9e9d-433d49382f36","3688","
                  <p style=""text-align: center;"">₪61
                                                <br>55%</p>
                  <p id=""wtp"" style=""text-align:center; margin-top: 0px; margin-bottom: 0px; font-size: 40px"";>מוכנים לשלם: <span id=""c_p_y""></span></p>","41","evaluation","38","23","7B,26B","55","61","41","","","","","","","","","","","","","","","","",""
"","","","","","html-keyboard-response","41","923121","0.0-17.0-2.7","3c47eb2e-4d12-4c97-9e9d-433d49382f36","null","<p style=""text-align: center;"">+</p>","null","fixation","","","","","","","","","","","","","","","","","","","","","","",""
"","","","","","html-slider-response","42","924125","0.0-17.0-0.8","3c47eb2e-4d12-4c97-9e9d-433d49382f36","1000","
                  <p style=""text-align: center;"">₪58
                                                <br>45%</p>
                  <p id=""wtp"" style=""text-align:center; margin-top: 0px; margin-bottom: 0px; font-size: 40px"";>&ensp;</p>","-","viewing","0","21","11C,18C,25A","","","","","","","","","","","","","","","","","","","",""
"","","","","","html-slider-response","43","927275","0.0-17.0-1.8","3c47eb2e-4d12-4c97-9e9d-433d49382f36","3149","
                  <p style=""text-align: center;"">₪58
                                                <br>45%</p>
                  <p id=""wtp"" style=""text-align:center; margin-top: 0px; margin-bottom: 0px; font-size: 40px"";>מוכנים לשלם: <span id=""c_p_y""></span></p>","34","evaluation","24","21","11C,18C,25A","45","58","34","","","","","","","","","","","","","","","","",""
"","","","","","html-keyboard-response","44","928758","0.0-17.0-2.8","3c47eb2e-4d12-4c97-9e9d-433d49382f36","null","<p style=""text-align: center;"">+</p>","null","fixation","","","","","","","","","","","","","","","","","","","","","","",""
"","","","","","html-slider-response","45","929763","0.0-17.0-0.9","3c47eb2e-4d12-4c97-9e9d-433d49382f36","1000","
                  <p style=""text-align: center;"">₪36
                                                <br>60%</p>
                  <p id=""wtp"" style=""text-align:center; margin-top: 0px; margin-bottom: 0px; font-size: 40px"";>&ensp;</p>","-","viewing","0","12","1C,7C,15C","","","","","","","","","","","","","","","","","","","",""
"","","","","","html-slider-response","46","932131","0.0-17.0-1.9","3c47eb2e-4d12-4c97-9e9d-433d49382f36","2367","
                  <p style=""text-align: center;"">₪36
                                                <br>60%</p>
                  <p id=""wtp"" style=""text-align:center; margin-top: 0px; margin-bottom: 0px; font-size: 40px"";>מוכנים לשלם: <span id=""c_p_y""></span></p>","50","evaluation","51","12","1C,7C,15C","60","36","50","","","","","","","","","","","","","","","","",""
"","","","","","html-keyboard-response","47","933318","0.0-17.0-2.9","3c47eb2e-4d12-4c97-9e9d-433d49382f36","null","<p style=""text-align: center;"">+</p>","null","fixation","","","","","","","","","","","","","","","","","","","","","","",""
"","","","","","html-slider-response","48","934335","0.0-17.0-0.10","3c47eb2e-4d12-4c97-9e9d-433d49382f36","1000","
                  <p style=""text-align: center;"">₪43
                                                <br>75%</p>
                  <p id=""wtp"" style=""text-align:center; margin-top: 0px; margin-bottom: 0px; font-size: 40px"";>&ensp;</p>","-","viewing","0","18","11B,19B,24A,26A","","","","","","","","","","","","","","","","","","","",""
"","","","","","html-slider-response","49","936867","0.0-17.0-1.10","3c47eb2e-4d12-4c97-9e9d-433d49382f36","2530","
                  <p style=""text-align: center;"">₪43
                                                <br>75%</p>
                  <p id=""wtp"" style=""text-align:center; margin-top: 0px; margin-bottom: 0px; font-size: 40px"";>מוכנים לשלם: <span id=""c_p_y""></span></p>","60","evaluation","21","18","11B,19B,24A,26A","75","43","60","","","","","","","","","","","","","","","","",""
"","","","","","html-keyboard-response","50","937880","0.0-17.0-2.10","3c47eb2e-4d12-4c97-9e9d-433d49382f36","null","<p style=""text-align: center;"">+</p>","null","fixation","","","","","","","","","","","","","","","","","","","","","","",""
"","","","","","html-slider-response","51","938897","0.0-17.0-0.11","3c47eb2e-4d12-4c97-9e9d-433d49382f36","1000","
                  <p style=""text-align: center;"">₪71
                                                <br>55%</p>
                  <p id=""wtp"" style=""text-align:center; margin-top: 0px; margin-bottom: 0px; font-size: 40px"";>&ensp;</p>","-","viewing","0","27","5B,18A","","","","","","","","","","","","","","","","","","","",""
"","","","","","html-slider-response","52","942067","0.0-17.0-1.11","3c47eb2e-4d12-4c97-9e9d-433d49382f36","3168","
                  <p style=""text-align: center;"">₪71
                                                <br>55%</p>
                  <p id=""wtp"" style=""text-align:center; margin-top: 0px; margin-bottom: 0px; font-size: 40px"";>מוכנים לשלם: <span id=""c_p_y""></span></p>","34","evaluation","37","27","5B,18A","55","71","34","","","","","","","","","","","","","","","","",""
"","","","","","html-keyboard-response","53","943270","0.0-17.0-2.11","3c47eb2e-4d12-4c97-9e9d-433d49382f36","null","<p style=""text-align: center;"">+</p>","null","fixation","","","","","","","","","","","","","","","","","","","","","","",""
"","","","","","html-slider-response","54","944272","0.0-17.0-0.12","3c47eb2e-4d12-4c97-9e9d-433d49382f36","1000","
                  <p style=""text-align: center;"">₪18
                                                <br>50%</p>
                  <p id=""wtp"" style=""text-align:center; margin-top: 0px; margin-bottom: 0px; font-size: 40px"";>&ensp;</p>","-","viewing","0","10","2C,16C,22B,28A","","","","","","","","","","","","","","","","","","","",""
"","","","","","html-slider-response","55","948162","0.0-17.0-1.12","3c47eb2e-4d12-4c97-9e9d-433d49382f36","3890","
                  <p style=""text-align: center;"">₪18
                                                <br>50%</p>
                  <p id=""wtp"" style=""text-align:center; margin-top: 0px; margin-bottom: 0px; font-size: 40px"";>מוכנים לשלם: <span id=""c_p_y""></span></p>","30","evaluation","10","10","2C,16C,22B,28A","50","18","30","","","","","","","","","","","","","","","","",""
"","","","","","html-keyboard-response","56","948992","0.0-17.0-2.12","3c47eb2e-4d12-4c97-9e9d-433d49382f36","null","<p style=""text-align: center;"">+</p>","null","fixation","","","","","","","","","","","","","","","","","","","","","","",""
"","","","","","html-slider-response","57","949999","0.0-17.0-0.13","3c47eb2e-4d12-4c97-9e9d-433d49382f36","1000","
                  <p style=""text-align: center;"">₪58
                                                <br>40%</p>
                  <p id=""wtp"" style=""text-align:center; margin-top: 0px; margin-bottom: 0px; font-size: 40px"";>&ensp;</p>","-","viewing","0","20","10C,13A,19C,21B","","","","","","","","","","","","","","","","","","","",""
"","","","","","html-slider-response","58","952403","0.0-17.0-1.13","3c47eb2e-4d12-4c97-9e9d-433d49382f36","2403","
                  <p style=""text-align: center;"">₪58
                                                <br>40%</p>
                  <p id=""wtp"" style=""text-align:center; margin-top: 0px; margin-bottom: 0px; font-size: 40px"";>מוכנים לשלם: <span id=""c_p_y""></span></p>","36","evaluation","32","20","10C,13A,19C,21B","40","58","36","","","","","","","","","","","","","","","","",""
"","","","","","html-keyboard-response","59","953040","0.0-17.0-2.13","3c47eb2e-4d12-4c97-9e9d-433d49382f36","null","<p style=""text-align: center;"">+</p>","null","fixation","","","","","","","","","","","","","","","","","","","","","","",""
"","","","","","html-slider-response","60","954043","0.0-17.0-0.14","3c47eb2e-4d12-4c97-9e9d-433d49382f36","1000","
                  <p style=""text-align: center;"">₪58
                                                <br>30%</p>
                  <p id=""wtp"" style=""text-align:center; margin-top: 0px; margin-bottom: 0px; font-size: 40px"";>&ensp;</p>","-","viewing","0","19","13C,30A","","","","","","","","","","","","","","","","","","","",""
"","","","","","html-slider-response","61","956963","0.0-17.0-1.14","3c47eb2e-4d12-4c97-9e9d-433d49382f36","2919","
                  <p style=""text-align: center;"">₪58
                                                <br>30%</p>
                  <p id=""wtp"" style=""text-align:center; margin-top: 0px; margin-bottom: 0px; font-size: 40px"";>מוכנים לשלם: <span id=""c_p_y""></span></p>","20","evaluation","52","19","13C,30A","30","58","20","","","","","","","","","","","","","","","","",""
"","","","","","html-keyboard-response","62","957566","0.0-17.0-2.14","3c47eb2e-4d12-4c97-9e9d-433d49382f36","null","<p style=""text-align: center;"">+</p>","null","fixation","","","","","","","","","","","","","","","","","","","","","","",""
"","","","","","html-slider-response","63","958570","0.0-17.0-0.15","3c47eb2e-4d12-4c97-9e9d-433d49382f36","1000","
                  <p style=""text-align: center;"">₪39
                                                <br>65%</p>
                  <p id=""wtp"" style=""text-align:center; margin-top: 0px; margin-bottom: 0px; font-size: 40px"";>&ensp;</p>","-","viewing","0","16","1A,15A,26C","","","","","","","","","","","","","","","","","","","",""
"","","","","","html-slider-response","64","961283","0.0-17.0-1.15","3c47eb2e-4d12-4c97-9e9d-433d49382f36","2711","
                  <p style=""text-align: center;"">₪39
                                                <br>65%</p>
                  <p id=""wtp"" style=""text-align:center; margin-top: 0px; margin-bottom: 0px; font-size: 40px"";>מוכנים לשלם: <span id=""c_p_y""></span></p>","30","evaluation","54","16","1A,15A,26C","65","39","30","","","","","","","","","","","","","","","","",""
"","","","","","html-keyboard-response","65","962419","0.0-17.0-2.15","3c47eb2e-4d12-4c97-9e9d-433d49382f36","null","<p style=""text-align: center;"">+</p>","null","fixation","","","","","","","","","","","","","","","","","","","","","","",""
"","","","","","html-slider-response","66","963422","0.0-17.0-0.16","3c47eb2e-4d12-4c97-9e9d-433d49382f36","1000","
                  <p style=""text-align: center;"">₪16
                                                <br>20%</p>
                  <p id=""wtp"" style=""text-align:center; margin-top: 0px; margin-bottom: 0px; font-size: 40px"";>&ensp;</p>","-","viewing","0","8","14C,17A,20C,27A","","","","","","","","","","","","","","","","","","","",""
"","","","","","html-slider-response","67","965684","0.0-17.0-1.16","3c47eb2e-4d12-4c97-9e9d-433d49382f36","2261","
                  <p style=""text-align: center;"">₪16
                                                <br>20%</p>
                  <p id=""wtp"" style=""text-align:center; margin-top: 0px; margin-bottom: 0px; font-size: 40px"";>מוכנים לשלם: <span id=""c_p_y""></span></p>","9","evaluation","64","8","14C,17A,20C,27A","20","16","10","","","","","","","","","","","","","","","","",""
"","","","","","html-keyboard-response","68","966352","0.0-17.0-2.16","3c47eb2e-4d12-4c97-9e9d-433d49382f36","null","<p style=""text-align: center;"">+</p>","null","fixation","","","","","","","","","","","","","","","","","","","","","","",""
"","","","","","html-slider-response","69","967353","0.0-17.0-0.17","3c47eb2e-4d12-4c97-9e9d-433d49382f36","1000","
                  <p style=""text-align: center;"">₪11
                                                <br>75%</p>
                  <p id=""wtp"" style=""text-align:center; margin-top: 0px; margin-bottom: 0px; font-size: 40px"";>&ensp;</p>","-","viewing","0","7","6B,18B,22C,24C,29A","","","","","","","","","","","","","","","","","","","",""
"","","","","","html-slider-response","70","969940","0.0-17.0-1.17","3c47eb2e-4d12-4c97-9e9d-433d49382f36","2586","
                  <p style=""text-align: center;"">₪11
                                                <br>75%</p>
                  <p id=""wtp"" style=""text-align:center; margin-top: 0px; margin-bottom: 0px; font-size: 40px"";>מוכנים לשלם: <span id=""c_p_y""></span></p>","50","evaluation","58","7","6B,18B,22C,24C,29A","75","11","50","","","","","","","","","","","","","","","","",""
"","","","","","html-keyboard-response","71","971286","0.0-17.0-2.17","3c47eb2e-4d12-4c97-9e9d-433d49382f36","null","<p style=""text-align: center;"">+</p>","null","fixation","","","","","","","","","","","","","","","","","","","","","","",""
"","","","","","html-slider-response","72","972289","0.0-17.0-0.18","3c47eb2e-4d12-4c97-9e9d-433d49382f36","1000","
                  <p style=""text-align: center;"">₪71
                                                <br>45%</p>
                  <p id=""wtp"" style=""text-align:center; margin-top: 0px; margin-bottom: 0px; font-size: 40px"";>&ensp;</p>","-","viewing","0","26","2B,16A","","","","","","","","","","","","","","","","","","","",""
"","","","","","html-slider-response","73","974748","0.0-17.0-1.18","3c47eb2e-4d12-4c97-9e9d-433d49382f36","2458","
                  <p style=""text-align: center;"">₪71
                                                <br>45%</p>
                  <p id=""wtp"" style=""text-align:center; margin-top: 0px; margin-bottom: 0px; font-size: 40px"";>מוכנים לשלם: <span id=""c_p_y""></span></p>","24","evaluation","46","26","2B,16A","45","71","25","","","","","","","","","","","","","","","","",""
"","","","","","html-keyboard-response","74","975502","0.0-17.0-2.18","3c47eb2e-4d12-4c97-9e9d-433d49382f36","null","<p style=""text-align: center;"">+</p>","null","fixation","","","","","","","","","","","","","","","","","","","","","","",""
"","","","","","html-slider-response","75","976519","0.0-17.0-0.19","3c47eb2e-4d12-4c97-9e9d-433d49382f36","1000","
                  <p style=""text-align: center;"">₪76
                                                <br>65%</p>
                  <p id=""wtp"" style=""text-align:center; margin-top: 0px; margin-bottom: 0px; font-size: 40px"";>&ensp;</p>","-","viewing","0","29","8C,19A,24B","","","","","","","","","","","","","","","","","","","",""
"","","","","","html-slider-response","76","978916","0.0-17.0-1.19","3c47eb2e-4d12-4c97-9e9d-433d49382f36","2396","
                  <p style=""text-align: center;"">₪76
                                                <br>65%</p>
                  <p id=""wtp"" style=""text-align:center; margin-top: 0px; margin-bottom: 0px; font-size: 40px"";>מוכנים לשלם: <span id=""c_p_y""></span></p>","45","evaluation","57","29","8C,19A,24B","65","76","45","","","","","","","","","","","","","","","","",""
"","","","","","html-keyboard-response","77","980302","0.0-17.0-2.19","3c47eb2e-4d12-4c97-9e9d-433d49382f36","null","<p style=""text-align: center;"">+</p>","null","fixation","","","","","","","","","","","","","","","","","","","","","","",""
"","","","","","html-slider-response","78","981307","0.0-17.0-0.20","3c47eb2e-4d12-4c97-9e9d-433d49382f36","1000","
                  <p style=""text-align: center;"">₪4
                                                <br>25%</p>
                  <p id=""wtp"" style=""text-align:center; margin-top: 0px; margin-bottom: 0px; font-size: 40px"";>&ensp;</p>","-","viewing","0","1","6C,29B,30C","","","","","","","","","","","","","","","","","","","",""
"","","","","","html-slider-response","79","984268","0.0-17.0-1.20","3c47eb2e-4d12-4c97-9e9d-433d49382f36","2960","
                  <p style=""text-align: center;"">₪4
                                                <br>25%</p>
                  <p id=""wtp"" style=""text-align:center; margin-top: 0px; margin-bottom: 0px; font-size: 40px"";>מוכנים לשלם: <span id=""c_p_y""></span></p>","4","evaluation","76","1","6C,29B,30C","25","4","5","","","","","","","","","","","","","","","","",""
"","","","","","html-keyboard-response","80","984872","0.0-17.0-2.20","3c47eb2e-4d12-4c97-9e9d-433d49382f36","null","<p style=""text-align: center;"">+</p>","null","fixation","","","","","","","","","","","","","","","","","","","","","","",""
"","","","","","html-slider-response","81","985879","0.0-17.0-0.21","3c47eb2e-4d12-4c97-9e9d-433d49382f36","1000","
                  <p style=""text-align: center;"">₪11
                                                <br>45%</p>
                  <p id=""wtp"" style=""text-align:center; margin-top: 0px; margin-bottom: 0px; font-size: 40px"";>&ensp;</p>","-","viewing","0","6","14B,21C,25C","","","","","","","","","","","","","","","","","","","",""
"","","","","","html-slider-response","82","989524","0.0-17.0-1.21","3c47eb2e-4d12-4c97-9e9d-433d49382f36","3644","
                  <p style=""text-align: center;"">₪11
                                                <br>45%</p>
                  <p id=""wtp"" style=""text-align:center; margin-top: 0px; margin-bottom: 0px; font-size: 40px"";>מוכנים לשלם: <span id=""c_p_y""></span></p>","23","evaluation","55","6","14B,21C,25C","45","11","23","","","","","","","","","","","","","","","","",""
"","","","","","html-keyboard-response","83","991027","0.0-17.0-2.21","3c47eb2e-4d12-4c97-9e9d-433d49382f36","null","<p style=""text-align: center;"">+</p>","null","fixation","","","","","","","","","","","","","","","","","","","","","","",""
"","","","","","html-slider-response","84","992035","0.0-17.0-0.22","3c47eb2e-4d12-4c97-9e9d-433d49382f36","1000","
                  <p style=""text-align: center;"">₪36
                                                <br>30%</p>
                  <p id=""wtp"" style=""text-align:center; margin-top: 0px; margin-bottom: 0px; font-size: 40px"";>&ensp;</p>","-","viewing","0","11","3C,20A,22A","","","","","","","","","","","","","","","","","","","",""
"","","","","","html-slider-response","85","993308","0.0-17.0-1.22","3c47eb2e-4d12-4c97-9e9d-433d49382f36","1272","
                  <p style=""text-align: center;"">₪36
                                                <br>30%</p>
                  <p id=""wtp"" style=""text-align:center; margin-top: 0px; margin-bottom: 0px; font-size: 40px"";>מוכנים לשלם: <span id=""c_p_y""></span></p>","25","evaluation","10","11","3C,20A,22A","30","36","25","","","","","","","","","","","","","","","","",""
"","","","","","html-keyboard-response","86","994619","0.0-17.0-2.22","3c47eb2e-4d12-4c97-9e9d-433d49382f36","null","<p style=""text-align: center;"">+</p>","null","fixation","","","","","","","","","","","","","","","","","","","","","","",""
"","","","","","html-slider-response","87","995622","0.0-17.0-0.23","3c47eb2e-4d12-4c97-9e9d-433d49382f36","1000","
                  <p style=""text-align: center;"">₪18
                                                <br>25%</p>
                  <p id=""wtp"" style=""text-align:center; margin-top: 0px; margin-bottom: 0px; font-size: 40px"";>&ensp;</p>","-","viewing","0","9","14A,23A","","","","","","","","","","","","","","","","","","","",""
"","","","","","html-slider-response","88","998620","0.0-17.0-1.23","3c47eb2e-4d12-4c97-9e9d-433d49382f36","2997","
                  <p style=""text-align: center;"">₪18
                                                <br>25%</p>
                  <p id=""wtp"" style=""text-align:center; margin-top: 0px; margin-bottom: 0px; font-size: 40px"";>מוכנים לשלם: <span id=""c_p_y""></span></p>","18","evaluation","45","9","14A,23A","25","18","18","","","","","","","","","","","","","","","","",""
"","","","","","html-keyboard-response","89","999609","0.0-17.0-2.23","3c47eb2e-4d12-4c97-9e9d-433d49382f36","null","<p style=""text-align: center;"">+</p>","null","fixation","","","","","","","","","","","","","","","","","","","","","","",""
"","","","","","html-slider-response","90","1000613","0.0-17.0-0.24","3c47eb2e-4d12-4c97-9e9d-433d49382f36","1000","
                  <p style=""text-align: center;"">₪39
                                                <br>60%</p>
                  <p id=""wtp"" style=""text-align:center; margin-top: 0px; margin-bottom: 0px; font-size: 40px"";>&ensp;</p>","-","viewing","0","15","9C,25B","","","","","","","","","","","","","","","","","","","",""
"","","","","","html-slider-response","91","1002196","0.0-17.0-1.24","3c47eb2e-4d12-4c97-9e9d-433d49382f36","1582","
                  <p style=""text-align: center;"">₪39
                                                <br>60%</p>
                  <p id=""wtp"" style=""text-align:center; margin-top: 0px; margin-bottom: 0px; font-size: 40px"";>מוכנים לשלם: <span id=""c_p_y""></span></p>","40","evaluation","65","15","9C,25B","60","39","40","","","","","","","","","","","","","","","","",""
"","","","","","html-keyboard-response","92","1003375","0.0-17.0-2.24","3c47eb2e-4d12-4c97-9e9d-433d49382f36","null","<p style=""text-align: center;"">+</p>","null","fixation","","","","","","","","","","","","","","","","","","","","","","",""
"","","","","","html-slider-response","93","1004377","0.0-17.0-0.25","3c47eb2e-4d12-4c97-9e9d-433d49382f36","1000","
                  <p style=""text-align: center;"">₪4
                                                <br>75%</p>
                  <p id=""wtp"" style=""text-align:center; margin-top: 0px; margin-bottom: 0px; font-size: 40px"";>&ensp;</p>","-","viewing","0","3","12B,20B,23B,27C,29C","","","","","","","","","","","","","","","","","","","",""
"","","","","","html-slider-response","94","1006716","0.0-17.0-1.25","3c47eb2e-4d12-4c97-9e9d-433d49382f36","2338","
                  <p style=""text-align: center;"">₪4
                                                <br>75%</p>
                  <p id=""wtp"" style=""text-align:center; margin-top: 0px; margin-bottom: 0px; font-size: 40px"";>מוכנים לשלם: <span id=""c_p_y""></span></p>","20","evaluation","28","3","12B,20B,23B,27C,29C","75","4","20","","","","","","","","","","","","","","","","",""
"","","","","","html-keyboard-response","95","1008124","0.0-17.0-2.25","3c47eb2e-4d12-4c97-9e9d-433d49382f36","null","<p style=""text-align: center;"">+</p>","null","fixation","","","","","","","","","","","","","","","","","","","","","","",""
"","","","","","html-slider-response","96","1009134","0.0-17.0-0.26","3c47eb2e-4d12-4c97-9e9d-433d49382f36","1000","
                  <p style=""text-align: center;"">₪64
                                                <br>25%</p>
                  <p id=""wtp"" style=""text-align:center; margin-top: 0px; margin-bottom: 0px; font-size: 40px"";>&ensp;</p>","-","viewing","0","24","6A,21A","","","","","","","","","","","","","","","","","","","",""
"","","","","","html-slider-response","97","1011812","0.0-17.0-1.26","3c47eb2e-4d12-4c97-9e9d-433d49382f36","2676","
                  <p style=""text-align: center;"">₪64
                                                <br>25%</p>
                  <p id=""wtp"" style=""text-align:center; margin-top: 0px; margin-bottom: 0px; font-size: 40px"";>מוכנים לשלם: <span id=""c_p_y""></span></p>","25","evaluation","51","24","6A,21A","25","64","26","","","","","","","","","","","","","","","","",""
"","","","","","html-keyboard-response","98","1012478","0.0-17.0-2.26","3c47eb2e-4d12-4c97-9e9d-433d49382f36","null","<p style=""text-align: center;"">+</p>","null","fixation","","","","","","","","","","","","","","","","","","","","","","",""
"","","","","","html-slider-response","99","1013480","0.0-17.0-0.27","3c47eb2e-4d12-4c97-9e9d-433d49382f36","1000","
                  <p style=""text-align: center;"">₪4
                                                <br>50%</p>
                  <p id=""wtp"" style=""text-align:center; margin-top: 0px; margin-bottom: 0px; font-size: 40px"";>&ensp;</p>","-","viewing","0","2","4C,17B","","","","","","","","","","","","","","","","","","","",""
"","","","","","html-slider-response","100","1014876","0.0-17.0-1.27","3c47eb2e-4d12-4c97-9e9d-433d49382f36","1395","
                  <p style=""text-align: center;"">₪4
                                                <br>50%</p>
                  <p id=""wtp"" style=""text-align:center; margin-top: 0px; margin-bottom: 0px; font-size: 40px"";>מוכנים לשלם: <span id=""c_p_y""></span></p>","15","evaluation","34","2","4C,17B","50","4","15","","","","","","","","","","","","","","","","",""
"","","","","","html-keyboard-response","101","1015408","0.0-17.0-2.27","3c47eb2e-4d12-4c97-9e9d-433d49382f36","null","<p style=""text-align: center;"">+</p>","null","fixation","","","","","","","","","","","","","","","","","","","","","","",""
"","","","","","html-slider-response","102","1016410","0.0-17.0-0.28","3c47eb2e-4d12-4c97-9e9d-433d49382f36","1000","
                  <p style=""text-align: center;"">₪79
                                                <br>65%</p>
                  <p id=""wtp"" style=""text-align:center; margin-top: 0px; margin-bottom: 0px; font-size: 40px"";>&ensp;</p>","-","viewing","0","31","8A","","","","","","","","","","","","","","","","","","","",""
"","","","","","html-slider-response","103","1019236","0.0-17.0-1.28","3c47eb2e-4d12-4c97-9e9d-433d49382f36","2825","
                  <p style=""text-align: center;"">₪79
                                                <br>65%</p>
                  <p id=""wtp"" style=""text-align:center; margin-top: 0px; margin-bottom: 0px; font-size: 40px"";>מוכנים לשלם: <span id=""c_p_y""></span></p>","53","evaluation","63","31","8A","65","79","52","","","","","","","","","","","","","","","","",""
"","","","","","html-keyboard-response","104","1020058","0.0-17.0-2.28","3c47eb2e-4d12-4c97-9e9d-433d49382f36","null","<p style=""text-align: center;"">+</p>","null","fixation","","","","","","","","","","","","","","","","","","","","","","",""
"","","","","","html-slider-response","105","1021063","0.0-17.0-0.29","3c47eb2e-4d12-4c97-9e9d-433d49382f36","1000","
                  <p style=""text-align: center;"">₪64
                                                <br>50%</p>
                  <p id=""wtp"" style=""text-align:center; margin-top: 0px; margin-bottom: 0px; font-size: 40px"";>&ensp;</p>","-","viewing","0","25","1B,3B,4A","","","","","","","","","","","","","","","","","","","",""
"","","","","","html-slider-response","106","1023868","0.0-17.0-1.29","3c47eb2e-4d12-4c97-9e9d-433d49382f36","2812","
                  <p style=""text-align: center;"">₪64
                                                <br>50%</p>
                  <p id=""wtp"" style=""text-align:center; margin-top: 0px; margin-bottom: 0px; font-size: 40px"";>מוכנים לשלם: <span id=""c_p_y""></span></p>","35","evaluation","60","25","1B,3B,4A","50","64","35","","","","","","","","","","","","","","","","",""
"","","","","","html-keyboard-response","107","1025232","0.0-17.0-2.29","3c47eb2e-4d12-4c97-9e9d-433d49382f36","null","<p style=""text-align: center;"">+</p>","null","fixation","","","","","","","","","","","","","","","","","","","","","","",""
"","","","","","html-slider-response","108","1026236","0.0-17.0-0.30","3c47eb2e-4d12-4c97-9e9d-433d49382f36","1000","
                  <p style=""text-align: center;"">₪36
                                                <br>75%</p>
                  <p id=""wtp"" style=""text-align:center; margin-top: 0px; margin-bottom: 0px; font-size: 40px"";>&ensp;</p>","-","viewing","0","14","4B,5A,13B,16B","","","","","","","","","","","","","","","","","","","",""
"","","","","","html-slider-response","109","1027316","0.0-17.0-1.30","3c47eb2e-4d12-4c97-9e9d-433d49382f36","1080","
                  <p style=""text-align: center;"">₪36
                                                <br>75%</p>
                  <p id=""wtp"" style=""text-align:center; margin-top: 0px; margin-bottom: 0px; font-size: 40px"";>מוכנים לשלם: <span id=""c_p_y""></span></p>","43","evaluation","62","14","4B,5A,13B,16B","75","36","43","","","","","","","","","","","","","","","","",""
"","","","","","html-keyboard-response","110","1028709","0.0-17.0-2.30","3c47eb2e-4d12-4c97-9e9d-433d49382f36","null","<p style=""text-align: center;"">+</p>","null","fixation","","","","","","","","","","","","","","","","","","","","","","",""
"","","","","","html-keyboard-response","111","1029726","0.0-18.0","3c47eb2e-4d12-4c97-9e9d-433d49382f36","null","<p style=""text-align: center;"">+</p>","null","fixation","","","","","","","","","","","","","","","","","","","","","","",""
"","","","","","html-keyboard-response","112","1031204","0.0-19.0","3c47eb2e-4d12-4c97-9e9d-433d49382f36","null","<p>הפסקה.
          <br>לחצו כדי להמשיך.</p>","1","scan_wait","","","","","","","","","","","","","","","","","","","","","","",""
"","","","","","html-keyboard-response","113","1032205","0.0-20.0","3c47eb2e-4d12-4c97-9e9d-433d49382f36","null","<p style=""text-align: center;"">+</p>","null","fixation","","","","","","","","","","","","","","","","","","","","","","",""
"","","","","","html-slider-response","114","1033208","0.0-21.0-0.0","3c47eb2e-4d12-4c97-9e9d-433d49382f36","1000","
                  <p style=""text-align: center;"">₪64
                                                <br>25%</p>
                  <p id=""wtp"" style=""text-align:center; margin-top: 0px; margin-bottom: 0px; font-size: 40px"";>&ensp;</p>","-","viewing","0","24","6A,21A","","","","","","","","","","","","","","","","","","","",""
"","","","","","html-slider-response","115","1036093","0.0-21.0-1.0","3c47eb2e-4d12-4c97-9e9d-433d49382f36","2883","
                  <p style=""text-align: center;"">₪64
                                                <br>25%</p>
                  <p id=""wtp"" style=""text-align:center; margin-top: 0px; margin-bottom: 0px; font-size: 40px"";>מוכנים לשלם: <span id=""c_p_y""></span></p>","30","evaluation","23","24","6A,21A","25","64","30","","","","","","","","","","","","","","","","",""
"","","","","","html-keyboard-response","116","1037575","0.0-21.0-2.0","3c47eb2e-4d12-4c97-9e9d-433d49382f36","null","<p style=""text-align: center;"">+</p>","null","fixation","","","","","","","","","","","","","","","","","","","","","","",""
"","","","","","html-slider-response","117","1038578","0.0-21.0-0.1","3c47eb2e-4d12-4c97-9e9d-433d49382f36","1000","
                  <p style=""text-align: center;"">₪76
                                                <br>65%</p>
                  <p id=""wtp"" style=""text-align:center; margin-top: 0px; margin-bottom: 0px; font-size: 40px"";>&ensp;</p>","-","viewing","0","29","8C,19A,24B","","","","","","","","","","","","","","","","","","","",""
"","","","","","html-slider-response","118","1040996","0.0-21.0-1.1","3c47eb2e-4d12-4c97-9e9d-433d49382f36","2417","
                  <p style=""text-align: center;"">₪76
                                                <br>65%</p>
                  <p id=""wtp"" style=""text-align:center; margin-top: 0px; margin-bottom: 0px; font-size: 40px"";>מוכנים לשלם: <span id=""c_p_y""></span></p>","56","evaluation","33","29","8C,19A,24B","65","76","56","","","","","","","","","","","","","","","","",""
"","","","","","html-keyboard-response","119","1042198","0.0-21.0-2.1","3c47eb2e-4d12-4c97-9e9d-433d49382f36","null","<p style=""text-align: center;"">+</p>","null","fixation","","","","","","","","","","","","","","","","","","","","","","",""
"","","","","","html-slider-response","120","1043205","0.0-21.0-0.2","3c47eb2e-4d12-4c97-9e9d-433d49382f36","1000","
                  <p style=""text-align: center;"">₪18
                                                <br>50%</p>
                  <p id=""wtp"" style=""text-align:center; margin-top: 0px; margin-bottom: 0px; font-size: 40px"";>&ensp;</p>","-","viewing","0","10","2C,16C,22B,28A","","","","","","","","","","","","","","","","","","","",""
"","","","","","html-slider-response","121","1044612","0.0-21.0-1.2","3c47eb2e-4d12-4c97-9e9d-433d49382f36","1406","
                  <p style=""text-align: center;"">₪18
                                                <br>50%</p>
                  <p id=""wtp"" style=""text-align:center; margin-top: 0px; margin-bottom: 0px; font-size: 40px"";>מוכנים לשלם: <span id=""c_p_y""></span></p>","30","evaluation","75","10","2C,16C,22B,28A","50","18","30","","","","","","","","","","","","","","","","",""
"","","","","","html-keyboard-response","122","1045365","0.0-21.0-2.2","3c47eb2e-4d12-4c97-9e9d-433d49382f36","null","<p style=""text-align: center;"">+</p>","null","fixation","","","","","","","","","","","","","","","","","","","","","","",""
"","","","","","html-slider-response","123","1046369","0.0-21.0-0.3","3c47eb2e-4d12-4c97-9e9d-433d49382f36","1000","
                  <p style=""text-align: center;"">₪79
                                                <br>40%</p>
                  <p id=""wtp"" style=""text-align:center; margin-top: 0px; margin-bottom: 0px; font-size: 40px"";>&ensp;</p>","-","viewing","0","30","9B","","","","","","","","","","","","","","","","","","","",""
"","","","","","html-slider-response","124","1049324","0.0-21.0-1.3","3c47eb2e-4d12-4c97-9e9d-433d49382f36","2955","
                  <p style=""text-align: center;"">₪79
                                                <br>40%</p>
                  <p id=""wtp"" style=""text-align:center; margin-top: 0px; margin-bottom: 0px; font-size: 40px"";>מוכנים לשלם: <span id=""c_p_y""></span></p>","35","evaluation","49","30","9B","40","79","35","","","","","","","","","","","","","","","","",""
"","","","","","html-keyboard-response","125","1050742","0.0-21.0-2.3","3c47eb2e-4d12-4c97-9e9d-433d49382f36","null","<p style=""text-align: center;"">+</p>","null","fixation","","","","","","","","","","","","","","","","","","","","","","",""
"","","","","","html-slider-response","126","1051754","0.0-21.0-0.4","3c47eb2e-4d12-4c97-9e9d-433d49382f36","1000","
                  <p style=""text-align: center;"">₪11
                                                <br>45%</p>
                  <p id=""wtp"" style=""text-align:center; margin-top: 0px; margin-bottom: 0px; font-size: 40px"";>&ensp;</p>","-","viewing","0","6","14B,21C,25C","","","","","","","","","","","","","","","","","","","",""
"","","","","","html-slider-response","127","1053420","0.0-21.0-1.4","3c47eb2e-4d12-4c97-9e9d-433d49382f36","1665","
                  <p style=""text-align: center;"">₪11
                                                <br>45%</p>
                  <p id=""wtp"" style=""text-align:center; margin-top: 0px; margin-bottom: 0px; font-size: 40px"";>מוכנים לשלם: <span id=""c_p_y""></span></p>","20","evaluation","11","6","14B,21C,25C","45","11","20","","","","","","","","","","","","","","","","",""
"","","","","","html-keyboard-response","128","1054282","0.0-21.0-2.4","3c47eb2e-4d12-4c97-9e9d-433d49382f36","null","<p style=""text-align: center;"">+</p>","null","fixation","","","","","","","","","","","","","","","","","","","","","","",""
"","","","","","html-slider-response","129","1055289","0.0-21.0-0.5","3c47eb2e-4d12-4c97-9e9d-433d49382f36","1000","
                  <p style=""text-align: center;"">₪16
                                                <br>20%</p>
                  <p id=""wtp"" style=""text-align:center; margin-top: 0px; margin-bottom: 0px; font-size: 40px"";>&ensp;</p>","-","viewing","0","8","14C,17A,20C,27A","","","","","","","","","","","","","","","","","","","",""
"","","","","","html-slider-response","130","1057324","0.0-21.0-1.5","3c47eb2e-4d12-4c97-9e9d-433d49382f36","2034","
                  <p style=""text-align: center;"">₪16
                                                <br>20%</p>
                  <p id=""wtp"" style=""text-align:center; margin-top: 0px; margin-bottom: 0px; font-size: 40px"";>מוכנים לשלם: <span id=""c_p_y""></span></p>","13","evaluation","73","8","14C,17A,20C,27A","20","16","13","","","","","","","","","","","","","","","","",""
"","","","","","html-keyboard-response","131","1058156","0.0-21.0-2.5","3c47eb2e-4d12-4c97-9e9d-433d49382f36","null","<p style=""text-align: center;"">+</p>","null","fixation","","","","","","","","","","","","","","","","","","","","","","",""
"","","","","","html-slider-response","132","1059161","0.0-21.0-0.6","3c47eb2e-4d12-4c97-9e9d-433d49382f36","1000","
                  <p style=""text-align: center;"">₪39
                                                <br>60%</p>
                  <p id=""wtp"" style=""text-align:center; margin-top: 0px; margin-bottom: 0px; font-size: 40px"";>&ensp;</p>","-","viewing","0","15","9C,25B","","","","","","","","","","","","","","","","","","","",""
"","","","","","html-slider-response","133","1061588","0.0-21.0-1.6","3c47eb2e-4d12-4c97-9e9d-433d49382f36","2426","
                  <p style=""text-align: center;"">₪39
                                                <br>60%</p>
                  <p id=""wtp"" style=""text-align:center; margin-top: 0px; margin-bottom: 0px; font-size: 40px"";>מוכנים לשלם: <span id=""c_p_y""></span></p>","48","evaluation","64","15","9C,25B","60","39","48","","","","","","","","","","","","","","","","",""
"","","","","","html-keyboard-response","134","1062206","0.0-21.0-2.6","3c47eb2e-4d12-4c97-9e9d-433d49382f36","null","<p style=""text-align: center;"">+</p>","null","fixation","","","","","","","","","","","","","","","","","","","","","","",""
"","","","","","html-slider-response","135","1063209","0.0-21.0-0.7","3c47eb2e-4d12-4c97-9e9d-433d49382f36","1000","
                  <p style=""text-align: center;"">₪18
                                                <br>25%</p>
                  <p id=""wtp"" style=""text-align:center; margin-top: 0px; margin-bottom: 0px; font-size: 40px"";>&ensp;</p>","-","viewing","0","9","14A,23A","","","","","","","","","","","","","","","","","","","",""
"","","","","","html-slider-response","136","1066580","0.0-21.0-1.7","3c47eb2e-4d12-4c97-9e9d-433d49382f36","3371","
                  <p style=""text-align: center;"">₪18
                                                <br>25%</p>
                  <p id=""wtp"" style=""text-align:center; margin-top: 0px; margin-bottom: 0px; font-size: 40px"";>מוכנים לשלם: <span id=""c_p_y""></span></p>","20","evaluation","27","9","14A,23A","25","18","20","","","","","","","","","","","","","","","","",""
"","","","","","html-keyboard-response","137","1067617","0.0-21.0-2.7","3c47eb2e-4d12-4c97-9e9d-433d49382f36","null","<p style=""text-align: center;"">+</p>","null","fixation","","","","","","","","","","","","","","","","","","","","","","",""
"","","","","","html-slider-response","138","1068621","0.0-21.0-0.8","3c47eb2e-4d12-4c97-9e9d-433d49382f36","1000","
                  <p style=""text-align: center;"">₪4
                                                <br>75%</p>
                  <p id=""wtp"" style=""text-align:center; margin-top: 0px; margin-bottom: 0px; font-size: 40px"";>&ensp;</p>","-","viewing","0","3","12B,20B,23B,27C,29C","","","","","","","","","","","","","","","","","","","",""
"","","","","","html-slider-response","139","1070364","0.0-21.0-1.8","3c47eb2e-4d12-4c97-9e9d-433d49382f36","1742","
                  <p style=""text-align: center;"">₪4
                                                <br>75%</p>
                  <p id=""wtp"" style=""text-align:center; margin-top: 0px; margin-bottom: 0px; font-size: 40px"";>מוכנים לשלם: <span id=""c_p_y""></span></p>","20","evaluation","17","3","12B,20B,23B,27C,29C","75","4","20","","","","","","","","","","","","","","","","",""
"","","","","","html-keyboard-response","140","1071420","0.0-21.0-2.8","3c47eb2e-4d12-4c97-9e9d-433d49382f36","null","<p style=""text-align: center;"">+</p>","null","fixation","","","","","","","","","","","","","","","","","","","","","","",""
"","","","","","html-slider-response","141","1072424","0.0-21.0-0.9","3c47eb2e-4d12-4c97-9e9d-433d49382f36","1000","
                  <p style=""text-align: center;"">₪39
                                                <br>65%</p>
                  <p id=""wtp"" style=""text-align:center; margin-top: 0px; margin-bottom: 0px; font-size: 40px"";>&ensp;</p>","-","viewing","0","16","1A,15A,26C","","","","","","","","","","","","","","","","","","","",""
"","","","","","html-slider-response","142","1073653","0.0-21.0-1.9","3c47eb2e-4d12-4c97-9e9d-433d49382f36","1228","
                  <p style=""text-align: center;"">₪39
                                                <br>65%</p>
                  <p id=""wtp"" style=""text-align:center; margin-top: 0px; margin-bottom: 0px; font-size: 40px"";>מוכנים לשלם: <span id=""c_p_y""></span></p>","40","evaluation","29","16","1A,15A,26C","65","39","40","","","","","","","","","","","","","","","","",""
"","","","","","html-keyboard-response","143","1074947","0.0-21.0-2.9","3c47eb2e-4d12-4c97-9e9d-433d49382f36","null","<p style=""text-align: center;"">+</p>","null","fixation","","","","","","","","","","","","","","","","","","","","","","",""
"","","","","","html-slider-response","144","1075951","0.0-21.0-0.10","3c47eb2e-4d12-4c97-9e9d-433d49382f36","1000","
                  <p style=""text-align: center;"">₪36
                                                <br>70%</p>
                  <p id=""wtp"" style=""text-align:center; margin-top: 0px; margin-bottom: 0px; font-size: 40px"";>&ensp;</p>","-","viewing","0","13","3A,5C,10B","","","","","","","","","","","","","","","","","","","",""
"","","","","","html-slider-response","145","1078556","0.0-21.0-1.10","3c47eb2e-4d12-4c97-9e9d-433d49382f36","2604","
                  <p style=""text-align: center;"">₪36
                                                <br>70%</p>
                  <p id=""wtp"" style=""text-align:center; margin-top: 0px; margin-bottom: 0px; font-size: 40px"";>מוכנים לשלם: <span id=""c_p_y""></span></p>","50","evaluation","47","13","3A,5C,10B","70","36","50","","","","","","","","","","","","","","","","",""
"","","","","","html-keyboard-response","146","1079739","0.0-21.0-2.10","3c47eb2e-4d12-4c97-9e9d-433d49382f36","null","<p style=""text-align: center;"">+</p>","null","fixation","","","","","","","","","","","","","","","","","","","","","","",""
"","","","","","html-slider-response","147","1080748","0.0-21.0-0.11","3c47eb2e-4d12-4c97-9e9d-433d49382f36","1000","
                  <p style=""text-align: center;"">₪36
                                                <br>75%</p>
                  <p id=""wtp"" style=""text-align:center; margin-top: 0px; margin-bottom: 0px; font-size: 40px"";>&ensp;</p>","-","viewing","0","14","4B,5A,13B,16B","","","","","","","","","","","","","","","","","","","",""
"","","","","","html-slider-response","148","1083478","0.0-21.0-1.11","3c47eb2e-4d12-4c97-9e9d-433d49382f36","2735","
                  <p style=""text-align: center;"">₪36
                                                <br>75%</p>
                  <p id=""wtp"" style=""text-align:center; margin-top: 0px; margin-bottom: 0px; font-size: 40px"";>מוכנים לשלם: <span id=""c_p_y""></span></p>","53","evaluation","44","14","4B,5A,13B,16B","75","36","53","","","","","","","","","","","","","","","","",""
"","","","","","html-keyboard-response","149","1084129","0.0-21.0-2.11","3c47eb2e-4d12-4c97-9e9d-433d49382f36","null","<p style=""text-align: center;"">+</p>","null","fixation","","","","","","","","","","","","","","","","","","","","","","",""
"","","","","","html-slider-response","150","1085135","0.0-21.0-0.12","3c47eb2e-4d12-4c97-9e9d-433d49382f36","1000","
                  <p style=""text-align: center;"">₪11
                                                <br>75%</p>
                  <p id=""wtp"" style=""text-align:center; margin-top: 0px; margin-bottom: 0px; font-size: 40px"";>&ensp;</p>","-","viewing","0","7","6B,18B,22C,24C,29A","","","","","","","","","","","","","","","","","","","",""
"","","","","","html-slider-response","151","1087630","0.0-21.0-1.12","3c47eb2e-4d12-4c97-9e9d-433d49382f36","2495","
                  <p style=""text-align: center;"">₪11
                                                <br>75%</p>
                  <p id=""wtp"" style=""text-align:center; margin-top: 0px; margin-bottom: 0px; font-size: 40px"";>מוכנים לשלם: <span id=""c_p_y""></span></p>","35","evaluation","20","7","6B,18B,22C,24C,29A","75","11","35","","","","","","","","","","","","","","","","",""
"","","","","","html-keyboard-response","152","1088339","0.0-21.0-2.12","3c47eb2e-4d12-4c97-9e9d-433d49382f36","null","<p style=""text-align: center;"">+</p>","null","fixation","","","","","","","","","","","","","","","","","","","","","","",""
"","","","","","html-slider-response","153","1089352","0.0-21.0-0.13","3c47eb2e-4d12-4c97-9e9d-433d49382f36","1000","
                  <p style=""text-align: center;"">₪4
                                                <br>25%</p>
                  <p id=""wtp"" style=""text-align:center; margin-top: 0px; margin-bottom: 0px; font-size: 40px"";>&ensp;</p>","-","viewing","0","1","6C,29B,30C","","","","","","","","","","","","","","","","","","","",""
"","","","","","html-slider-response","154","1090358","0.0-21.0-1.13","3c47eb2e-4d12-4c97-9e9d-433d49382f36","1005","
                  <p style=""text-align: center;"">₪4
                                                <br>25%</p>
                  <p id=""wtp"" style=""text-align:center; margin-top: 0px; margin-bottom: 0px; font-size: 40px"";>מוכנים לשלם: <span id=""c_p_y""></span></p>","20","evaluation","46","1","6C,29B,30C","25","4","20","","","","","","","","","","","","","","","","",""
"","","","","","html-keyboard-response","155","1090980","0.0-21.0-2.13","3c47eb2e-4d12-4c97-9e9d-433d49382f36","null","<p style=""text-align: center;"">+</p>","null","fixation","","","","","","","","","","","","","","","","","","","","","","",""
"","","","","","html-slider-response","156","1091990","0.0-21.0-0.14","3c47eb2e-4d12-4c97-9e9d-433d49382f36","1000","
                  <p style=""text-align: center;"">₪71
                                                <br>45%</p>
                  <p id=""wtp"" style=""text-align:center; margin-top: 0px; margin-bottom: 0px; font-size: 40px"";>&ensp;</p>","-","viewing","0","26","2B,16A","","","","","","","","","","","","","","","","","","","",""
"","","","","","html-slider-response","157","1093710","0.0-21.0-1.14","3c47eb2e-4d12-4c97-9e9d-433d49382f36","1719","
                  <p style=""text-align: center;"">₪71
                                                <br>45%</p>
                  <p id=""wtp"" style=""text-align:center; margin-top: 0px; margin-bottom: 0px; font-size: 40px"";>מוכנים לשלם: <span id=""c_p_y""></span></p>","21","evaluation","28","26","2B,16A","45","71","21","","","","","","","","","","","","","","","","",""
"","","","","","html-keyboard-response","158","1094309","0.0-21.0-2.14","3c47eb2e-4d12-4c97-9e9d-433d49382f36","null","<p style=""text-align: center;"">+</p>","null","fixation","","","","","","","","","","","","","","","","","","","","","","",""
"","","","","","html-slider-response","159","1095325","0.0-21.0-0.15","3c47eb2e-4d12-4c97-9e9d-433d49382f36","1000","
                  <p style=""text-align: center;"">₪61
                                                <br>55%</p>
                  <p id=""wtp"" style=""text-align:center; margin-top: 0px; margin-bottom: 0px; font-size: 40px"";>&ensp;</p>","-","viewing","0","23","7B,26B","","","","","","","","","","","","","","","","","","","",""
"","","","","","html-slider-response","160","1097430","0.0-21.0-1.15","3c47eb2e-4d12-4c97-9e9d-433d49382f36","2105","
                  <p style=""text-align: center;"">₪61
                                                <br>55%</p>
                  <p id=""wtp"" style=""text-align:center; margin-top: 0px; margin-bottom: 0px; font-size: 40px"";>מוכנים לשלם: <span id=""c_p_y""></span></p>","28","evaluation","0","23","7B,26B","55","61","28","","","","","","","","","","","","","","","","",""
"","","","","","html-keyboard-response","161","1098780","0.0-21.0-2.15","3c47eb2e-4d12-4c97-9e9d-433d49382f36","null","<p style=""text-align: center;"">+</p>","null","fixation","","","","","","","","","","","","","","","","","","","","","","",""
"","","","","","html-slider-response","162","1099795","0.0-21.0-0.16","3c47eb2e-4d12-4c97-9e9d-433d49382f36","1000","
                  <p style=""text-align: center;"">₪58
                                                <br>40%</p>
                  <p id=""wtp"" style=""text-align:center; margin-top: 0px; margin-bottom: 0px; font-size: 40px"";>&ensp;</p>","-","viewing","0","20","10C,13A,19C,21B","","","","","","","","","","","","","","","","","","","",""
"","","","","","html-slider-response","163","1103558","0.0-21.0-1.16","3c47eb2e-4d12-4c97-9e9d-433d49382f36","3762","
                  <p style=""text-align: center;"">₪58
                                                <br>40%</p>
                  <p id=""wtp"" style=""text-align:center; margin-top: 0px; margin-bottom: 0px; font-size: 40px"";>מוכנים לשלם: <span id=""c_p_y""></span></p>","30","evaluation","12","20","10C,13A,19C,21B","40","58","30","","","","","","","","","","","","","","","","",""
"","","","","","html-keyboard-response","164","1104868","0.0-21.0-2.16","3c47eb2e-4d12-4c97-9e9d-433d49382f36","null","<p style=""text-align: center;"">+</p>","null","fixation","","","","","","","","","","","","","","","","","","","","","","",""
"","","","","","html-slider-response","165","1105879","0.0-21.0-0.17","3c47eb2e-4d12-4c97-9e9d-433d49382f36","1000","
                  <p style=""text-align: center;"">₪79
                                                <br>65%</p>
                  <p id=""wtp"" style=""text-align:center; margin-top: 0px; margin-bottom: 0px; font-size: 40px"";>&ensp;</p>","-","viewing","0","31","8A","","","","","","","","","","","","","","","","","","","",""
"","","","","","html-slider-response","166","1108702","0.0-21.0-1.17","3c47eb2e-4d12-4c97-9e9d-433d49382f36","2823","
                  <p style=""text-align: center;"">₪79
                                                <br>65%</p>
                  <p id=""wtp"" style=""text-align:center; margin-top: 0px; margin-bottom: 0px; font-size: 40px"";>מוכנים לשלם: <span id=""c_p_y""></span></p>","59","evaluation","36","31","8A","65","79","59","","","","","","","","","","","","","","","","",""
"","","","","","html-keyboard-response","167","1109570","0.0-21.0-2.17","3c47eb2e-4d12-4c97-9e9d-433d49382f36","null","<p style=""text-align: center;"">+</p>","null","fixation","","","","","","","","","","","","","","","","","","","","","","",""
"","","","","","html-slider-response","168","1110573","0.0-21.0-0.18","3c47eb2e-4d12-4c97-9e9d-433d49382f36","1000","
                  <p style=""text-align: center;"">₪64
                                                <br>50%</p>
                  <p id=""wtp"" style=""text-align:center; margin-top: 0px; margin-bottom: 0px; font-size: 40px"";>&ensp;</p>","-","viewing","0","25","1B,3B,4A","","","","","","","","","","","","","","","","","","","",""
"","","","","","html-slider-response","169","1112742","0.0-21.0-1.18","3c47eb2e-4d12-4c97-9e9d-433d49382f36","2168","
                  <p style=""text-align: center;"">₪64
                                                <br>50%</p>
                  <p id=""wtp"" style=""text-align:center; margin-top: 0px; margin-bottom: 0px; font-size: 40px"";>מוכנים לשלם: <span id=""c_p_y""></span></p>","50","evaluation","47","25","1B,3B,4A","50","64","50","","","","","","","","","","","","","","","","",""
"","","","","","html-keyboard-response","170","1114119","0.0-21.0-2.18","3c47eb2e-4d12-4c97-9e9d-433d49382f36","null","<p style=""text-align: center;"">+</p>","null","fixation","","","","","","","","","","","","","","","","","","","","","","",""
"","","","","","html-slider-response","171","1115127","0.0-21.0-0.19","3c47eb2e-4d12-4c97-9e9d-433d49382f36","1000","
                  <p style=""text-align: center;"">₪11
                                                <br>20%</p>
                  <p id=""wtp"" style=""text-align:center; margin-top: 0px; margin-bottom: 0px; font-size: 40px"";>&ensp;</p>","-","viewing","0","4","12C,17C,23C,28C","","","","","","","","","","","","","","","","","","","",""
"","","","","","html-slider-response","172","1117726","0.0-21.0-1.19","3c47eb2e-4d12-4c97-9e9d-433d49382f36","2598","
                  <p style=""text-align: center;"">₪11
                                                <br>20%</p>
                  <p id=""wtp"" style=""text-align:center; margin-top: 0px; margin-bottom: 0px; font-size: 40px"";>מוכנים לשלם: <span id=""c_p_y""></span></p>","18","evaluation","53","4","12C,17C,23C,28C","20","11","18","","","","","","","","","","","","","","","","",""
"","","","","","html-keyboard-response","173","1118685","0.0-21.0-2.19","3c47eb2e-4d12-4c97-9e9d-433d49382f36","null","<p style=""text-align: center;"">+</p>","null","fixation","","","","","","","","","","","","","","","","","","","","","","",""
"","","","","","html-slider-response","174","1119701","0.0-21.0-0.20","3c47eb2e-4d12-4c97-9e9d-433d49382f36","1000","
                  <p style=""text-align: center;"">₪36
                                                <br>30%</p>
                  <p id=""wtp"" style=""text-align:center; margin-top: 0px; margin-bottom: 0px; font-size: 40px"";>&ensp;</p>","-","viewing","0","11","3C,20A,22A","","","","","","","","","","","","","","","","","","","",""
"","","","","","html-slider-response","175","1123030","0.0-21.0-1.20","3c47eb2e-4d12-4c97-9e9d-433d49382f36","3328","
                  <p style=""text-align: center;"">₪36
                                                <br>30%</p>
                  <p id=""wtp"" style=""text-align:center; margin-top: 0px; margin-bottom: 0px; font-size: 40px"";>מוכנים לשלם: <span id=""c_p_y""></span></p>","22","evaluation","43","11","3C,20A,22A","30","36","22","","","","","","","","","","","","","","","","",""
"","","","","","html-keyboard-response","176","1123712","0.0-21.0-2.20","3c47eb2e-4d12-4c97-9e9d-433d49382f36","null","<p style=""text-align: center;"">+</p>","null","fixation","","","","","","","","","","","","","","","","","","","","","","",""
"","","","","","html-slider-response","177","1124718","0.0-21.0-0.21","3c47eb2e-4d12-4c97-9e9d-433d49382f36","1000","
                  <p style=""text-align: center;"">₪58
                                                <br>45%</p>
                  <p id=""wtp"" style=""text-align:center; margin-top: 0px; margin-bottom: 0px; font-size: 40px"";>&ensp;</p>","-","viewing","0","21","11C,18C,25A","","","","","","","","","","","","","","","","","","","",""
"","","","","","html-slider-response","178","1128720","0.0-21.0-1.21","3c47eb2e-4d12-4c97-9e9d-433d49382f36","null","
                  <p style=""text-align: center;"">₪58
                                                <br>45%</p>
                  <p id=""wtp"" style=""text-align:center; margin-top: 0px; margin-bottom: 0px; font-size: 40px"";>מוכנים לשלם: <span id=""c_p_y""></span></p>","null","evaluation","4","21","11C,18C,25A","45","58","28","","","","","","","","","","","","","","","","",""
"","","","","","html-keyboard-response","179","1129470","0.0-21.0-2.21","3c47eb2e-4d12-4c97-9e9d-433d49382f36","null","<p style=""text-align: center;"">+</p>","null","fixation","","","","","","","","","","","","","","","","","","","","","","",""
"","","","","","html-slider-response","180","1130472","0.0-21.0-0.22","3c47eb2e-4d12-4c97-9e9d-433d49382f36","1000","
                  <p style=""text-align: center;"">₪43
                                                <br>60%</p>
                  <p id=""wtp"" style=""text-align:center; margin-top: 0px; margin-bottom: 0px; font-size: 40px"";>&ensp;</p>","-","viewing","0","17","2A,7A,9A,15B","","","","","","","","","","","","","","","","","","","",""
"","","","","","html-slider-response","181","1132510","0.0-21.0-1.22","3c47eb2e-4d12-4c97-9e9d-433d49382f36","2037","
                  <p style=""text-align: center;"">₪43
                                                <br>60%</p>
                  <p id=""wtp"" style=""text-align:center; margin-top: 0px; margin-bottom: 0px; font-size: 40px"";>מוכנים לשלם: <span id=""c_p_y""></span></p>","35","evaluation","15","17","2A,7A,9A,15B","60","43","35","","","","","","","","","","","","","","","","",""
"","","","","","html-keyboard-response","182","1133170","0.0-21.0-2.22","3c47eb2e-4d12-4c97-9e9d-433d49382f36","null","<p style=""text-align: center;"">+</p>","null","fixation","","","","","","","","","","","","","","","","","","","","","","",""
"","","","","","html-slider-response","183","1134174","0.0-21.0-0.23","3c47eb2e-4d12-4c97-9e9d-433d49382f36","1000","
                  <p style=""text-align: center;"">₪11
                                                <br>25%</p>
                  <p id=""wtp"" style=""text-align:center; margin-top: 0px; margin-bottom: 0px; font-size: 40px"";>&ensp;</p>","-","viewing","0","5","12A,27B,28B,30B","","","","","","","","","","","","","","","","","","","",""
"","","","","","html-slider-response","184","1136326","0.0-21.0-1.23","3c47eb2e-4d12-4c97-9e9d-433d49382f36","2151","
                  <p style=""text-align: center;"">₪11
                                                <br>25%</p>
                  <p id=""wtp"" style=""text-align:center; margin-top: 0px; margin-bottom: 0px; font-size: 40px"";>מוכנים לשלם: <span id=""c_p_y""></span></p>","25","evaluation","16","5","12A,27B,28B,30B","25","11","25","","","","","","","","","","","","","","","","",""
"","","","","","html-keyboard-response","185","1137029","0.0-21.0-2.23","3c47eb2e-4d12-4c97-9e9d-433d49382f36","null","<p style=""text-align: center;"">+</p>","null","fixation","","","","","","","","","","","","","","","","","","","","","","",""
"","","","","","html-slider-response","186","1138031","0.0-21.0-0.24","3c47eb2e-4d12-4c97-9e9d-433d49382f36","1000","
                  <p style=""text-align: center;"">₪71
                                                <br>55%</p>
                  <p id=""wtp"" style=""text-align:center; margin-top: 0px; margin-bottom: 0px; font-size: 40px"";>&ensp;</p>","-","viewing","0","27","5B,18A","","","","","","","","","","","","","","","","","","","",""
"","","","","","html-slider-response","187","1139726","0.0-21.0-1.24","3c47eb2e-4d12-4c97-9e9d-433d49382f36","1694","
                  <p style=""text-align: center;"">₪71
                                                <br>55%</p>
                  <p id=""wtp"" style=""text-align:center; margin-top: 0px; margin-bottom: 0px; font-size: 40px"";>מוכנים לשלם: <span id=""c_p_y""></span></p>","37","evaluation","45","27","5B,18A","55","71","37","","","","","","","","","","","","","","","","",""
"","","","","","html-keyboard-response","188","1140514","0.0-21.0-2.24","3c47eb2e-4d12-4c97-9e9d-433d49382f36","null","<p style=""text-align: center;"">+</p>","null","fixation","","","","","","","","","","","","","","","","","","","","","","",""
"","","","","","html-slider-response","189","1141521","0.0-21.0-0.25","3c47eb2e-4d12-4c97-9e9d-433d49382f36","1000","
                  <p style=""text-align: center;"">₪61
                                                <br>45%</p>
                  <p id=""wtp"" style=""text-align:center; margin-top: 0px; margin-bottom: 0px; font-size: 40px"";>&ensp;</p>","-","viewing","0","22","10A,11A","","","","","","","","","","","","","","","","","","","",""
"","","","","","html-slider-response","190","1144352","0.0-21.0-1.25","3c47eb2e-4d12-4c97-9e9d-433d49382f36","2836","
                  <p style=""text-align: center;"">₪61
                                                <br>45%</p>
                  <p id=""wtp"" style=""text-align:center; margin-top: 0px; margin-bottom: 0px; font-size: 40px"";>מוכנים לשלם: <span id=""c_p_y""></span></p>","40","evaluation","73","22","10A,11A","45","61","40","","","","","","","","","","","","","","","","",""
"","","","","","html-keyboard-response","191","1144920","0.0-21.0-2.25","3c47eb2e-4d12-4c97-9e9d-433d49382f36","null","<p style=""text-align: center;"">+</p>","null","fixation","","","","","","","","","","","","","","","","","","","","","","",""
"","","","","","html-slider-response","192","1145932","0.0-21.0-0.26","3c47eb2e-4d12-4c97-9e9d-433d49382f36","1000","
                  <p style=""text-align: center;"">₪4
                                                <br>50%</p>
                  <p id=""wtp"" style=""text-align:center; margin-top: 0px; margin-bottom: 0px; font-size: 40px"";>&ensp;</p>","-","viewing","0","2","4C,17B","","","","","","","","","","","","","","","","","","","",""
"","","","","","html-slider-response","193","1147255","0.0-21.0-1.26","3c47eb2e-4d12-4c97-9e9d-433d49382f36","1322","
                  <p style=""text-align: center;"">₪4
                                                <br>50%</p>
                  <p id=""wtp"" style=""text-align:center; margin-top: 0px; margin-bottom: 0px; font-size: 40px"";>מוכנים לשלם: <span id=""c_p_y""></span></p>","10","evaluation","13","2","4C,17B","50","4","10","","","","","","","","","","","","","","","","",""
"","","","","","html-keyboard-response","194","1148351","0.0-21.0-2.26","3c47eb2e-4d12-4c97-9e9d-433d49382f36","null","<p style=""text-align: center;"">+</p>","null","fixation","","","","","","","","","","","","","","","","","","","","","","",""
"","","","","","html-slider-response","195","1149357","0.0-21.0-0.27","3c47eb2e-4d12-4c97-9e9d-433d49382f36","1000","
                  <p style=""text-align: center;"">₪58
                                                <br>30%</p>
                  <p id=""wtp"" style=""text-align:center; margin-top: 0px; margin-bottom: 0px; font-size: 40px"";>&ensp;</p>","-","viewing","0","19","13C,30A","","","","","","","","","","","","","","","","","","","",""
"","","","","","html-slider-response","196","1152303","0.0-21.0-1.27","3c47eb2e-4d12-4c97-9e9d-433d49382f36","2946","
                  <p style=""text-align: center;"">₪58
                                                <br>30%</p>
                  <p id=""wtp"" style=""text-align:center; margin-top: 0px; margin-bottom: 0px; font-size: 40px"";>מוכנים לשלם: <span id=""c_p_y""></span></p>","42","evaluation","78","19","13C,30A","30","58","42","","","","","","","","","","","","","","","","",""
"","","","","","html-keyboard-response","197","1153074","0.0-21.0-2.27","3c47eb2e-4d12-4c97-9e9d-433d49382f36","null","<p style=""text-align: center;"">+</p>","null","fixation","","","","","","","","","","","","","","","","","","","","","","",""
"","","","","","html-slider-response","198","1154090","0.0-21.0-0.28","3c47eb2e-4d12-4c97-9e9d-433d49382f36","1000","
                  <p style=""text-align: center;"">₪36
                                                <br>60%</p>
                  <p id=""wtp"" style=""text-align:center; margin-top: 0px; margin-bottom: 0px; font-size: 40px"";>&ensp;</p>","-","viewing","0","12","1C,7C,15C","","","","","","","","","","","","","","","","","","","",""
"","","","","","html-slider-response","199","1156072","0.0-21.0-1.28","3c47eb2e-4d12-4c97-9e9d-433d49382f36","1981","
                  <p style=""text-align: center;"">₪36
                                                <br>60%</p>
                  <p id=""wtp"" style=""text-align:center; margin-top: 0px; margin-bottom: 0px; font-size: 40px"";>מוכנים לשלם: <span id=""c_p_y""></span></p>","48","evaluation","64","12","1C,7C,15C","60","36","48","","","","","","","","","","","","","","","","",""
"","","","","","html-keyboard-response","200","1157318","0.0-21.0-2.28","3c47eb2e-4d12-4c97-9e9d-433d49382f36","null","<p style=""text-align: center;"">+</p>","null","fixation","","","","","","","","","","","","","","","","","","","","","","",""
"","","","","","html-slider-response","201","1158319","0.0-21.0-0.29","3c47eb2e-4d12-4c97-9e9d-433d49382f36","1000","
                  <p style=""text-align: center;"">₪71
                                                <br>75%</p>
                  <p id=""wtp"" style=""text-align:center; margin-top: 0px; margin-bottom: 0px; font-size: 40px"";>&ensp;</p>","-","viewing","0","28","8B","","","","","","","","","","","","","","","","","","","",""
"","","","","","html-slider-response","202","1160888","0.0-21.0-1.29","3c47eb2e-4d12-4c97-9e9d-433d49382f36","2568","
                  <p style=""text-align: center;"">₪71
                                                <br>75%</p>
                  <p id=""wtp"" style=""text-align:center; margin-top: 0px; margin-bottom: 0px; font-size: 40px"";>מוכנים לשלם: <span id=""c_p_y""></span></p>","63","evaluation","59","28","8B","75","71","63","","","","","","","","","","","","","","","","",""
"","","","","","html-keyboard-response","203","1162032","0.0-21.0-2.29","3c47eb2e-4d12-4c97-9e9d-433d49382f36","null","<p style=""text-align: center;"">+</p>","null","fixation","","","","","","","","","","","","","","","","","","","","","","",""
"","","","","","html-slider-response","204","1163035","0.0-21.0-0.30","3c47eb2e-4d12-4c97-9e9d-433d49382f36","1000","
                  <p style=""text-align: center;"">₪43
                                                <br>75%</p>
                  <p id=""wtp"" style=""text-align:center; margin-top: 0px; margin-bottom: 0px; font-size: 40px"";>&ensp;</p>","-","viewing","0","18","11B,19B,24A,26A","","","","","","","","","","","","","","","","","","","",""
"","","","","","html-slider-response","205","1166304","0.0-21.0-1.30","3c47eb2e-4d12-4c97-9e9d-433d49382f36","3267","
                  <p style=""text-align: center;"">₪43
                                                <br>75%</p>
                  <p id=""wtp"" style=""text-align:center; margin-top: 0px; margin-bottom: 0px; font-size: 40px"";>מוכנים לשלם: <span id=""c_p_y""></span></p>","46","evaluation","20","18","11B,19B,24A,26A","75","43","46","","","","","","","","","","","","","","","","",""
"","","","","","html-keyboard-response","206","1167218","0.0-21.0-2.30","3c47eb2e-4d12-4c97-9e9d-433d49382f36","null","<p style=""text-align: center;"">+</p>","null","fixation","","","","","","","","","","","","","","","","","","","","","","",""
"","","","","","html-keyboard-response","207","1168225","0.0-22.0","3c47eb2e-4d12-4c97-9e9d-433d49382f36","null","<p style=""text-align: center;"">+</p>","null","fixation","","","","","","","","","","","","","","","","","","","","","","",""
"","","","","","html-keyboard-response","208","1170383","0.0-23.0","3c47eb2e-4d12-4c97-9e9d-433d49382f36","null","<p>הפסקה.
          <br>לחצו כדי להמשיך.</p>","1","scan_wait","","","","","","","","","","","","","","","","","","","","","","",""
"","","","","","html-keyboard-response","209","1171391","0.0-24.0","3c47eb2e-4d12-4c97-9e9d-433d49382f36","null","<p style=""text-align: center;"">+</p>","null","fixation","","","","","","","","","","","","","","","","","","","","","","",""
"","","","","","html-slider-response","210","1172392","0.0-25.0-0.0","3c47eb2e-4d12-4c97-9e9d-433d49382f36","1000","
                  <p style=""text-align: center;"">₪39
                                                <br>65%</p>
                  <p id=""wtp"" style=""text-align:center; margin-top: 0px; margin-bottom: 0px; font-size: 40px"";>&ensp;</p>","-","viewing","0","16","1A,15A,26C","","","","","","","","","","","","","","","","","","","",""
"","","","","","html-slider-response","211","1176119","0.0-25.0-1.0","3c47eb2e-4d12-4c97-9e9d-433d49382f36","3726","
                  <p style=""text-align: center;"">₪39
                                                <br>65%</p>
                  <p id=""wtp"" style=""text-align:center; margin-top: 0px; margin-bottom: 0px; font-size: 40px"";>מוכנים לשלם: <span id=""c_p_y""></span></p>","35","evaluation","77","16","1A,15A,26C","65","39","35","","","","","","","","","","","","","","","","",""
"","","","","","html-keyboard-response","212","1177628","0.0-25.0-2.0","3c47eb2e-4d12-4c97-9e9d-433d49382f36","null","<p style=""text-align: center;"">+</p>","null","fixation","","","","","","","","","","","","","","","","","","","","","","",""
"","","","","","html-slider-response","213","1178644","0.0-25.0-0.1","3c47eb2e-4d12-4c97-9e9d-433d49382f36","1000","
                  <p style=""text-align: center;"">₪64
                                                <br>50%</p>
                  <p id=""wtp"" style=""text-align:center; margin-top: 0px; margin-bottom: 0px; font-size: 40px"";>&ensp;</p>","-","viewing","0","25","1B,3B,4A","","","","","","","","","","","","","","","","","","","",""
"","","","","","html-slider-response","214","1182650","0.0-25.0-1.1","3c47eb2e-4d12-4c97-9e9d-433d49382f36","null","
                  <p style=""text-align: center;"">₪64
                                                <br>50%</p>
                  <p id=""wtp"" style=""text-align:center; margin-top: 0px; margin-bottom: 0px; font-size: 40px"";>מוכנים לשלם: <span id=""c_p_y""></span></p>","null","evaluation","54","25","1B,3B,4A","50","64","31","","","","","","","","","","","","","","","","",""
"","","","","","html-keyboard-response","215","1183968","0.0-25.0-2.1","3c47eb2e-4d12-4c97-9e9d-433d49382f36","null","<p style=""text-align: center;"">+</p>","null","fixation","","","","","","","","","","","","","","","","","","","","","","",""
"","","","","","html-slider-response","216","1184974","0.0-25.0-0.2","3c47eb2e-4d12-4c97-9e9d-433d49382f36","1000","
                  <p style=""text-align: center;"">₪11
                                                <br>25%</p>
                  <p id=""wtp"" style=""text-align:center; margin-top: 0px; margin-bottom: 0px; font-size: 40px"";>&ensp;</p>","-","viewing","0","5","12A,27B,28B,30B","","","","","","","","","","","","","","","","","","","",""
"","","","","","html-slider-response","217","1186400","0.0-25.0-1.2","3c47eb2e-4d12-4c97-9e9d-433d49382f36","1425","
                  <p style=""text-align: center;"">₪11
                                                <br>25%</p>
                  <p id=""wtp"" style=""text-align:center; margin-top: 0px; margin-bottom: 0px; font-size: 40px"";>מוכנים לשלם: <span id=""c_p_y""></span></p>","17","evaluation","32","5","12A,27B,28B,30B","25","11","17","","","","","","","","","","","","","","","","",""
"","","","","","html-keyboard-response","218","1187640","0.0-25.0-2.2","3c47eb2e-4d12-4c97-9e9d-433d49382f36","null","<p style=""text-align: center;"">+</p>","null","fixation","","","","","","","","","","","","","","","","","","","","","","",""
"","","","","","html-slider-response","219","1188641","0.0-25.0-0.3","3c47eb2e-4d12-4c97-9e9d-433d49382f36","1000","
                  <p style=""text-align: center;"">₪58
                                                <br>40%</p>
                  <p id=""wtp"" style=""text-align:center; margin-top: 0px; margin-bottom: 0px; font-size: 40px"";>&ensp;</p>","-","viewing","0","20","10C,13A,19C,21B","","","","","","","","","","","","","","","","","","","",""
"","","","","","html-slider-response","220","1191615","0.0-25.0-1.3","3c47eb2e-4d12-4c97-9e9d-433d49382f36","2973","
                  <p style=""text-align: center;"">₪58
                                                <br>40%</p>
                  <p id=""wtp"" style=""text-align:center; margin-top: 0px; margin-bottom: 0px; font-size: 40px"";>מוכנים לשלם: <span id=""c_p_y""></span></p>","27","evaluation","8","20","10C,13A,19C,21B","40","58","27","","","","","","","","","","","","","","","","",""
"","","","","","html-keyboard-response","221","1192912","0.0-25.0-2.3","3c47eb2e-4d12-4c97-9e9d-433d49382f36","null","<p style=""text-align: center;"">+</p>","null","fixation","","","","","","","","","","","","","","","","","","","","","","",""
"","","","","","html-slider-response","222","1193917","0.0-25.0-0.4","3c47eb2e-4d12-4c97-9e9d-433d49382f36","1000","
                  <p style=""text-align: center;"">₪64
                                                <br>25%</p>
                  <p id=""wtp"" style=""text-align:center; margin-top: 0px; margin-bottom: 0px; font-size: 40px"";>&ensp;</p>","-","viewing","0","24","6A,21A","","","","","","","","","","","","","","","","","","","",""
"","","","","","html-slider-response","223","1195392","0.0-25.0-1.4","3c47eb2e-4d12-4c97-9e9d-433d49382f36","1474","
                  <p style=""text-align: center;"">₪64
                                                <br>25%</p>
                  <p id=""wtp"" style=""text-align:center; margin-top: 0px; margin-bottom: 0px; font-size: 40px"";>מוכנים לשלם: <span id=""c_p_y""></span></p>","42","evaluation","20","24","6A,21A","25","64","42","","","","","","","","","","","","","","","","",""
"","","","","","html-keyboard-response","224","1196011","0.0-25.0-2.4","3c47eb2e-4d12-4c97-9e9d-433d49382f36","null","<p style=""text-align: center;"">+</p>","null","fixation","","","","","","","","","","","","","","","","","","","","","","",""
"","","","","","html-slider-response","225","1197017","0.0-25.0-0.5","3c47eb2e-4d12-4c97-9e9d-433d49382f36","1000","
                  <p style=""text-align: center;"">₪11
                                                <br>20%</p>
                  <p id=""wtp"" style=""text-align:center; margin-top: 0px; margin-bottom: 0px; font-size: 40px"";>&ensp;</p>","-","viewing","0","4","12C,17C,23C,28C","","","","","","","","","","","","","","","","","","","",""
"","","","","","html-slider-response","226","1198680","0.0-25.0-1.5","3c47eb2e-4d12-4c97-9e9d-433d49382f36","1662","
                  <p style=""text-align: center;"">₪11
                                                <br>20%</p>
                  <p id=""wtp"" style=""text-align:center; margin-top: 0px; margin-bottom: 0px; font-size: 40px"";>מוכנים לשלם: <span id=""c_p_y""></span></p>","8","evaluation","9","4","12C,17C,23C,28C","20","11","9","","","","","","","","","","","","","","","","",""
"","","","","","html-keyboard-response","227","1199845","0.0-25.0-2.5","3c47eb2e-4d12-4c97-9e9d-433d49382f36","null","<p style=""text-align: center;"">+</p>","null","fixation","","","","","","","","","","","","","","","","","","","","","","",""
"","","","","","html-slider-response","228","1200849","0.0-25.0-0.6","3c47eb2e-4d12-4c97-9e9d-433d49382f36","1000","
                  <p style=""text-align: center;"">₪11
                                                <br>45%</p>
                  <p id=""wtp"" style=""text-align:center; margin-top: 0px; margin-bottom: 0px; font-size: 40px"";>&ensp;</p>","-","viewing","0","6","14B,21C,25C","","","","","","","","","","","","","","","","","","","",""
"","","","","","html-slider-response","229","1202719","0.0-25.0-1.6","3c47eb2e-4d12-4c97-9e9d-433d49382f36","1869","
                  <p style=""text-align: center;"">₪11
                                                <br>45%</p>
                  <p id=""wtp"" style=""text-align:center; margin-top: 0px; margin-bottom: 0px; font-size: 40px"";>מוכנים לשלם: <span id=""c_p_y""></span></p>","20","evaluation","72","6","14B,21C,25C","45","11","20","","","","","","","","","","","","","","","","",""
"","","","","","html-keyboard-response","230","1203559","0.0-25.0-2.6","3c47eb2e-4d12-4c97-9e9d-433d49382f36","null","<p style=""text-align: center;"">+</p>","null","fixation","","","","","","","","","","","","","","","","","","","","","","",""
"","","","","","html-slider-response","231","1204561","0.0-25.0-0.7","3c47eb2e-4d12-4c97-9e9d-433d49382f36","1000","
                  <p style=""text-align: center;"">₪79
                                                <br>65%</p>
                  <p id=""wtp"" style=""text-align:center; margin-top: 0px; margin-bottom: 0px; font-size: 40px"";>&ensp;</p>","-","viewing","0","31","8A","","","","","","","","","","","","","","","","","","","",""
"","","","","","html-slider-response","232","1206473","0.0-25.0-1.7","3c47eb2e-4d12-4c97-9e9d-433d49382f36","1912","
                  <p style=""text-align: center;"">₪79
                                                <br>65%</p>
                  <p id=""wtp"" style=""text-align:center; margin-top: 0px; margin-bottom: 0px; font-size: 40px"";>מוכנים לשלם: <span id=""c_p_y""></span></p>","65","evaluation","38","31","8A","65","79","65","","","","","","","","","","","","","","","","",""
"","","","","","html-keyboard-response","233","1207937","0.0-25.0-2.7","3c47eb2e-4d12-4c97-9e9d-433d49382f36","null","<p style=""text-align: center;"">+</p>","null","fixation","","","","","","","","","","","","","","","","","","","","","","",""
"","","","","","html-slider-response","234","1208942","0.0-25.0-0.8","3c47eb2e-4d12-4c97-9e9d-433d49382f36","1000","
                  <p style=""text-align: center;"">₪43
                                                <br>60%</p>
                  <p id=""wtp"" style=""text-align:center; margin-top: 0px; margin-bottom: 0px; font-size: 40px"";>&ensp;</p>","-","viewing","0","17","2A,7A,9A,15B","","","","","","","","","","","","","","","","","","","",""
"","","","","","html-slider-response","235","1210217","0.0-25.0-1.8","3c47eb2e-4d12-4c97-9e9d-433d49382f36","1274","
                  <p style=""text-align: center;"">₪43
                                                <br>60%</p>
                  <p id=""wtp"" style=""text-align:center; margin-top: 0px; margin-bottom: 0px; font-size: 40px"";>מוכנים לשלם: <span id=""c_p_y""></span></p>","35","evaluation","36","17","2A,7A,9A,15B","60","43","35","","","","","","","","","","","","","","","","",""
"","","","","","html-keyboard-response","236","1211352","0.0-25.0-2.8","3c47eb2e-4d12-4c97-9e9d-433d49382f36","null","<p style=""text-align: center;"">+</p>","null","fixation","","","","","","","","","","","","","","","","","","","","","","",""
"","","","","","html-slider-response","237","1212353","0.0-25.0-0.9","3c47eb2e-4d12-4c97-9e9d-433d49382f36","1000","
                  <p style=""text-align: center;"">₪18
                                                <br>25%</p>
                  <p id=""wtp"" style=""text-align:center; margin-top: 0px; margin-bottom: 0px; font-size: 40px"";>&ensp;</p>","-","viewing","0","9","14A,23A","","","","","","","","","","","","","","","","","","","",""
"","","","","","html-slider-response","238","1213873","0.0-25.0-1.9","3c47eb2e-4d12-4c97-9e9d-433d49382f36","1519","
                  <p style=""text-align: center;"">₪18
                                                <br>25%</p>
                  <p id=""wtp"" style=""text-align:center; margin-top: 0px; margin-bottom: 0px; font-size: 40px"";>מוכנים לשלם: <span id=""c_p_y""></span></p>","24","evaluation","29","9","14A,23A","25","18","24","","","","","","","","","","","","","","","","",""
"","","","","","html-keyboard-response","239","1214756","0.0-25.0-2.9","3c47eb2e-4d12-4c97-9e9d-433d49382f36","null","<p style=""text-align: center;"">+</p>","null","fixation","","","","","","","","","","","","","","","","","","","","","","",""
"","","","","","html-slider-response","240","1215765","0.0-25.0-0.10","3c47eb2e-4d12-4c97-9e9d-433d49382f36","1000","
                  <p style=""text-align: center;"">₪71
                                                <br>75%</p>
                  <p id=""wtp"" style=""text-align:center; margin-top: 0px; margin-bottom: 0px; font-size: 40px"";>&ensp;</p>","-","viewing","0","28","8B","","","","","","","","","","","","","","","","","","","",""
"","","","","","html-slider-response","241","1217545","0.0-25.0-1.10","3c47eb2e-4d12-4c97-9e9d-433d49382f36","1778","
                  <p style=""text-align: center;"">₪71
                                                <br>75%</p>
                  <p id=""wtp"" style=""text-align:center; margin-top: 0px; margin-bottom: 0px; font-size: 40px"";>מוכנים לשלם: <span id=""c_p_y""></span></p>","60","evaluation","73","28","8B","75","71","60","","","","","","","","","","","","","","","","",""
"","","","","","html-keyboard-response","242","1218831","0.0-25.0-2.10","3c47eb2e-4d12-4c97-9e9d-433d49382f36","null","<p style=""text-align: center;"">+</p>","null","fixation","","","","","","","","","","","","","","","","","","","","","","",""
"","","","","","html-slider-response","243","1219833","0.0-25.0-0.11","3c47eb2e-4d12-4c97-9e9d-433d49382f36","1000","
                  <p style=""text-align: center;"">₪79
                                                <br>40%</p>
                  <p id=""wtp"" style=""text-align:center; margin-top: 0px; margin-bottom: 0px; font-size: 40px"";>&ensp;</p>","-","viewing","0","30","9B","","","","","","","","","","","","","","","","","","","",""
"","","","","","html-slider-response","244","1222001","0.0-25.0-1.11","3c47eb2e-4d12-4c97-9e9d-433d49382f36","2167","
                  <p style=""text-align: center;"">₪79
                                                <br>40%</p>
                  <p id=""wtp"" style=""text-align:center; margin-top: 0px; margin-bottom: 0px; font-size: 40px"";>מוכנים לשלם: <span id=""c_p_y""></span></p>","40","evaluation","32","30","9B","40","79","40","","","","","","","","","","","","","","","","",""
"","","","","","html-keyboard-response","245","1222865","0.0-25.0-2.11","3c47eb2e-4d12-4c97-9e9d-433d49382f36","null","<p style=""text-align: center;"">+</p>","null","fixation","","","","","","","","","","","","","","","","","","","","","","",""
"","","","","","html-slider-response","246","1223866","0.0-25.0-0.12","3c47eb2e-4d12-4c97-9e9d-433d49382f36","1000","
                  <p style=""text-align: center;"">₪36
                                                <br>60%</p>
                  <p id=""wtp"" style=""text-align:center; margin-top: 0px; margin-bottom: 0px; font-size: 40px"";>&ensp;</p>","-","viewing","0","12","1C,7C,15C","","","","","","","","","","","","","","","","","","","",""
"","","","","","html-slider-response","247","1225641","0.0-25.0-1.12","3c47eb2e-4d12-4c97-9e9d-433d49382f36","1774","
                  <p style=""text-align: center;"">₪36
                                                <br>60%</p>
                  <p id=""wtp"" style=""text-align:center; margin-top: 0px; margin-bottom: 0px; font-size: 40px"";>מוכנים לשלם: <span id=""c_p_y""></span></p>","38","evaluation","57","12","1C,7C,15C","60","36","38","","","","","","","","","","","","","","","","",""
"","","","","","html-keyboard-response","248","1226765","0.0-25.0-2.12","3c47eb2e-4d12-4c97-9e9d-433d49382f36","null","<p style=""text-align: center;"">+</p>","null","fixation","","","","","","","","","","","","","","","","","","","","","","",""
"","","","","","html-slider-response","249","1227770","0.0-25.0-0.13","3c47eb2e-4d12-4c97-9e9d-433d49382f36","1000","
                  <p style=""text-align: center;"">₪71
