"success","timeout","failed_images","failed_audio","failed_video","trial_type","trial_index","time_elapsed","internal_node_id","subject_id","rt","stimulus","response","part","slider_start","ID","set_ID","prob","amount","last_location","actual_choice","actual_EV","binary_id","trinary_id","catch","direction","A_key","S_key","D_key","choice_prob","choice_amount","chosen_part","won_prize","potential_prize_amount","potential_prize_prob","total_prize","accuracy"
"true","false","[]","[]","[]","preload","0","31","0.0-0.0","b64673f3-59e6-410c-a8fe-c110dc52c879","","","","","","","","","","","","","","","","","","","","","","","","","","",""
"","","","","","html-keyboard-response","1","1860235","0.0-1.0","b64673f3-59e6-410c-a8fe-c110dc52c879","null","
          <h1>שלום וברוכים הבאים!</h1>
          <p>לפניכם ניסוי בקבלת החלטות עם שני חלקים.
          <br><br>לחצו על העכבר כדי להמשיך.</p>","0","example","","","","","","","","","","","","","","","","","","","","","","",""
"","","","","","html-keyboard-response","2","1868466","0.0-2.0","b64673f3-59e6-410c-a8fe-c110dc52c879","null","
        <h1>חלק 1</h1>
        <p>בקרוב יוצגו בפניכם הגרלות.
        <br>עליכם לבחור את המחיר המירבי שתהיו מוכנים לשלם כדי להשתתף בהגרלה שתוצג.
        <br>יש לכם תקציב של ₪80 לכל הגרלה. 
        <br>נסו להעריך כל הגרלה בנפרד ולחשוב כמה היא שווה עבורכם, ₪80 זמינים לכל הגרלה בנפרד.
        <br><br>לחצו על העכבר כדי להמשיך.</p>","1","instructions","","","","","","","","","","","","","","","","","","","","","","",""
"","","","","","html-keyboard-response","3","1877809","0.0-3.0","b64673f3-59e6-410c-a8fe-c110dc52c879","null","
        <p>בסוף הניסוי, המחשב יבחר את אחת ההגרלות ויקבע מחיר לכרטיס עבורה. 
        <br>במידה והמחיר שבחרתם נמוך מהמחיר שנבחר על ידי המחשב, לא תשתתפו בהגרלה ותשארו עם מלוא התקציב.
        <br>במידה והמחיר שבחרתם גבוה מהמחיר שנבחר על ידי המחשב, תשלמו את המחיר שנקבע ותשתתפו בהגרלה.
        <br><br>לחצו על העכבר כדי להמשיך.</p>","1","instructions","","","","","","","","","","","","","","","","","","","","","","",""
"","","","","","html-slider-response","4","1896121","0.0-4.0","b64673f3-59e6-410c-a8fe-c110dc52c879","18198","
        <p style=""font-size: 42px;"">נתחיל עם דוגמא: 
        <br>ההגרלה מטה מציעה 65% סיכוי לזכות ב-₪40 
        <br>&emsp;&emsp;&emsp;&emsp;&emsp;&emsp;&emsp;&emsp;&ensp;35% סיכוי לזכות ב-₪0.
        <br><br>מה המחיר המירבי שתהיו מוכנים לשלם על כרטיס להגרלה זו בין 0 ל-₪80?
        <br>הזיזו את העכבר על פני המלבן ולחצו כדי לבצע בחירה.</p>
        
        <p style=""text-align: center;"">₪40<br>65%</p>

        <p id=""wtp"" style=""text-align:center; margin-top: 0px; margin-bottom: 0px; font-size: 40px"";>מוכנים לשלם: <span id=""c_p_y""></span></p>","5","example","34","","","","","","","","","","","","","","","","","","","","","",""
"","","","","","html-keyboard-response","5","1904921","0.0-5.0","b64673f3-59e6-410c-a8fe-c110dc52c879","null","<p>יפה מאוד!
                <br> בחרתם שתהיו מוכנים לשלם ₪5 כדי להשתתף בהגרלה:
                <br><p style=""text-align: center;"">₪40<br>65%</p>
                <p>נשמע נכון?
                <br>נניח שהגרלה זו נבחרה בסוף הניסוי.
                <br>כעת המחשב יקבע מחיר עבורה באקראי.
                <br>לחצו על העכבר להמשך.</p>","1","example","","","","","","","","","","","","","","","","","","","","","","",""
"","","","","","html-keyboard-response","6","1908673","0.0-6.0","b64673f3-59e6-410c-a8fe-c110dc52c879","null","<p>המחשב קבע מחיר: ₪51
                <br>ואתם בחרתם לשלם לכל היותר: ₪5
                <br><br>מכיוון שהמחיר שבחרתם נמוך מהמחיר שנקבע, לא תתשתתפו בהגרלה.
                <br>במקרה כזה, בסוף הניסוי תקבלו את כל התקציב ההתחלתי של ₪80.
                <br><br>לחצו על העכבר להמשך.</p>","1","example","","","","","","","","","","","","","","","","","","","","","","",""
"","","","","","html-slider-response","7","1914633","0.0-7.0","b64673f3-59e6-410c-a8fe-c110dc52c879","5707","<p style=""font-size: 42px;"">הנה עוד דוגמא:
                <br>ההגרלה מטה מציעה 35% סיכוי לזכות ב-₪18 
                <br>&emsp;&emsp;&emsp;&emsp;&emsp;&emsp;&emsp;&emsp;&ensp;65% סיכוי לזכות ב-₪0.</p>
        
                <p style=""text-align: center;"">₪18<br>35%</p>
                <p id=""wtp"" style=""text-align:center; margin-top: 0px; margin-bottom: 0px; font-size: 40px"";>מוכנים לשלם: <span id=""c_p_y""></span></p>","0","example","42","","","","","","","","","","","","","","","","","","","","","",""
"","","","","","html-keyboard-response","8","1918481","0.0-8.0","b64673f3-59e6-410c-a8fe-c110dc52c879","null","<p>הייתם מוכנים לשלם  ₪0 כדי להשתתף בהגרלה:
                <p style=""text-align: center;"">₪18<br>35%</p>
                <p>כעת נניח שהמחשב בחר את ההגרלה הזו בסוף הניסוי, וקבע עבורה מחיר.
                <br><br>לחצו על העכבר כדי להמשיך.</p>","1","instructions","","","","","","","","","","","","","","","","","","","","","","",""
"","","","","","html-keyboard-response","9","1933657","0.0-9.0","b64673f3-59e6-410c-a8fe-c110dc52c879","null","<p>המחשב קבע מחיר להגרלה: ₪0
                <br>ואתם בחרתם לשלם לכל היותר: ₪0
                <br><br>כעת המחיר שנקבע זהה לזה שבחרתם, אז תשלמו את המחיר שקבע המחשב (₪0) ותשתתפו בהגרלה.
                <br>במקרה כזה, תסיימו את הניסוי עם תקציב של ₪80 ועם סיכוי לזכות ב-₪18 נוספים מההגרלה.
                <br>כלומר, תוכלו לקבל ₪80 אם לא תזכו בהגרלה, או ₪98 אם תזכו בהגרלה.
                <br><br>לחצו על העכבר להמשך.</p>","1","example","","","","","","","","","","","","","","","","","","","","","","",""
"","","","","","html-keyboard-response","10","1940625","0.0-10.0","b64673f3-59e6-410c-a8fe-c110dc52c879","null","<p>במהלך הניסוי, קודם תראו את ההגרלה ורק לאחר מכן תוכלו לבחור.
                <p>כמו כן, יהיו לכם מספר שניות מוגבל להגיב.
                <p>בואו ננסה זאת עם ההגרלה הקודמת.
                <br>לחצו על העכבר כדי להמשיך.</p>","1","instructions","","","","","","","","","","","","","","","","","","","","","","",""
"","","","","","html-slider-response","11","1941895","0.0-11.0","b64673f3-59e6-410c-a8fe-c110dc52c879","1000","
                    <p style=""text-align: center;"">₪18<br>35%</p>
                    <p id=""wtp"" style=""text-align:center; margin-top: 0px; margin-bottom: 0px; font-size: 40px"";>&ensp;</p>","37","instructions","0","","","","","","","","","","","","","","","","","","","","","",""
"","","","","","html-slider-response","12","1944097","0.0-12.0","b64673f3-59e6-410c-a8fe-c110dc52c879","1950","
                    <p style=""text-align: center;"">₪18<br>35%</p>
                    <p id=""wtp"" style=""text-align:center; margin-top: 0px; margin-bottom: 0px; font-size: 40px"";>מוכנים לשלם: <span id=""c_p_y""></span></p>","0","instructions","18","","","","","","","","","","","","","","","","","","","","","",""
"","","","","","html-keyboard-response","13","1946729","0.0-13.0","b64673f3-59e6-410c-a8fe-c110dc52c879","null","<p>יפה. הפעם בחרתם לשלם לכל היותר ₪0.
                <br><br>לחצו על העכבר כדי להמשיך.</p>","1","instructions","","","","","","","","","","","","","","","","","","","","","","",""
"","","","","","html-keyboard-response","14","1952801","0.0-15.0","b64673f3-59e6-410c-a8fe-c110dc52c879","null","<p>כעת נתחיל את הניסוי.
                <br><br>אתם תראו הגרלות ותתבקשו לבחור כמה תהיו מוכנים לשלם כדי להשתתף בהן.
                <br>יש לכם תקציב של ₪80 עבור כל הגרלה.
                <br>בסוף הניסוי הגרלה אחת תבחר באקראי ותשוחק.
                <br><br>לחצו על העכבר כדי להתחיל את הניסוי.</p>","1","instructions","","","","","","","","","","","","","","","","","","","","","","",""
"","","","","","html-keyboard-response","15","1954055","0.0-16.0","b64673f3-59e6-410c-a8fe-c110dc52c879","null","<p style=""text-align: center;"">+</p>","null","fixation","","","","","","","","","","","","","","","","","","","","","","",""
"","","","","","html-slider-response","16","1955060","0.0-17.0-0.0","b64673f3-59e6-410c-a8fe-c110dc52c879","1000","
                  <p style=""text-align: center;"">₪4
                                                <br>50%</p>
                  <p id=""wtp"" style=""text-align:center; margin-top: 0px; margin-bottom: 0px; font-size: 40px"";>&ensp;</p>","-","viewing","0","2","4C,17B","","","","","","","","","","","","","","","","","","","",""
"","","","","","html-slider-response","17","1956666","0.0-17.0-1.0","b64673f3-59e6-410c-a8fe-c110dc52c879","1604","
                  <p style=""text-align: center;"">₪4
                                                <br>50%</p>
                  <p id=""wtp"" style=""text-align:center; margin-top: 0px; margin-bottom: 0px; font-size: 40px"";>מוכנים לשלם: <span id=""c_p_y""></span></p>","0","evaluation","9","2","4C,17B","50","4","0","","","","","","","","","","","","","","","","",""
"","","","","","html-keyboard-response","18","1958168","0.0-17.0-2.0","b64673f3-59e6-410c-a8fe-c110dc52c879","null","<p style=""text-align: center;"">+</p>","null","fixation","","","","","","","","","","","","","","","","","","","","","","",""
"","","","","","html-slider-response","19","1959172","0.0-17.0-0.1","b64673f3-59e6-410c-a8fe-c110dc52c879","1000","
                  <p style=""text-align: center;"">₪61
                                                <br>45%</p>
                  <p id=""wtp"" style=""text-align:center; margin-top: 0px; margin-bottom: 0px; font-size: 40px"";>&ensp;</p>","-","viewing","0","22","10A,11A","","","","","","","","","","","","","","","","","","","",""
"","","","","","html-slider-response","20","1960386","0.0-17.0-1.1","b64673f3-59e6-410c-a8fe-c110dc52c879","1213","
                  <p style=""text-align: center;"">₪61
                                                <br>45%</p>
                  <p id=""wtp"" style=""text-align:center; margin-top: 0px; margin-bottom: 0px; font-size: 40px"";>מוכנים לשלם: <span id=""c_p_y""></span></p>","10","evaluation","5","22","10A,11A","45","61","10","","","","","","","","","","","","","","","","",""
"","","","","","html-keyboard-response","21","1961443","0.0-17.0-2.1","b64673f3-59e6-410c-a8fe-c110dc52c879","null","<p style=""text-align: center;"">+</p>","null","fixation","","","","","","","","","","","","","","","","","","","","","","",""
"","","","","","html-slider-response","22","1962460","0.0-17.0-0.2","b64673f3-59e6-410c-a8fe-c110dc52c879","1000","
                  <p style=""text-align: center;"">₪76
                                                <br>65%</p>
                  <p id=""wtp"" style=""text-align:center; margin-top: 0px; margin-bottom: 0px; font-size: 40px"";>&ensp;</p>","-","viewing","0","29","8C,19A,24B","","","","","","","","","","","","","","","","","","","",""
"","","","","","html-slider-response","23","1963770","0.0-17.0-1.2","b64673f3-59e6-410c-a8fe-c110dc52c879","1308","
                  <p style=""text-align: center;"">₪76
                                                <br>65%</p>
                  <p id=""wtp"" style=""text-align:center; margin-top: 0px; margin-bottom: 0px; font-size: 40px"";>מוכנים לשלם: <span id=""c_p_y""></span></p>","24","evaluation","71","29","8C,19A,24B","65","76","24","","","","","","","","","","","","","","","","",""
"","","","","","html-keyboard-response","24","1964569","0.0-17.0-2.2","b64673f3-59e6-410c-a8fe-c110dc52c879","null","<p style=""text-align: center;"">+</p>","null","fixation","","","","","","","","","","","","","","","","","","","","","","",""
"","","","","","html-slider-response","25","1965571","0.0-17.0-0.3","b64673f3-59e6-410c-a8fe-c110dc52c879","1000","
                  <p style=""text-align: center;"">₪43
                                                <br>60%</p>
                  <p id=""wtp"" style=""text-align:center; margin-top: 0px; margin-bottom: 0px; font-size: 40px"";>&ensp;</p>","-","viewing","0","17","2A,7A,9A,15B","","","","","","","","","","","","","","","","","","","",""
"","","","","","html-slider-response","26","1967074","0.0-17.0-1.3","b64673f3-59e6-410c-a8fe-c110dc52c879","1501","
                  <p style=""text-align: center;"">₪43
                                                <br>60%</p>
                  <p id=""wtp"" style=""text-align:center; margin-top: 0px; margin-bottom: 0px; font-size: 40px"";>מוכנים לשלם: <span id=""c_p_y""></span></p>","14","evaluation","11","17","2A,7A,9A,15B","60","43","14","","","","","","","","","","","","","","","","",""
"","","","","","html-keyboard-response","27","1967797","0.0-17.0-2.3","b64673f3-59e6-410c-a8fe-c110dc52c879","null","<p style=""text-align: center;"">+</p>","null","fixation","","","","","","","","","","","","","","","","","","","","","","",""
"","","","","","html-slider-response","28","1968807","0.0-17.0-0.4","b64673f3-59e6-410c-a8fe-c110dc52c879","1000","
                  <p style=""text-align: center;"">₪58
                                                <br>40%</p>
                  <p id=""wtp"" style=""text-align:center; margin-top: 0px; margin-bottom: 0px; font-size: 40px"";>&ensp;</p>","-","viewing","0","20","10C,13A,19C,21B","","","","","","","","","","","","","","","","","","","",""
"","","","","","html-slider-response","29","1970978","0.0-17.0-1.4","b64673f3-59e6-410c-a8fe-c110dc52c879","2170","
                  <p style=""text-align: center;"">₪58
                                                <br>40%</p>
                  <p id=""wtp"" style=""text-align:center; margin-top: 0px; margin-bottom: 0px; font-size: 40px"";>מוכנים לשלם: <span id=""c_p_y""></span></p>","10","evaluation","80","20","10C,13A,19C,21B","40","58","10","","","","","","","","","","","","","","","","",""
"","","","","","html-keyboard-response","30","1971515","0.0-17.0-2.4","b64673f3-59e6-410c-a8fe-c110dc52c879","null","<p style=""text-align: center;"">+</p>","null","fixation","","","","","","","","","","","","","","","","","","","","","","",""
"","","","","","html-slider-response","31","1972517","0.0-17.0-0.5","b64673f3-59e6-410c-a8fe-c110dc52c879","1000","
                  <p style=""text-align: center;"">₪4
                                                <br>25%</p>
                  <p id=""wtp"" style=""text-align:center; margin-top: 0px; margin-bottom: 0px; font-size: 40px"";>&ensp;</p>","-","viewing","0","1","6C,29B,30C","","","","","","","","","","","","","","","","","","","",""
"","","","","","html-slider-response","32","1973106","0.0-17.0-1.5","b64673f3-59e6-410c-a8fe-c110dc52c879","587","
                  <p style=""text-align: center;"">₪4
                                                <br>25%</p>
                  <p id=""wtp"" style=""text-align:center; margin-top: 0px; margin-bottom: 0px; font-size: 40px"";>מוכנים לשלם: <span id=""c_p_y""></span></p>","0","evaluation","33","1","6C,29B,30C","25","4","0","","","","","","","","","","","","","","","","",""
"","","","","","html-keyboard-response","33","1973642","0.0-17.0-2.5","b64673f3-59e6-410c-a8fe-c110dc52c879","null","<p style=""text-align: center;"">+</p>","null","fixation","","","","","","","","","","","","","","","","","","","","","","",""
"","","","","","html-slider-response","34","1974654","0.0-17.0-0.6","b64673f3-59e6-410c-a8fe-c110dc52c879","1000","
                  <p style=""text-align: center;"">₪36
                                                <br>75%</p>
                  <p id=""wtp"" style=""text-align:center; margin-top: 0px; margin-bottom: 0px; font-size: 40px"";>&ensp;</p>","-","viewing","0","14","4B,5A,13B,16B","","","","","","","","","","","","","","","","","","","",""
"","","","","","html-slider-response","35","1975953","0.0-17.0-1.6","b64673f3-59e6-410c-a8fe-c110dc52c879","1298","
                  <p style=""text-align: center;"">₪36
                                                <br>75%</p>
                  <p id=""wtp"" style=""text-align:center; margin-top: 0px; margin-bottom: 0px; font-size: 40px"";>מוכנים לשלם: <span id=""c_p_y""></span></p>","16","evaluation","27","14","4B,5A,13B,16B","75","36","16","","","","","","","","","","","","","","","","",""
"","","","","","html-keyboard-response","36","1977386","0.0-17.0-2.6","b64673f3-59e6-410c-a8fe-c110dc52c879","null","<p style=""text-align: center;"">+</p>","null","fixation","","","","","","","","","","","","","","","","","","","","","","",""
"","","","","","html-slider-response","37","1978386","0.0-17.0-0.7","b64673f3-59e6-410c-a8fe-c110dc52c879","1000","
                  <p style=""text-align: center;"">₪36
                                                <br>70%</p>
                  <p id=""wtp"" style=""text-align:center; margin-top: 0px; margin-bottom: 0px; font-size: 40px"";>&ensp;</p>","-","viewing","0","13","3A,5C,10B","","","","","","","","","","","","","","","","","","","",""
"","","","","","html-slider-response","38","1981138","0.0-17.0-1.7","b64673f3-59e6-410c-a8fe-c110dc52c879","2750","
                  <p style=""text-align: center;"">₪36
                                                <br>70%</p>
                  <p id=""wtp"" style=""text-align:center; margin-top: 0px; margin-bottom: 0px; font-size: 40px"";>מוכנים לשלם: <span id=""c_p_y""></span></p>","7","evaluation","9","13","3A,5C,10B","70","36","7","","","","","","","","","","","","","","","","",""
"","","","","","html-keyboard-response","39","1981710","0.0-17.0-2.7","b64673f3-59e6-410c-a8fe-c110dc52c879","null","<p style=""text-align: center;"">+</p>","null","fixation","","","","","","","","","","","","","","","","","","","","","","",""
"","","","","","html-slider-response","40","1982712","0.0-17.0-0.8","b64673f3-59e6-410c-a8fe-c110dc52c879","1000","
                  <p style=""text-align: center;"">₪79
                                                <br>65%</p>
                  <p id=""wtp"" style=""text-align:center; margin-top: 0px; margin-bottom: 0px; font-size: 40px"";>&ensp;</p>","-","viewing","0","31","8A","","","","","","","","","","","","","","","","","","","",""
"","","","","","html-slider-response","41","1983961","0.0-17.0-1.8","b64673f3-59e6-410c-a8fe-c110dc52c879","1248","
                  <p style=""text-align: center;"">₪79
                                                <br>65%</p>
                  <p id=""wtp"" style=""text-align:center; margin-top: 0px; margin-bottom: 0px; font-size: 40px"";>מוכנים לשלם: <span id=""c_p_y""></span></p>","27","evaluation","45","31","8A","65","79","27","","","","","","","","","","","","","","","","",""
"","","","","","html-keyboard-response","42","1984903","0.0-17.0-2.8","b64673f3-59e6-410c-a8fe-c110dc52c879","null","<p style=""text-align: center;"">+</p>","null","fixation","","","","","","","","","","","","","","","","","","","","","","",""
"","","","","","html-slider-response","43","1985915","0.0-17.0-0.9","b64673f3-59e6-410c-a8fe-c110dc52c879","1000","
                  <p style=""text-align: center;"">₪61
                                                <br>55%</p>
                  <p id=""wtp"" style=""text-align:center; margin-top: 0px; margin-bottom: 0px; font-size: 40px"";>&ensp;</p>","-","viewing","0","23","7B,26B","","","","","","","","","","","","","","","","","","","",""
"","","","","","html-slider-response","44","1987994","0.0-17.0-1.9","b64673f3-59e6-410c-a8fe-c110dc52c879","2078","
                  <p style=""text-align: center;"">₪61
                                                <br>55%</p>
                  <p id=""wtp"" style=""text-align:center; margin-top: 0px; margin-bottom: 0px; font-size: 40px"";>מוכנים לשלם: <span id=""c_p_y""></span></p>","13","evaluation","61","23","7B,26B","55","61","13","","","","","","","","","","","","","","","","",""
"","","","","","html-keyboard-response","45","1989442","0.0-17.0-2.9","b64673f3-59e6-410c-a8fe-c110dc52c879","null","<p style=""text-align: center;"">+</p>","null","fixation","","","","","","","","","","","","","","","","","","","","","","",""
"","","","","","html-slider-response","46","1990455","0.0-17.0-0.10","b64673f3-59e6-410c-a8fe-c110dc52c879","1000","
                  <p style=""text-align: center;"">₪11
                                                <br>45%</p>
                  <p id=""wtp"" style=""text-align:center; margin-top: 0px; margin-bottom: 0px; font-size: 40px"";>&ensp;</p>","-","viewing","0","6","14B,21C,25C","","","","","","","","","","","","","","","","","","","",""
"","","","","","html-slider-response","47","1991554","0.0-17.0-1.10","b64673f3-59e6-410c-a8fe-c110dc52c879","1098","
                  <p style=""text-align: center;"">₪11
                                                <br>45%</p>
                  <p id=""wtp"" style=""text-align:center; margin-top: 0px; margin-bottom: 0px; font-size: 40px"";>מוכנים לשלם: <span id=""c_p_y""></span></p>","0","evaluation","68","6","14B,21C,25C","45","11","0","","","","","","","","","","","","","","","","",""
"","","","","","html-keyboard-response","48","1992501","0.0-17.0-2.10","b64673f3-59e6-410c-a8fe-c110dc52c879","null","<p style=""text-align: center;"">+</p>","null","fixation","","","","","","","","","","","","","","","","","","","","","","",""
"","","","","","html-slider-response","49","1993503","0.0-17.0-0.11","b64673f3-59e6-410c-a8fe-c110dc52c879","1000","
                  <p style=""text-align: center;"">₪43
                                                <br>75%</p>
                  <p id=""wtp"" style=""text-align:center; margin-top: 0px; margin-bottom: 0px; font-size: 40px"";>&ensp;</p>","-","viewing","0","18","11B,19B,24A,26A","","","","","","","","","","","","","","","","","","","",""
"","","","","","html-slider-response","50","1994930","0.0-17.0-1.11","b64673f3-59e6-410c-a8fe-c110dc52c879","1425","
                  <p style=""text-align: center;"">₪43
                                                <br>75%</p>
                  <p id=""wtp"" style=""text-align:center; margin-top: 0px; margin-bottom: 0px; font-size: 40px"";>מוכנים לשלם: <span id=""c_p_y""></span></p>","5","evaluation","7","18","11B,19B,24A,26A","75","43","5","","","","","","","","","","","","","","","","",""
"","","","","","html-keyboard-response","51","1995803","0.0-17.0-2.11","b64673f3-59e6-410c-a8fe-c110dc52c879","null","<p style=""text-align: center;"">+</p>","null","fixation","","","","","","","","","","","","","","","","","","","","","","",""
"","","","","","html-slider-response","52","1996806","0.0-17.0-0.12","b64673f3-59e6-410c-a8fe-c110dc52c879","1000","
                  <p style=""text-align: center;"">₪11
                                                <br>20%</p>
                  <p id=""wtp"" style=""text-align:center; margin-top: 0px; margin-bottom: 0px; font-size: 40px"";>&ensp;</p>","-","viewing","0","4","12C,17C,23C,28C","","","","","","","","","","","","","","","","","","","",""
"","","","","","html-slider-response","53","1997690","0.0-17.0-1.12","b64673f3-59e6-410c-a8fe-c110dc52c879","883","
                  <p style=""text-align: center;"">₪11
                                                <br>20%</p>
                  <p id=""wtp"" style=""text-align:center; margin-top: 0px; margin-bottom: 0px; font-size: 40px"";>מוכנים לשלם: <span id=""c_p_y""></span></p>","1","evaluation","6","4","12C,17C,23C,28C","20","11","1","","","","","","","","","","","","","","","","",""
"","","","","","html-keyboard-response","54","1998648","0.0-17.0-2.12","b64673f3-59e6-410c-a8fe-c110dc52c879","null","<p style=""text-align: center;"">+</p>","null","fixation","","","","","","","","","","","","","","","","","","","","","","",""
"","","","","","html-slider-response","55","1999650","0.0-17.0-0.13","b64673f3-59e6-410c-a8fe-c110dc52c879","1000","
                  <p style=""text-align: center;"">₪18
                                                <br>50%</p>
                  <p id=""wtp"" style=""text-align:center; margin-top: 0px; margin-bottom: 0px; font-size: 40px"";>&ensp;</p>","-","viewing","0","10","2C,16C,22B,28A","","","","","","","","","","","","","","","","","","","",""
"","","","","","html-slider-response","56","2000985","0.0-17.0-1.13","b64673f3-59e6-410c-a8fe-c110dc52c879","1334","
                  <p style=""text-align: center;"">₪18
                                                <br>50%</p>
                  <p id=""wtp"" style=""text-align:center; margin-top: 0px; margin-bottom: 0px; font-size: 40px"";>מוכנים לשלם: <span id=""c_p_y""></span></p>","1","evaluation","36","10","2C,16C,22B,28A","50","18","1","","","","","","","","","","","","","","","","",""
"","","","","","html-keyboard-response","57","2001626","0.0-17.0-2.13","b64673f3-59e6-410c-a8fe-c110dc52c879","null","<p style=""text-align: center;"">+</p>","null","fixation","","","","","","","","","","","","","","","","","","","","","","",""
"","","","","","html-slider-response","58","2002627","0.0-17.0-0.14","b64673f3-59e6-410c-a8fe-c110dc52c879","1000","
                  <p style=""text-align: center;"">₪39
                                                <br>60%</p>
                  <p id=""wtp"" style=""text-align:center; margin-top: 0px; margin-bottom: 0px; font-size: 40px"";>&ensp;</p>","-","viewing","0","15","9C,25B","","","","","","","","","","","","","","","","","","","",""
"","","","","","html-slider-response","59","2003962","0.0-17.0-1.14","b64673f3-59e6-410c-a8fe-c110dc52c879","1333","
                  <p style=""text-align: center;"">₪39
                                                <br>60%</p>
                  <p id=""wtp"" style=""text-align:center; margin-top: 0px; margin-bottom: 0px; font-size: 40px"";>מוכנים לשלם: <span id=""c_p_y""></span></p>","4","evaluation","34","15","9C,25B","60","39","4","","","","","","","","","","","","","","","","",""
"","","","","","html-keyboard-response","60","2005279","0.0-17.0-2.14","b64673f3-59e6-410c-a8fe-c110dc52c879","null","<p style=""text-align: center;"">+</p>","null","fixation","","","","","","","","","","","","","","","","","","","","","","",""
"","","","","","html-slider-response","61","2006281","0.0-17.0-0.15","b64673f3-59e6-410c-a8fe-c110dc52c879","1000","
                  <p style=""text-align: center;"">₪16
                                                <br>20%</p>
                  <p id=""wtp"" style=""text-align:center; margin-top: 0px; margin-bottom: 0px; font-size: 40px"";>&ensp;</p>","-","viewing","0","8","14C,17A,20C,27A","","","","","","","","","","","","","","","","","","","",""
"","","","","","html-slider-response","62","2007354","0.0-17.0-1.15","b64673f3-59e6-410c-a8fe-c110dc52c879","1072","
                  <p style=""text-align: center;"">₪16
                                                <br>20%</p>
                  <p id=""wtp"" style=""text-align:center; margin-top: 0px; margin-bottom: 0px; font-size: 40px"";>מוכנים לשלם: <span id=""c_p_y""></span></p>","3","evaluation","60","8","14C,17A,20C,27A","20","16","3","","","","","","","","","","","","","","","","",""
"","","","","","html-keyboard-response","63","2007903","0.0-17.0-2.15","b64673f3-59e6-410c-a8fe-c110dc52c879","null","<p style=""text-align: center;"">+</p>","null","fixation","","","","","","","","","","","","","","","","","","","","","","",""
"","","","","","html-slider-response","64","2008915","0.0-17.0-0.16","b64673f3-59e6-410c-a8fe-c110dc52c879","1000","
                  <p style=""text-align: center;"">₪18
                                                <br>25%</p>
                  <p id=""wtp"" style=""text-align:center; margin-top: 0px; margin-bottom: 0px; font-size: 40px"";>&ensp;</p>","-","viewing","0","9","14A,23A","","","","","","","","","","","","","","","","","","","",""
"","","","","","html-slider-response","65","2010769","0.0-17.0-1.16","b64673f3-59e6-410c-a8fe-c110dc52c879","1853","
                  <p style=""text-align: center;"">₪18
                                                <br>25%</p>
                  <p id=""wtp"" style=""text-align:center; margin-top: 0px; margin-bottom: 0px; font-size: 40px"";>מוכנים לשלם: <span id=""c_p_y""></span></p>","0","evaluation","31","9","14A,23A","25","18","0","","","","","","","","","","","","","","","","",""
"","","","","","html-keyboard-response","66","2011398","0.0-17.0-2.16","b64673f3-59e6-410c-a8fe-c110dc52c879","null","<p style=""text-align: center;"">+</p>","null","fixation","","","","","","","","","","","","","","","","","","","","","","",""
"","","","","","html-slider-response","67","2012401","0.0-17.0-0.17","b64673f3-59e6-410c-a8fe-c110dc52c879","1000","
                  <p style=""text-align: center;"">₪79
                                                <br>40%</p>
                  <p id=""wtp"" style=""text-align:center; margin-top: 0px; margin-bottom: 0px; font-size: 40px"";>&ensp;</p>","-","viewing","0","30","9B","","","","","","","","","","","","","","","","","","","",""
"","","","","","html-slider-response","68","2014089","0.0-17.0-1.17","b64673f3-59e6-410c-a8fe-c110dc52c879","1687","
                  <p style=""text-align: center;"">₪79
                                                <br>40%</p>
                  <p id=""wtp"" style=""text-align:center; margin-top: 0px; margin-bottom: 0px; font-size: 40px"";>מוכנים לשלם: <span id=""c_p_y""></span></p>","8","evaluation","11","30","9B","40","79","8","","","","","","","","","","","","","","","","",""
"","","","","","html-keyboard-response","69","2015170","0.0-17.0-2.17","b64673f3-59e6-410c-a8fe-c110dc52c879","null","<p style=""text-align: center;"">+</p>","null","fixation","","","","","","","","","","","","","","","","","","","","","","",""
"","","","","","html-slider-response","70","2016177","0.0-17.0-0.18","b64673f3-59e6-410c-a8fe-c110dc52c879","1000","
                  <p style=""text-align: center;"">₪11
                                                <br>75%</p>
                  <p id=""wtp"" style=""text-align:center; margin-top: 0px; margin-bottom: 0px; font-size: 40px"";>&ensp;</p>","-","viewing","0","7","6B,18B,22C,24C,29A","","","","","","","","","","","","","","","","","","","",""
"","","","","","html-slider-response","71","2016849","0.0-17.0-1.18","b64673f3-59e6-410c-a8fe-c110dc52c879","672","
                  <p style=""text-align: center;"">₪11
                                                <br>75%</p>
                  <p id=""wtp"" style=""text-align:center; margin-top: 0px; margin-bottom: 0px; font-size: 40px"";>מוכנים לשלם: <span id=""c_p_y""></span></p>","0","evaluation","58","7","6B,18B,22C,24C,29A","75","11","0","","","","","","","","","","","","","","","","",""
"","","","","","html-keyboard-response","72","2018130","0.0-17.0-2.18","b64673f3-59e6-410c-a8fe-c110dc52c879","null","<p style=""text-align: center;"">+</p>","null","fixation","","","","","","","","","","","","","","","","","","","","","","",""
"","","","","","html-slider-response","73","2019133","0.0-17.0-0.19","b64673f3-59e6-410c-a8fe-c110dc52c879","1000","
                  <p style=""text-align: center;"">₪36
                                                <br>60%</p>
                  <p id=""wtp"" style=""text-align:center; margin-top: 0px; margin-bottom: 0px; font-size: 40px"";>&ensp;</p>","-","viewing","0","12","1C,7C,15C","","","","","","","","","","","","","","","","","","","",""
"","","","","","html-slider-response","74","2020945","0.0-17.0-1.19","b64673f3-59e6-410c-a8fe-c110dc52c879","1812","
                  <p style=""text-align: center;"">₪36
                                                <br>60%</p>
                  <p id=""wtp"" style=""text-align:center; margin-top: 0px; margin-bottom: 0px; font-size: 40px"";>מוכנים לשלם: <span id=""c_p_y""></span></p>","10","evaluation","21","12","1C,7C,15C","60","36","10","","","","","","","","","","","","","","","","",""
"","","","","","html-keyboard-response","75","2022060","0.0-17.0-2.19","b64673f3-59e6-410c-a8fe-c110dc52c879","null","<p style=""text-align: center;"">+</p>","null","fixation","","","","","","","","","","","","","","","","","","","","","","",""
"","","","","","html-slider-response","76","2023074","0.0-17.0-0.20","b64673f3-59e6-410c-a8fe-c110dc52c879","1000","
                  <p style=""text-align: center;"">₪58
                                                <br>45%</p>
                  <p id=""wtp"" style=""text-align:center; margin-top: 0px; margin-bottom: 0px; font-size: 40px"";>&ensp;</p>","-","viewing","0","21","11C,18C,25A","","","","","","","","","","","","","","","","","","","",""
"","","","","","html-slider-response","77","2025305","0.0-17.0-1.20","b64673f3-59e6-410c-a8fe-c110dc52c879","2230","
                  <p style=""text-align: center;"">₪58
                                                <br>45%</p>
                  <p id=""wtp"" style=""text-align:center; margin-top: 0px; margin-bottom: 0px; font-size: 40px"";>מוכנים לשלם: <span id=""c_p_y""></span></p>","20","evaluation","26","21","11C,18C,25A","45","58","20","","","","","","","","","","","","","","","","",""
"","","","","","html-keyboard-response","78","2026489","0.0-17.0-2.20","b64673f3-59e6-410c-a8fe-c110dc52c879","null","<p style=""text-align: center;"">+</p>","null","fixation","","","","","","","","","","","","","","","","","","","","","","",""
"","","","","","html-slider-response","79","2027505","0.0-17.0-0.21","b64673f3-59e6-410c-a8fe-c110dc52c879","1000","
                  <p style=""text-align: center;"">₪71
                                                <br>45%</p>
                  <p id=""wtp"" style=""text-align:center; margin-top: 0px; margin-bottom: 0px; font-size: 40px"";>&ensp;</p>","-","viewing","0","26","2B,16A","","","","","","","","","","","","","","","","","","","",""
"","","","","","html-slider-response","80","2028513","0.0-17.0-1.21","b64673f3-59e6-410c-a8fe-c110dc52c879","1007","
                  <p style=""text-align: center;"">₪71
                                                <br>45%</p>
                  <p id=""wtp"" style=""text-align:center; margin-top: 0px; margin-bottom: 0px; font-size: 40px"";>מוכנים לשלם: <span id=""c_p_y""></span></p>","10","evaluation","67","26","2B,16A","45","71","10","","","","","","","","","","","","","","","","",""
"","","","","","html-keyboard-response","81","2029755","0.0-17.0-2.21","b64673f3-59e6-410c-a8fe-c110dc52c879","null","<p style=""text-align: center;"">+</p>","null","fixation","","","","","","","","","","","","","","","","","","","","","","",""
"","","","","","html-slider-response","82","2030757","0.0-17.0-0.22","b64673f3-59e6-410c-a8fe-c110dc52c879","1000","
                  <p style=""text-align: center;"">₪36
                                                <br>30%</p>
                  <p id=""wtp"" style=""text-align:center; margin-top: 0px; margin-bottom: 0px; font-size: 40px"";>&ensp;</p>","-","viewing","0","11","3C,20A,22A","","","","","","","","","","","","","","","","","","","",""
"","","","","","html-slider-response","83","2032081","0.0-17.0-1.22","b64673f3-59e6-410c-a8fe-c110dc52c879","1323","
                  <p style=""text-align: center;"">₪36
                                                <br>30%</p>
                  <p id=""wtp"" style=""text-align:center; margin-top: 0px; margin-bottom: 0px; font-size: 40px"";>מוכנים לשלם: <span id=""c_p_y""></span></p>","9","evaluation","38","11","3C,20A,22A","30","36","9","","","","","","","","","","","","","","","","",""
"","","","","","html-keyboard-response","84","2032785","0.0-17.0-2.22","b64673f3-59e6-410c-a8fe-c110dc52c879","null","<p style=""text-align: center;"">+</p>","null","fixation","","","","","","","","","","","","","","","","","","","","","","",""
"","","","","","html-slider-response","85","2033787","0.0-17.0-0.23","b64673f3-59e6-410c-a8fe-c110dc52c879","1000","
                  <p style=""text-align: center;"">₪11
                                                <br>25%</p>
                  <p id=""wtp"" style=""text-align:center; margin-top: 0px; margin-bottom: 0px; font-size: 40px"";>&ensp;</p>","-","viewing","0","5","12A,27B,28B,30B","","","","","","","","","","","","","","","","","","","",""
"","","","","","html-slider-response","86","2034657","0.0-17.0-1.23","b64673f3-59e6-410c-a8fe-c110dc52c879","869","
                  <p style=""text-align: center;"">₪11
                                                <br>25%</p>
                  <p id=""wtp"" style=""text-align:center; margin-top: 0px; margin-bottom: 0px; font-size: 40px"";>מוכנים לשלם: <span id=""c_p_y""></span></p>","0","evaluation","14","5","12A,27B,28B,30B","25","11","0","","","","","","","","","","","","","","","","",""
"","","","","","html-keyboard-response","87","2035723","0.0-17.0-2.23","b64673f3-59e6-410c-a8fe-c110dc52c879","null","<p style=""text-align: center;"">+</p>","null","fixation","","","","","","","","","","","","","","","","","","","","","","",""
"","","","","","html-slider-response","88","2036732","0.0-17.0-0.24","b64673f3-59e6-410c-a8fe-c110dc52c879","1000","
                  <p style=""text-align: center;"">₪64
                                                <br>25%</p>
                  <p id=""wtp"" style=""text-align:center; margin-top: 0px; margin-bottom: 0px; font-size: 40px"";>&ensp;</p>","-","viewing","0","24","6A,21A","","","","","","","","","","","","","","","","","","","",""
"","","","","","html-slider-response","89","2038257","0.0-17.0-1.24","b64673f3-59e6-410c-a8fe-c110dc52c879","1524","
                  <p style=""text-align: center;"">₪64
                                                <br>25%</p>
                  <p id=""wtp"" style=""text-align:center; margin-top: 0px; margin-bottom: 0px; font-size: 40px"";>מוכנים לשלם: <span id=""c_p_y""></span></p>","13","evaluation","65","24","6A,21A","25","64","13","","","","","","","","","","","","","","","","",""
"","","","","","html-keyboard-response","90","2039729","0.0-17.0-2.24","b64673f3-59e6-410c-a8fe-c110dc52c879","null","<p style=""text-align: center;"">+</p>","null","fixation","","","","","","","","","","","","","","","","","","","","","","",""
"","","","","","html-slider-response","91","2040731","0.0-17.0-0.25","b64673f3-59e6-410c-a8fe-c110dc52c879","1000","
                  <p style=""text-align: center;"">₪71
                                                <br>75%</p>
                  <p id=""wtp"" style=""text-align:center; margin-top: 0px; margin-bottom: 0px; font-size: 40px"";>&ensp;</p>","-","viewing","0","28","8B","","","","","","","","","","","","","","","","","","","",""
"","","","","","html-slider-response","92","2042945","0.0-17.0-1.25","b64673f3-59e6-410c-a8fe-c110dc52c879","2214","
                  <p style=""text-align: center;"">₪71
                                                <br>75%</p>
                  <p id=""wtp"" style=""text-align:center; margin-top: 0px; margin-bottom: 0px; font-size: 40px"";>מוכנים לשלם: <span id=""c_p_y""></span></p>","15","evaluation","30","28","8B","75","71","15","","","","","","","","","","","","","","","","",""
"","","","","","html-keyboard-response","93","2043946","0.0-17.0-2.25","b64673f3-59e6-410c-a8fe-c110dc52c879","null","<p style=""text-align: center;"">+</p>","null","fixation","","","","","","","","","","","","","","","","","","","","","","",""
"","","","","","html-slider-response","94","2044947","0.0-17.0-0.26","b64673f3-59e6-410c-a8fe-c110dc52c879","1000","
                  <p style=""text-align: center;"">₪39
                                                <br>65%</p>
                  <p id=""wtp"" style=""text-align:center; margin-top: 0px; margin-bottom: 0px; font-size: 40px"";>&ensp;</p>","-","viewing","0","16","1A,15A,26C","","","","","","","","","","","","","","","","","","","",""
"","","","","","html-slider-response","95","2046025","0.0-17.0-1.26","b64673f3-59e6-410c-a8fe-c110dc52c879","1077","
                  <p style=""text-align: center;"">₪39
                                                <br>65%</p>
                  <p id=""wtp"" style=""text-align:center; margin-top: 0px; margin-bottom: 0px; font-size: 40px"";>מוכנים לשלם: <span id=""c_p_y""></span></p>","9","evaluation","25","16","1A,15A,26C","65","39","9","","","","","","","","","","","","","","","","",""
"","","","","","html-keyboard-response","96","2046938","0.0-17.0-2.26","b64673f3-59e6-410c-a8fe-c110dc52c879","null","<p style=""text-align: center;"">+</p>","null","fixation","","","","","","","","","","","","","","","","","","","","","","",""
"","","","","","html-slider-response","97","2047946","0.0-17.0-0.27","b64673f3-59e6-410c-a8fe-c110dc52c879","1000","
                  <p style=""text-align: center;"">₪64
                                                <br>50%</p>
                  <p id=""wtp"" style=""text-align:center; margin-top: 0px; margin-bottom: 0px; font-size: 40px"";>&ensp;</p>","-","viewing","0","25","1B,3B,4A","","","","","","","","","","","","","","","","","","","",""
"","","","","","html-slider-response","98","2049561","0.0-17.0-1.27","b64673f3-59e6-410c-a8fe-c110dc52c879","1614","
                  <p style=""text-align: center;"">₪64
                                                <br>50%</p>
                  <p id=""wtp"" style=""text-align:center; margin-top: 0px; margin-bottom: 0px; font-size: 40px"";>מוכנים לשלם: <span id=""c_p_y""></span></p>","13","evaluation","70","25","1B,3B,4A","50","64","13","","","","","","","","","","","","","","","","",""
"","","","","","html-keyboard-response","99","2050262","0.0-17.0-2.27","b64673f3-59e6-410c-a8fe-c110dc52c879","null","<p style=""text-align: center;"">+</p>","null","fixation","","","","","","","","","","","","","","","","","","","","","","",""
"","","","","","html-slider-response","100","2051272","0.0-17.0-0.28","b64673f3-59e6-410c-a8fe-c110dc52c879","1000","
                  <p style=""text-align: center;"">₪58
                                                <br>30%</p>
                  <p id=""wtp"" style=""text-align:center; margin-top: 0px; margin-bottom: 0px; font-size: 40px"";>&ensp;</p>","-","viewing","0","19","13C,30A","","","","","","","","","","","","","","","","","","","",""
"","","","","","html-slider-response","101","2052585","0.0-17.0-1.28","b64673f3-59e6-410c-a8fe-c110dc52c879","1313","
                  <p style=""text-align: center;"">₪58
                                                <br>30%</p>
                  <p id=""wtp"" style=""text-align:center; margin-top: 0px; margin-bottom: 0px; font-size: 40px"";>מוכנים לשלם: <span id=""c_p_y""></span></p>","3","evaluation","42","19","13C,30A","30","58","3","","","","","","","","","","","","","","","","",""
"","","","","","html-keyboard-response","102","2053154","0.0-17.0-2.28","b64673f3-59e6-410c-a8fe-c110dc52c879","null","<p style=""text-align: center;"">+</p>","null","fixation","","","","","","","","","","","","","","","","","","","","","","",""
"","","","","","html-slider-response","103","2054169","0.0-17.0-0.29","b64673f3-59e6-410c-a8fe-c110dc52c879","1000","
                  <p style=""text-align: center;"">₪71
                                                <br>55%</p>
                  <p id=""wtp"" style=""text-align:center; margin-top: 0px; margin-bottom: 0px; font-size: 40px"";>&ensp;</p>","-","viewing","0","27","5B,18A","","","","","","","","","","","","","","","","","","","",""
"","","","","","html-slider-response","104","2055497","0.0-17.0-1.29","b64673f3-59e6-410c-a8fe-c110dc52c879","1327","
                  <p style=""text-align: center;"">₪71
                                                <br>55%</p>
                  <p id=""wtp"" style=""text-align:center; margin-top: 0px; margin-bottom: 0px; font-size: 40px"";>מוכנים לשלם: <span id=""c_p_y""></span></p>","10","evaluation","34","27","5B,18A","55","71","10","","","","","","","","","","","","","","","","",""
"","","","","","html-keyboard-response","105","2056387","0.0-17.0-2.29","b64673f3-59e6-410c-a8fe-c110dc52c879","null","<p style=""text-align: center;"">+</p>","null","fixation","","","","","","","","","","","","","","","","","","","","","","",""
"","","","","","html-slider-response","106","2057402","0.0-17.0-0.30","b64673f3-59e6-410c-a8fe-c110dc52c879","1000","
                  <p style=""text-align: center;"">₪4
                                                <br>75%</p>
                  <p id=""wtp"" style=""text-align:center; margin-top: 0px; margin-bottom: 0px; font-size: 40px"";>&ensp;</p>","-","viewing","0","3","12B,20B,23B,27C,29C","","","","","","","","","","","","","","","","","","","",""
"","","","","","html-slider-response","107","2057993","0.0-17.0-1.30","b64673f3-59e6-410c-a8fe-c110dc52c879","590","
                  <p style=""text-align: center;"">₪4
                                                <br>75%</p>
                  <p id=""wtp"" style=""text-align:center; margin-top: 0px; margin-bottom: 0px; font-size: 40px"";>מוכנים לשלם: <span id=""c_p_y""></span></p>","0","evaluation","40","3","12B,20B,23B,27C,29C","75","4","0","","","","","","","","","","","","","","","","",""
"","","","","","html-keyboard-response","108","2059117","0.0-17.0-2.30","b64673f3-59e6-410c-a8fe-c110dc52c879","null","<p style=""text-align: center;"">+</p>","null","fixation","","","","","","","","","","","","","","","","","","","","","","",""
"","","","","","html-keyboard-response","109","2060131","0.0-18.0","b64673f3-59e6-410c-a8fe-c110dc52c879","null","<p style=""text-align: center;"">+</p>","null","fixation","","","","","","","","","","","","","","","","","","","","","","",""
"","","","","","html-keyboard-response","110","2061481","0.0-19.0","b64673f3-59e6-410c-a8fe-c110dc52c879","null","<p>הפסקה.
          <br>לחצו כדי להמשיך.</p>","1","scan_wait","","","","","","","","","","","","","","","","","","","","","","",""
"","","","","","html-keyboard-response","111","2062485","0.0-20.0","b64673f3-59e6-410c-a8fe-c110dc52c879","null","<p style=""text-align: center;"">+</p>","null","fixation","","","","","","","","","","","","","","","","","","","","","","",""
"","","","","","html-slider-response","112","2063493","0.0-21.0-0.0","b64673f3-59e6-410c-a8fe-c110dc52c879","1000","
                  <p style=""text-align: center;"">₪71
                                                <br>75%</p>
                  <p id=""wtp"" style=""text-align:center; margin-top: 0px; margin-bottom: 0px; font-size: 40px"";>&ensp;</p>","-","viewing","0","28","8B","","","","","","","","","","","","","","","","","","","",""
"","","","","","html-slider-response","113","2064521","0.0-21.0-1.0","b64673f3-59e6-410c-a8fe-c110dc52c879","1028","
                  <p style=""text-align: center;"">₪71
                                                <br>75%</p>
                  <p id=""wtp"" style=""text-align:center; margin-top: 0px; margin-bottom: 0px; font-size: 40px"";>מוכנים לשלם: <span id=""c_p_y""></span></p>","21","evaluation","1","28","8B","75","71","21","","","","","","","","","","","","","","","","",""
"","","","","","html-keyboard-response","114","2065585","0.0-21.0-2.0","b64673f3-59e6-410c-a8fe-c110dc52c879","null","<p style=""text-align: center;"">+</p>","null","fixation","","","","","","","","","","","","","","","","","","","","","","",""
"","","","","","html-slider-response","115","2066602","0.0-21.0-0.1","b64673f3-59e6-410c-a8fe-c110dc52c879","1000","
                  <p style=""text-align: center;"">₪58
                                                <br>40%</p>
                  <p id=""wtp"" style=""text-align:center; margin-top: 0px; margin-bottom: 0px; font-size: 40px"";>&ensp;</p>","-","viewing","0","20","10C,13A,19C,21B","","","","","","","","","","","","","","","","","","","",""
"","","","","","html-slider-response","116","2067801","0.0-21.0-1.1","b64673f3-59e6-410c-a8fe-c110dc52c879","1198","
                  <p style=""text-align: center;"">₪58
                                                <br>40%</p>
                  <p id=""wtp"" style=""text-align:center; margin-top: 0px; margin-bottom: 0px; font-size: 40px"";>מוכנים לשלם: <span id=""c_p_y""></span></p>","16","evaluation","23","20","10C,13A,19C,21B","40","58","16","","","","","","","","","","","","","","","","",""
"","","","","","html-keyboard-response","117","2068330","0.0-21.0-2.1","b64673f3-59e6-410c-a8fe-c110dc52c879","null","<p style=""text-align: center;"">+</p>","null","fixation","","","","","","","","","","","","","","","","","","","","","","",""
"","","","","","html-slider-response","118","2069337","0.0-21.0-0.2","b64673f3-59e6-410c-a8fe-c110dc52c879","1000","
                  <p style=""text-align: center;"">₪43
                                                <br>60%</p>
                  <p id=""wtp"" style=""text-align:center; margin-top: 0px; margin-bottom: 0px; font-size: 40px"";>&ensp;</p>","-","viewing","0","17","2A,7A,9A,15B","","","","","","","","","","","","","","","","","","","",""
"","","","","","html-slider-response","119","2070377","0.0-21.0-1.2","b64673f3-59e6-410c-a8fe-c110dc52c879","1039","
                  <p style=""text-align: center;"">₪43
                                                <br>60%</p>
                  <p id=""wtp"" style=""text-align:center; margin-top: 0px; margin-bottom: 0px; font-size: 40px"";>מוכנים לשלם: <span id=""c_p_y""></span></p>","11","evaluation","48","17","2A,7A,9A,15B","60","43","11","","","","","","","","","","","","","","","","",""
"","","","","","html-keyboard-response","120","2071393","0.0-21.0-2.2","b64673f3-59e6-410c-a8fe-c110dc52c879","null","<p style=""text-align: center;"">+</p>","null","fixation","","","","","","","","","","","","","","","","","","","","","","",""
"","","","","","html-slider-response","121","2072401","0.0-21.0-0.3","b64673f3-59e6-410c-a8fe-c110dc52c879","1000","
                  <p style=""text-align: center;"">₪11
                                                <br>45%</p>
                  <p id=""wtp"" style=""text-align:center; margin-top: 0px; margin-bottom: 0px; font-size: 40px"";>&ensp;</p>","-","viewing","0","6","14B,21C,25C","","","","","","","","","","","","","","","","","","","",""
"","","","","","html-slider-response","122","2073105","0.0-21.0-1.3","b64673f3-59e6-410c-a8fe-c110dc52c879","703","
                  <p style=""text-align: center;"">₪11
                                                <br>45%</p>
                  <p id=""wtp"" style=""text-align:center; margin-top: 0px; margin-bottom: 0px; font-size: 40px"";>מוכנים לשלם: <span id=""c_p_y""></span></p>","0","evaluation","63","6","14B,21C,25C","45","11","0","","","","","","","","","","","","","","","","",""
"","","","","","html-keyboard-response","123","2074366","0.0-21.0-2.3","b64673f3-59e6-410c-a8fe-c110dc52c879","null","<p style=""text-align: center;"">+</p>","null","fixation","","","","","","","","","","","","","","","","","","","","","","",""
"","","","","","html-slider-response","124","2075368","0.0-21.0-0.4","b64673f3-59e6-410c-a8fe-c110dc52c879","1000","
                  <p style=""text-align: center;"">₪36
                                                <br>70%</p>
                  <p id=""wtp"" style=""text-align:center; margin-top: 0px; margin-bottom: 0px; font-size: 40px"";>&ensp;</p>","-","viewing","0","13","3A,5C,10B","","","","","","","","","","","","","","","","","","","",""
"","","","","","html-slider-response","125","2077145","0.0-21.0-1.4","b64673f3-59e6-410c-a8fe-c110dc52c879","1776","
                  <p style=""text-align: center;"">₪36
                                                <br>70%</p>
                  <p id=""wtp"" style=""text-align:center; margin-top: 0px; margin-bottom: 0px; font-size: 40px"";>מוכנים לשלם: <span id=""c_p_y""></span></p>","4","evaluation","40","13","3A,5C,10B","70","36","4","","","","","","","","","","","","","","","","",""
"","","","","","html-keyboard-response","126","2078621","0.0-21.0-2.4","b64673f3-59e6-410c-a8fe-c110dc52c879","null","<p style=""text-align: center;"">+</p>","null","fixation","","","","","","","","","","","","","","","","","","","","","","",""
"","","","","","html-slider-response","127","2079626","0.0-21.0-0.5","b64673f3-59e6-410c-a8fe-c110dc52c879","1000","
                  <p style=""text-align: center;"">₪43
                                                <br>75%</p>
                  <p id=""wtp"" style=""text-align:center; margin-top: 0px; margin-bottom: 0px; font-size: 40px"";>&ensp;</p>","-","viewing","0","18","11B,19B,24A,26A","","","","","","","","","","","","","","","","","","","",""
"","","","","","html-slider-response","128","2080849","0.0-21.0-1.5","b64673f3-59e6-410c-a8fe-c110dc52c879","1223","
                  <p style=""text-align: center;"">₪43
                                                <br>75%</p>
                  <p id=""wtp"" style=""text-align:center; margin-top: 0px; margin-bottom: 0px; font-size: 40px"";>מוכנים לשלם: <span id=""c_p_y""></span></p>","10","evaluation","57","18","11B,19B,24A,26A","75","43","10","","","","","","","","","","","","","","","","",""
"","","","","","html-keyboard-response","129","2081711","0.0-21.0-2.5","b64673f3-59e6-410c-a8fe-c110dc52c879","null","<p style=""text-align: center;"">+</p>","null","fixation","","","","","","","","","","","","","","","","","","","","","","",""
"","","","","","html-slider-response","130","2082724","0.0-21.0-0.6","b64673f3-59e6-410c-a8fe-c110dc52c879","1000","
                  <p style=""text-align: center;"">₪11
                                                <br>25%</p>
                  <p id=""wtp"" style=""text-align:center; margin-top: 0px; margin-bottom: 0px; font-size: 40px"";>&ensp;</p>","-","viewing","0","5","12A,27B,28B,30B","","","","","","","","","","","","","","","","","","","",""
"","","","","","html-slider-response","131","2083825","0.0-21.0-1.6","b64673f3-59e6-410c-a8fe-c110dc52c879","1100","
                  <p style=""text-align: center;"">₪11
                                                <br>25%</p>
                  <p id=""wtp"" style=""text-align:center; margin-top: 0px; margin-bottom: 0px; font-size: 40px"";>מוכנים לשלם: <span id=""c_p_y""></span></p>","0","evaluation","29","5","12A,27B,28B,30B","25","11","0","","","","","","","","","","","","","","","","",""
"","","","","","html-keyboard-response","132","2084386","0.0-21.0-2.6","b64673f3-59e6-410c-a8fe-c110dc52c879","null","<p style=""text-align: center;"">+</p>","null","fixation","","","","","","","","","","","","","","","","","","","","","","",""
"","","","","","html-slider-response","133","2085394","0.0-21.0-0.7","b64673f3-59e6-410c-a8fe-c110dc52c879","1000","
                  <p style=""text-align: center;"">₪11
                                                <br>75%</p>
                  <p id=""wtp"" style=""text-align:center; margin-top: 0px; margin-bottom: 0px; font-size: 40px"";>&ensp;</p>","-","viewing","0","7","6B,18B,22C,24C,29A","","","","","","","","","","","","","","","","","","","",""
"","","","","","html-slider-response","134","2087082","0.0-21.0-1.7","b64673f3-59e6-410c-a8fe-c110dc52c879","1686","
                  <p style=""text-align: center;"">₪11
                                                <br>75%</p>
                  <p id=""wtp"" style=""text-align:center; margin-top: 0px; margin-bottom: 0px; font-size: 40px"";>מוכנים לשלם: <span id=""c_p_y""></span></p>","0","evaluation","56","7","6B,18B,22C,24C,29A","75","11","0","","","","","","","","","","","","","","","","",""
"","","","","","html-keyboard-response","135","2087803","0.0-21.0-2.7","b64673f3-59e6-410c-a8fe-c110dc52c879","null","<p style=""text-align: center;"">+</p>","null","fixation","","","","","","","","","","","","","","","","","","","","","","",""
"","","","","","html-slider-response","136","2088817","0.0-21.0-0.8","b64673f3-59e6-410c-a8fe-c110dc52c879","1000","
                  <p style=""text-align: center;"">₪64
                                                <br>50%</p>
                  <p id=""wtp"" style=""text-align:center; margin-top: 0px; margin-bottom: 0px; font-size: 40px"";>&ensp;</p>","-","viewing","0","25","1B,3B,4A","","","","","","","","","","","","","","","","","","","",""
"","","","","","html-slider-response","137","2090761","0.0-21.0-1.8","b64673f3-59e6-410c-a8fe-c110dc52c879","1944","
                  <p style=""text-align: center;"">₪64
                                                <br>50%</p>
                  <p id=""wtp"" style=""text-align:center; margin-top: 0px; margin-bottom: 0px; font-size: 40px"";>מוכנים לשלם: <span id=""c_p_y""></span></p>","14","evaluation","41","25","1B,3B,4A","50","64","14","","","","","","","","","","","","","","","","",""
"","","","","","html-keyboard-response","138","2092120","0.0-21.0-2.8","b64673f3-59e6-410c-a8fe-c110dc52c879","null","<p style=""text-align: center;"">+</p>","null","fixation","","","","","","","","","","","","","","","","","","","","","","",""
"","","","","","html-slider-response","139","2093121","0.0-21.0-0.9","b64673f3-59e6-410c-a8fe-c110dc52c879","1000","
                  <p style=""text-align: center;"">₪18
                                                <br>25%</p>
                  <p id=""wtp"" style=""text-align:center; margin-top: 0px; margin-bottom: 0px; font-size: 40px"";>&ensp;</p>","-","viewing","0","9","14A,23A","","","","","","","","","","","","","","","","","","","",""
"","","","","","html-slider-response","140","2093953","0.0-21.0-1.9","b64673f3-59e6-410c-a8fe-c110dc52c879","832","
                  <p style=""text-align: center;"">₪18
                                                <br>25%</p>
                  <p id=""wtp"" style=""text-align:center; margin-top: 0px; margin-bottom: 0px; font-size: 40px"";>מוכנים לשלם: <span id=""c_p_y""></span></p>","0","evaluation","80","9","14A,23A","25","18","0","","","","","","","","","","","","","","","","",""
"","","","","","html-keyboard-response","141","2095281","0.0-21.0-2.9","b64673f3-59e6-410c-a8fe-c110dc52c879","null","<p style=""text-align: center;"">+</p>","null","fixation","","","","","","","","","","","","","","","","","","","","","","",""
"","","","","","html-slider-response","142","2096282","0.0-21.0-0.10","b64673f3-59e6-410c-a8fe-c110dc52c879","1000","
                  <p style=""text-align: center;"">₪36
                                                <br>60%</p>
                  <p id=""wtp"" style=""text-align:center; margin-top: 0px; margin-bottom: 0px; font-size: 40px"";>&ensp;</p>","-","viewing","0","12","1C,7C,15C","","","","","","","","","","","","","","","","","","","",""
"","","","","","html-slider-response","143","2097281","0.0-21.0-1.10","b64673f3-59e6-410c-a8fe-c110dc52c879","998","
                  <p style=""text-align: center;"">₪36
                                                <br>60%</p>
                  <p id=""wtp"" style=""text-align:center; margin-top: 0px; margin-bottom: 0px; font-size: 40px"";>מוכנים לשלם: <span id=""c_p_y""></span></p>","14","evaluation","49","12","1C,7C,15C","60","36","14","","","","","","","","","","","","","","","","",""
"","","","","","html-keyboard-response","144","2098046","0.0-21.0-2.10","b64673f3-59e6-410c-a8fe-c110dc52c879","null","<p style=""text-align: center;"">+</p>","null","fixation","","","","","","","","","","","","","","","","","","","","","","",""
"","","","","","html-slider-response","145","2099051","0.0-21.0-0.11","b64673f3-59e6-410c-a8fe-c110dc52c879","1000","
                  <p style=""text-align: center;"">₪39
                                                <br>60%</p>
                  <p id=""wtp"" style=""text-align:center; margin-top: 0px; margin-bottom: 0px; font-size: 40px"";>&ensp;</p>","-","viewing","0","15","9C,25B","","","","","","","","","","","","","","","","","","","",""
"","","","","","html-slider-response","146","2100337","0.0-21.0-1.11","b64673f3-59e6-410c-a8fe-c110dc52c879","1282","
                  <p style=""text-align: center;"">₪39
                                                <br>60%</p>
                  <p id=""wtp"" style=""text-align:center; margin-top: 0px; margin-bottom: 0px; font-size: 40px"";>מוכנים לשלם: <span id=""c_p_y""></span></p>","11","evaluation","6","15","9C,25B","60","39","11","","","","","","","","","","","","","","","","",""
"","","","","","html-keyboard-response","147","2101180","0.0-21.0-2.11","b64673f3-59e6-410c-a8fe-c110dc52c879","null","<p style=""text-align: center;"">+</p>","null","fixation","","","","","","","","","","","","","","","","","","","","","","",""
"","","","","","html-slider-response","148","2102184","0.0-21.0-0.12","b64673f3-59e6-410c-a8fe-c110dc52c879","1000","
                  <p style=""text-align: center;"">₪16
                                                <br>20%</p>
                  <p id=""wtp"" style=""text-align:center; margin-top: 0px; margin-bottom: 0px; font-size: 40px"";>&ensp;</p>","-","viewing","0","8","14C,17A,20C,27A","","","","","","","","","","","","","","","","","","","",""
"","","","","","html-slider-response","149","2102985","0.0-21.0-1.12","b64673f3-59e6-410c-a8fe-c110dc52c879","800","
                  <p style=""text-align: center;"">₪16
                                                <br>20%</p>
                  <p id=""wtp"" style=""text-align:center; margin-top: 0px; margin-bottom: 0px; font-size: 40px"";>מוכנים לשלם: <span id=""c_p_y""></span></p>","5","evaluation","34","8","14C,17A,20C,27A","20","16","6","","","","","","","","","","","","","","","","",""
"","","","","","html-keyboard-response","150","2103630","0.0-21.0-2.12","b64673f3-59e6-410c-a8fe-c110dc52c879","null","<p style=""text-align: center;"">+</p>","null","fixation","","","","","","","","","","","","","","","","","","","","","","",""
"","","","","","html-slider-response","151","2104631","0.0-21.0-0.13","b64673f3-59e6-410c-a8fe-c110dc52c879","1000","
                  <p style=""text-align: center;"">₪71
                                                <br>45%</p>
                  <p id=""wtp"" style=""text-align:center; margin-top: 0px; margin-bottom: 0px; font-size: 40px"";>&ensp;</p>","-","viewing","0","26","2B,16A","","","","","","","","","","","","","","","","","","","",""
"","","","","","html-slider-response","152","2105793","0.0-21.0-1.13","b64673f3-59e6-410c-a8fe-c110dc52c879","1161","
                  <p style=""text-align: center;"">₪71
                                                <br>45%</p>
                  <p id=""wtp"" style=""text-align:center; margin-top: 0px; margin-bottom: 0px; font-size: 40px"";>מוכנים לשלם: <span id=""c_p_y""></span></p>","15","evaluation","51","26","2B,16A","45","71","16","","","","","","","","","","","","","","","","",""
"","","","","","html-keyboard-response","153","2106316","0.0-21.0-2.13","b64673f3-59e6-410c-a8fe-c110dc52c879","null","<p style=""text-align: center;"">+</p>","null","fixation","","","","","","","","","","","","","","","","","","","","","","",""
"","","","","","html-slider-response","154","2107320","0.0-21.0-0.14","b64673f3-59e6-410c-a8fe-c110dc52c879","1000","
                  <p style=""text-align: center;"">₪58
                                                <br>30%</p>
                  <p id=""wtp"" style=""text-align:center; margin-top: 0px; margin-bottom: 0px; font-size: 40px"";>&ensp;</p>","-","viewing","0","19","13C,30A","","","","","","","","","","","","","","","","","","","",""
"","","","","","html-slider-response","155","2108873","0.0-21.0-1.14","b64673f3-59e6-410c-a8fe-c110dc52c879","1553","
                  <p style=""text-align: center;"">₪58
                                                <br>30%</p>
                  <p id=""wtp"" style=""text-align:center; margin-top: 0px; margin-bottom: 0px; font-size: 40px"";>מוכנים לשלם: <span id=""c_p_y""></span></p>","2","evaluation","1","19","13C,30A","30","58","2","","","","","","","","","","","","","","","","",""
"","","","","","html-keyboard-response","156","2109989","0.0-21.0-2.14","b64673f3-59e6-410c-a8fe-c110dc52c879","null","<p style=""text-align: center;"">+</p>","null","fixation","","","","","","","","","","","","","","","","","","","","","","",""
"","","","","","html-slider-response","157","2110991","0.0-21.0-0.15","b64673f3-59e6-410c-a8fe-c110dc52c879","1000","
                  <p style=""text-align: center;"">₪36
                                                <br>75%</p>
                  <p id=""wtp"" style=""text-align:center; margin-top: 0px; margin-bottom: 0px; font-size: 40px"";>&ensp;</p>","-","viewing","0","14","4B,5A,13B,16B","","","","","","","","","","","","","","","","","","","",""
"","","","","","html-slider-response","158","2112001","0.0-21.0-1.15","b64673f3-59e6-410c-a8fe-c110dc52c879","1008","
                  <p style=""text-align: center;"">₪36
                                                <br>75%</p>
                  <p id=""wtp"" style=""text-align:center; margin-top: 0px; margin-bottom: 0px; font-size: 40px"";>מוכנים לשלם: <span id=""c_p_y""></span></p>","5","evaluation","62","14","4B,5A,13B,16B","75","36","5","","","","","","","","","","","","","","","","",""
"","","","","","html-keyboard-response","159","2112758","0.0-21.0-2.15","b64673f3-59e6-410c-a8fe-c110dc52c879","null","<p style=""text-align: center;"">+</p>","null","fixation","","","","","","","","","","","","","","","","","","","","","","",""
"","","","","","html-slider-response","160","2113759","0.0-21.0-0.16","b64673f3-59e6-410c-a8fe-c110dc52c879","1000","
                  <p style=""text-align: center;"">₪4
                                                <br>50%</p>
                  <p id=""wtp"" style=""text-align:center; margin-top: 0px; margin-bottom: 0px; font-size: 40px"";>&ensp;</p>","-","viewing","0","2","4C,17B","","","","","","","","","","","","","","","","","","","",""
"","","","","","html-slider-response","161","2114449","0.0-21.0-1.16","b64673f3-59e6-410c-a8fe-c110dc52c879","689","
                  <p style=""text-align: center;"">₪4
                                                <br>50%</p>
                  <p id=""wtp"" style=""text-align:center; margin-top: 0px; margin-bottom: 0px; font-size: 40px"";>מוכנים לשלם: <span id=""c_p_y""></span></p>","0","evaluation","51","2","4C,17B","50","4","0","","","","","","","","","","","","","","","","",""
"","","","","","html-keyboard-response","162","2115660","0.0-21.0-2.16","b64673f3-59e6-410c-a8fe-c110dc52c879","null","<p style=""text-align: center;"">+</p>","null","fixation","","","","","","","","","","","","","","","","","","","","","","",""
"","","","","","html-slider-response","163","2116674","0.0-21.0-0.17","b64673f3-59e6-410c-a8fe-c110dc52c879","1000","
                  <p style=""text-align: center;"">₪61
                                                <br>55%</p>
                  <p id=""wtp"" style=""text-align:center; margin-top: 0px; margin-bottom: 0px; font-size: 40px"";>&ensp;</p>","-","viewing","0","23","7B,26B","","","","","","","","","","","","","","","","","","","",""
"","","","","","html-slider-response","164","2117785","0.0-21.0-1.17","b64673f3-59e6-410c-a8fe-c110dc52c879","1110","
                  <p style=""text-align: center;"">₪61
                                                <br>55%</p>
                  <p id=""wtp"" style=""text-align:center; margin-top: 0px; margin-bottom: 0px; font-size: 40px"";>מוכנים לשלם: <span id=""c_p_y""></span></p>","7","evaluation","11","23","7B,26B","55","61","8","","","","","","","","","","","","","","","","",""
"","","","","","html-keyboard-response","165","2118723","0.0-21.0-2.17","b64673f3-59e6-410c-a8fe-c110dc52c879","null","<p style=""text-align: center;"">+</p>","null","fixation","","","","","","","","","","","","","","","","","","","","","","",""
"","","","","","html-slider-response","166","2119732","0.0-21.0-0.18","b64673f3-59e6-410c-a8fe-c110dc52c879","1000","
                  <p style=""text-align: center;"">₪39
                                                <br>65%</p>
                  <p id=""wtp"" style=""text-align:center; margin-top: 0px; margin-bottom: 0px; font-size: 40px"";>&ensp;</p>","-","viewing","0","16","1A,15A,26C","","","","","","","","","","","","","","","","","","","",""
"","","","","","html-slider-response","167","2120745","0.0-21.0-1.18","b64673f3-59e6-410c-a8fe-c110dc52c879","1012","
                  <p style=""text-align: center;"">₪39
                                                <br>65%</p>
                  <p id=""wtp"" style=""text-align:center; margin-top: 0px; margin-bottom: 0px; font-size: 40px"";>מוכנים לשלם: <span id=""c_p_y""></span></p>","4","evaluation","43","16","1A,15A,26C","65","39","4","","","","","","","","","","","","","","","","",""
"","","","","","html-keyboard-response","168","2121882","0.0-21.0-2.18","b64673f3-59e6-410c-a8fe-c110dc52c879","null","<p style=""text-align: center;"">+</p>","null","fixation","","","","","","","","","","","","","","","","","","","","","","",""
"","","","","","html-slider-response","169","2122884","0.0-21.0-0.19","b64673f3-59e6-410c-a8fe-c110dc52c879","1000","
                  <p style=""text-align: center;"">₪36
                                                <br>30%</p>
                  <p id=""wtp"" style=""text-align:center; margin-top: 0px; margin-bottom: 0px; font-size: 40px"";>&ensp;</p>","-","viewing","0","11","3C,20A,22A","","","","","","","","","","","","","","","","","","","",""
"","","","","","html-slider-response","170","2123866","0.0-21.0-1.19","b64673f3-59e6-410c-a8fe-c110dc52c879","980","
                  <p style=""text-align: center;"">₪36
                                                <br>30%</p>
                  <p id=""wtp"" style=""text-align:center; margin-top: 0px; margin-bottom: 0px; font-size: 40px"";>מוכנים לשלם: <span id=""c_p_y""></span></p>","1","evaluation","13","11","3C,20A,22A","30","36","1","","","","","","","","","","","","","","","","",""
"","","","","","html-keyboard-response","171","2124378","0.0-21.0-2.19","b64673f3-59e6-410c-a8fe-c110dc52c879","null","<p style=""text-align: center;"">+</p>","null","fixation","","","","","","","","","","","","","","","","","","","","","","",""
"","","","","","html-slider-response","172","2125380","0.0-21.0-0.20","b64673f3-59e6-410c-a8fe-c110dc52c879","1000","
                  <p style=""text-align: center;"">₪64
                                                <br>25%</p>
                  <p id=""wtp"" style=""text-align:center; margin-top: 0px; margin-bottom: 0px; font-size: 40px"";>&ensp;</p>","-","viewing","0","24","6A,21A","","","","","","","","","","","","","","","","","","","",""
"","","","","","html-slider-response","173","2126353","0.0-21.0-1.20","b64673f3-59e6-410c-a8fe-c110dc52c879","972","
                  <p style=""text-align: center;"">₪64
                                                <br>25%</p>
                  <p id=""wtp"" style=""text-align:center; margin-top: 0px; margin-bottom: 0px; font-size: 40px"";>מוכנים לשלם: <span id=""c_p_y""></span></p>","0","evaluation","5","24","6A,21A","25","64","0","","","","","","","","","","","","","","","","",""
"","","","","","html-keyboard-response","174","2127506","0.0-21.0-2.20","b64673f3-59e6-410c-a8fe-c110dc52c879","null","<p style=""text-align: center;"">+</p>","null","fixation","","","","","","","","","","","","","","","","","","","","","","",""
"","","","","","html-slider-response","175","2128509","0.0-21.0-0.21","b64673f3-59e6-410c-a8fe-c110dc52c879","1000","
                  <p style=""text-align: center;"">₪58
                                                <br>45%</p>
                  <p id=""wtp"" style=""text-align:center; margin-top: 0px; margin-bottom: 0px; font-size: 40px"";>&ensp;</p>","-","viewing","0","21","11C,18C,25A","","","","","","","","","","","","","","","","","","","",""
"","","","","","html-slider-response","176","2129401","0.0-21.0-1.21","b64673f3-59e6-410c-a8fe-c110dc52c879","891","
                  <p style=""text-align: center;"">₪58
                                                <br>45%</p>
                  <p id=""wtp"" style=""text-align:center; margin-top: 0px; margin-bottom: 0px; font-size: 40px"";>מוכנים לשלם: <span id=""c_p_y""></span></p>","3","evaluation","44","21","11C,18C,25A","45","58","3","","","","","","","","","","","","","","","","",""
"","","","","","html-keyboard-response","177","2130871","0.0-21.0-2.21","b64673f3-59e6-410c-a8fe-c110dc52c879","null","<p style=""text-align: center;"">+</p>","null","fixation","","","","","","","","","","","","","","","","","","","","","","",""
"","","","","","html-slider-response","178","2131872","0.0-21.0-0.22","b64673f3-59e6-410c-a8fe-c110dc52c879","1000","
                  <p style=""text-align: center;"">₪4
                                                <br>75%</p>
                  <p id=""wtp"" style=""text-align:center; margin-top: 0px; margin-bottom: 0px; font-size: 40px"";>&ensp;</p>","-","viewing","0","3","12B,20B,23B,27C,29C","","","","","","","","","","","","","","","","","","","",""
"","","","","","html-slider-response","179","2132818","0.0-21.0-1.22","b64673f3-59e6-410c-a8fe-c110dc52c879","944","
                  <p style=""text-align: center;"">₪4
                                                <br>75%</p>
                  <p id=""wtp"" style=""text-align:center; margin-top: 0px; margin-bottom: 0px; font-size: 40px"";>מוכנים לשלם: <span id=""c_p_y""></span></p>","0","evaluation","31","3","12B,20B,23B,27C,29C","75","4","0","","","","","","","","","","","","","","","","",""
"","","","","","html-keyboard-response","180","2134213","0.0-21.0-2.22","b64673f3-59e6-410c-a8fe-c110dc52c879","null","<p style=""text-align: center;"">+</p>","null","fixation","","","","","","","","","","","","","","","","","","","","","","",""
"","","","","","html-slider-response","181","2135229","0.0-21.0-0.23","b64673f3-59e6-410c-a8fe-c110dc52c879","1000","
                  <p style=""text-align: center;"">₪18
                                                <br>50%</p>
                  <p id=""wtp"" style=""text-align:center; margin-top: 0px; margin-bottom: 0px; font-size: 40px"";>&ensp;</p>","-","viewing","0","10","2C,16C,22B,28A","","","","","","","","","","","","","","","","","","","",""
"","","","","","html-slider-response","182","2137050","0.0-21.0-1.23","b64673f3-59e6-410c-a8fe-c110dc52c879","1820","
                  <p style=""text-align: center;"">₪18
                                                <br>50%</p>
                  <p id=""wtp"" style=""text-align:center; margin-top: 0px; margin-bottom: 0px; font-size: 40px"";>מוכנים לשלם: <span id=""c_p_y""></span></p>","0","evaluation","30","10","2C,16C,22B,28A","50","18","1","","","","","","","","","","","","","","","","",""
"","","","","","html-keyboard-response","183","2137818","0.0-21.0-2.23","b64673f3-59e6-410c-a8fe-c110dc52c879","null","<p style=""text-align: center;"">+</p>","null","fixation","","","","","","","","","","","","","","","","","","","","","","",""
"","","","","","html-slider-response","184","2138820","0.0-21.0-0.24","b64673f3-59e6-410c-a8fe-c110dc52c879","1000","
                  <p style=""text-align: center;"">₪79
                                                <br>40%</p>
                  <p id=""wtp"" style=""text-align:center; margin-top: 0px; margin-bottom: 0px; font-size: 40px"";>&ensp;</p>","-","viewing","0","30","9B","","","","","","","","","","","","","","","","","","","",""
"","","","","","html-slider-response","185","2140258","0.0-21.0-1.24","b64673f3-59e6-410c-a8fe-c110dc52c879","1437","
                  <p style=""text-align: center;"">₪79
                                                <br>40%</p>
                  <p id=""wtp"" style=""text-align:center; margin-top: 0px; margin-bottom: 0px; font-size: 40px"";>מוכנים לשלם: <span id=""c_p_y""></span></p>","8","evaluation","28","30","9B","40","79","8","","","","","","","","","","","","","","","","",""
"","","","","","html-keyboard-response","186","2141321","0.0-21.0-2.24","b64673f3-59e6-410c-a8fe-c110dc52c879","null","<p style=""text-align: center;"">+</p>","null","fixation","","","","","","","","","","","","","","","","","","","","","","",""
"","","","","","html-slider-response","187","2142324","0.0-21.0-0.25","b64673f3-59e6-410c-a8fe-c110dc52c879","1000","
                  <p style=""text-align: center;"">₪11
                                                <br>20%</p>
                  <p id=""wtp"" style=""text-align:center; margin-top: 0px; margin-bottom: 0px; font-size: 40px"";>&ensp;</p>","-","viewing","0","4","12C,17C,23C,28C","","","","","","","","","","","","","","","","","","","",""
"","","","","","html-slider-response","188","2144073","0.0-21.0-1.25","b64673f3-59e6-410c-a8fe-c110dc52c879","1749","
                  <p style=""text-align: center;"">₪11
                                                <br>20%</p>
                  <p id=""wtp"" style=""text-align:center; margin-top: 0px; margin-bottom: 0px; font-size: 40px"";>מוכנים לשלם: <span id=""c_p_y""></span></p>","1","evaluation","35","4","12C,17C,23C,28C","20","11","1","","","","","","","","","","","","","","","","",""
"","","","","","html-keyboard-response","189","2145350","0.0-21.0-2.25","b64673f3-59e6-410c-a8fe-c110dc52c879","null","<p style=""text-align: center;"">+</p>","null","fixation","","","","","","","","","","","","","","","","","","","","","","",""
"","","","","","html-slider-response","190","2146352","0.0-21.0-0.26","b64673f3-59e6-410c-a8fe-c110dc52c879","1000","
                  <p style=""text-align: center;"">₪61
                                                <br>45%</p>
                  <p id=""wtp"" style=""text-align:center; margin-top: 0px; margin-bottom: 0px; font-size: 40px"";>&ensp;</p>","-","viewing","0","22","10A,11A","","","","","","","","","","","","","","","","","","","",""
"","","","","","html-slider-response","191","2147370","0.0-21.0-1.26","b64673f3-59e6-410c-a8fe-c110dc52c879","1017","
                  <p style=""text-align: center;"">₪61
                                                <br>45%</p>
                  <p id=""wtp"" style=""text-align:center; margin-top: 0px; margin-bottom: 0px; font-size: 40px"";>מוכנים לשלם: <span id=""c_p_y""></span></p>","1","evaluation","78","22","10A,11A","45","61","1","","","","","","","","","","","","","","","","",""
"","","","","","html-keyboard-response","192","2148194","0.0-21.0-2.26","b64673f3-59e6-410c-a8fe-c110dc52c879","null","<p style=""text-align: center;"">+</p>","null","fixation","","","","","","","","","","","","","","","","","","","","","","",""
"","","","","","html-slider-response","193","2149210","0.0-21.0-0.27","b64673f3-59e6-410c-a8fe-c110dc52c879","1000","
                  <p style=""text-align: center;"">₪79
                                                <br>65%</p>
                  <p id=""wtp"" style=""text-align:center; margin-top: 0px; margin-bottom: 0px; font-size: 40px"";>&ensp;</p>","-","viewing","0","31","8A","","","","","","","","","","","","","","","","","","","",""
"","","","","","html-slider-response","194","2150394","0.0-21.0-1.27","b64673f3-59e6-410c-a8fe-c110dc52c879","1182","
                  <p style=""text-align: center;"">₪79
                                                <br>65%</p>
                  <p id=""wtp"" style=""text-align:center; margin-top: 0px; margin-bottom: 0px; font-size: 40px"";>מוכנים לשלם: <span id=""c_p_y""></span></p>","16","evaluation","21","31","8A","65","79","16","","","","","","","","","","","","","","","","",""
"","","","","","html-keyboard-response","195","2151204","0.0-21.0-2.27","b64673f3-59e6-410c-a8fe-c110dc52c879","null","<p style=""text-align: center;"">+</p>","null","fixation","","","","","","","","","","","","","","","","","","","","","","",""
"","","","","","html-slider-response","196","2152220","0.0-21.0-0.28","b64673f3-59e6-410c-a8fe-c110dc52c879","1000","
                  <p style=""text-align: center;"">₪76
                                                <br>65%</p>
                  <p id=""wtp"" style=""text-align:center; margin-top: 0px; margin-bottom: 0px; font-size: 40px"";>&ensp;</p>","-","viewing","0","29","8C,19A,24B","","","","","","","","","","","","","","","","","","","",""
"","","","","","html-slider-response","197","2153682","0.0-21.0-1.28","b64673f3-59e6-410c-a8fe-c110dc52c879","1461","
                  <p style=""text-align: center;"">₪76
                                                <br>65%</p>
                  <p id=""wtp"" style=""text-align:center; margin-top: 0px; margin-bottom: 0px; font-size: 40px"";>מוכנים לשלם: <span id=""c_p_y""></span></p>","16","evaluation","1","29","8C,19A,24B","65","76","17","","","","","","","","","","","","","","","","",""
"","","","","","html-keyboard-response","198","2154414","0.0-21.0-2.28","b64673f3-59e6-410c-a8fe-c110dc52c879","null","<p style=""text-align: center;"">+</p>","null","fixation","","","","","","","","","","","","","","","","","","","","","","",""
"","","","","","html-slider-response","199","2155427","0.0-21.0-0.29","b64673f3-59e6-410c-a8fe-c110dc52c879","1000","
                  <p style=""text-align: center;"">₪71
                                                <br>55%</p>
                  <p id=""wtp"" style=""text-align:center; margin-top: 0px; margin-bottom: 0px; font-size: 40px"";>&ensp;</p>","-","viewing","0","27","5B,18A","","","","","","","","","","","","","","","","","","","",""
"","","","","","html-slider-response","200","2156410","0.0-21.0-1.29","b64673f3-59e6-410c-a8fe-c110dc52c879","982","
                  <p style=""text-align: center;"">₪71
                                                <br>55%</p>
                  <p id=""wtp"" style=""text-align:center; margin-top: 0px; margin-bottom: 0px; font-size: 40px"";>מוכנים לשלם: <span id=""c_p_y""></span></p>","15","evaluation","45","27","5B,18A","55","71","15","","","","","","","","","","","","","","","","",""
"","","","","","html-keyboard-response","201","2156996","0.0-21.0-2.29","b64673f3-59e6-410c-a8fe-c110dc52c879","null","<p style=""text-align: center;"">+</p>","null","fixation","","","","","","","","","","","","","","","","","","","","","","",""
"","","","","","html-slider-response","202","2157997","0.0-21.0-0.30","b64673f3-59e6-410c-a8fe-c110dc52c879","1000","
                  <p style=""text-align: center;"">₪4
                                                <br>25%</p>
                  <p id=""wtp"" style=""text-align:center; margin-top: 0px; margin-bottom: 0px; font-size: 40px"";>&ensp;</p>","-","viewing","0","1","6C,29B,30C","","","","","","","","","","","","","","","","","","","",""
"","","","","","html-slider-response","203","2158698","0.0-21.0-1.30","b64673f3-59e6-410c-a8fe-c110dc52c879","699","
                  <p style=""text-align: center;"">₪4
                                                <br>25%</p>
                  <p id=""wtp"" style=""text-align:center; margin-top: 0px; margin-bottom: 0px; font-size: 40px"";>מוכנים לשלם: <span id=""c_p_y""></span></p>","0","evaluation","24","1","6C,29B,30C","25","4","0","","","","","","","","","","","","","","","","",""
"","","","","","html-keyboard-response","204","2159782","0.0-21.0-2.30","b64673f3-59e6-410c-a8fe-c110dc52c879","null","<p style=""text-align: center;"">+</p>","null","fixation","","","","","","","","","","","","","","","","","","","","","","",""
"","","","","","html-keyboard-response","205","2160797","0.0-22.0","b64673f3-59e6-410c-a8fe-c110dc52c879","null","<p style=""text-align: center;"">+</p>","null","fixation","","","","","","","","","","","","","","","","","","","","","","",""
"","","","","","html-keyboard-response","206","2161873","0.0-23.0","b64673f3-59e6-410c-a8fe-c110dc52c879","null","<p>הפסקה.
          <br>לחצו כדי להמשיך.</p>","1","scan_wait","","","","","","","","","","","","","","","","","","","","","","",""
"","","","","","html-keyboard-response","207","2162880","0.0-24.0","b64673f3-59e6-410c-a8fe-c110dc52c879","null","<p style=""text-align: center;"">+</p>","null","fixation","","","","","","","","","","","","","","","","","","","","","","",""
"","","","","","html-slider-response","208","2163881","0.0-25.0-0.0","b64673f3-59e6-410c-a8fe-c110dc52c879","1000","
                  <p style=""text-align: center;"">₪76
                                                <br>65%</p>
                  <p id=""wtp"" style=""text-align:center; margin-top: 0px; margin-bottom: 0px; font-size: 40px"";>&ensp;</p>","-","viewing","0","29","8C,19A,24B","","","","","","","","","","","","","","","","","","","",""
"","","","","","html-slider-response","209","2164730","0.0-25.0-1.0","b64673f3-59e6-410c-a8fe-c110dc52c879","847","
                  <p style=""text-align: center;"">₪76
                                                <br>65%</p>
                  <p id=""wtp"" style=""text-align:center; margin-top: 0px; margin-bottom: 0px; font-size: 40px"";>מוכנים לשלם: <span id=""c_p_y""></span></p>","12","evaluation","13","29","8C,19A,24B","65","76","12","","","","","","","","","","","","","","","","",""
"","","","","","html-keyboard-response","210","2166060","0.0-25.0-2.0","b64673f3-59e6-410c-a8fe-c110dc52c879","null","<p style=""text-align: center;"">+</p>","null","fixation","","","","","","","","","","","","","","","","","","","","","","",""
"","","","","","html-slider-response","211","2167061","0.0-25.0-0.1","b64673f3-59e6-410c-a8fe-c110dc52c879","1000","
                  <p style=""text-align: center;"">₪36
                                                <br>30%</p>
                  <p id=""wtp"" style=""text-align:center; margin-top: 0px; margin-bottom: 0px; font-size: 40px"";>&ensp;</p>","-","viewing","0","11","3C,20A,22A","","","","","","","","","","","","","","","","","","","",""
"","","","","","html-slider-response","212","2167858","0.0-25.0-1.1","b64673f3-59e6-410c-a8fe-c110dc52c879","796","
                  <p style=""text-align: center;"">₪36
                                                <br>30%</p>
                  <p id=""wtp"" style=""text-align:center; margin-top: 0px; margin-bottom: 0px; font-size: 40px"";>מוכנים לשלם: <span id=""c_p_y""></span></p>","2","evaluation","70","11","3C,20A,22A","30","36","2","","","","","","","","","","","","","","","","",""
"","","","","","html-keyboard-response","213","2168900","0.0-25.0-2.1","b64673f3-59e6-410c-a8fe-c110dc52c879","null","<p style=""text-align: center;"">+</p>","null","fixation","","","","","","","","","","","","","","","","","","","","","","",""
"","","","","","html-slider-response","214","2169907","0.0-25.0-0.2","b64673f3-59e6-410c-a8fe-c110dc52c879","1000","
                  <p style=""text-align: center;"">₪61
                                                <br>55%</p>
                  <p id=""wtp"" style=""text-align:center; margin-top: 0px; margin-bottom: 0px; font-size: 40px"";>&ensp;</p>","-","viewing","0","23","7B,26B","","","","","","","","","","","","","","","","","","","",""
"","","","","","html-slider-response","215","2171585","0.0-25.0-1.2","b64673f3-59e6-410c-a8fe-c110dc52c879","1677","
                  <p style=""text-align: center;"">₪61
                                                <br>55%</p>
                  <p id=""wtp"" style=""text-align:center; margin-top: 0px; margin-bottom: 0px; font-size: 40px"";>מוכנים לשלם: <span id=""c_p_y""></span></p>","0","evaluation","15","23","7B,26B","55","61","0","","","","","","","","","","","","","","","","",""
"","","","","","html-keyboard-response","216","2172126","0.0-25.0-2.2","b64673f3-59e6-410c-a8fe-c110dc52c879","null","<p style=""text-align: center;"">+</p>","null","fixation","","","","","","","","","","","","","","","","","","","","","","",""
"","","","","","html-slider-response","217","2173128","0.0-25.0-0.3","b64673f3-59e6-410c-a8fe-c110dc52c879","1000","
                  <p style=""text-align: center;"">₪64
                                                <br>25%</p>
                  <p id=""wtp"" style=""text-align:center; margin-top: 0px; margin-bottom: 0px; font-size: 40px"";>&ensp;</p>","-","viewing","0","24","6A,21A","","","","","","","","","","","","","","","","","","","",""
"","","","","","html-slider-response","218","2174177","0.0-25.0-1.3","b64673f3-59e6-410c-a8fe-c110dc52c879","1049","
                  <p style=""text-align: center;"">₪64
                                                <br>25%</p>
                  <p id=""wtp"" style=""text-align:center; margin-top: 0px; margin-bottom: 0px; font-size: 40px"";>מוכנים לשלם: <span id=""c_p_y""></span></p>","0","evaluation","17","24","6A,21A","25","64","0","","","","","","","","","","","","","","","","",""
"","","","","","html-keyboard-response","219","2175619","0.0-25.0-2.3","b64673f3-59e6-410c-a8fe-c110dc52c879","null","<p style=""text-align: center;"">+</p>","null","fixation","","","","","","","","","","","","","","","","","","","","","","",""
"","","","","","html-slider-response","220","2176620","0.0-25.0-0.4","b64673f3-59e6-410c-a8fe-c110dc52c879","1000","
                  <p style=""text-align: center;"">₪18
                                                <br>50%</p>
                  <p id=""wtp"" style=""text-align:center; margin-top: 0px; margin-bottom: 0px; font-size: 40px"";>&ensp;</p>","-","viewing","0","10","2C,16C,22B,28A","","","","","","","","","","","","","","","","","","","",""
"","","","","","html-slider-response","221","2178385","0.0-25.0-1.4","b64673f3-59e6-410c-a8fe-c110dc52c879","1765","
                  <p style=""text-align: center;"">₪18
                                                <br>50%</p>
                  <p id=""wtp"" style=""text-align:center; margin-top: 0px; margin-bottom: 0px; font-size: 40px"";>מוכנים לשלם: <span id=""c_p_y""></span></p>","2","evaluation","9","10","2C,16C,22B,28A","50","18","2","","","","","","","","","","","","","","","","",""
"","","","","","html-keyboard-response","222","2179250","0.0-25.0-2.4","b64673f3-59e6-410c-a8fe-c110dc52c879","null","<p style=""text-align: center;"">+</p>","null","fixation","","","","","","","","","","","","","","","","","","","","","","",""
"","","","","","html-slider-response","223","2180253","0.0-25.0-0.5","b64673f3-59e6-410c-a8fe-c110dc52c879","1000","
                  <p style=""text-align: center;"">₪71
                                                <br>45%</p>
                  <p id=""wtp"" style=""text-align:center; margin-top: 0px; margin-bottom: 0px; font-size: 40px"";>&ensp;</p>","-","viewing","0","26","2B,16A","","","","","","","","","","","","","","","","","","","",""
"","","","","","html-slider-response","224","2181674","0.0-25.0-1.5","b64673f3-59e6-410c-a8fe-c110dc52c879","1420","
                  <p style=""text-align: center;"">₪71
                                                <br>45%</p>
                  <p id=""wtp"" style=""text-align:center; margin-top: 0px; margin-bottom: 0px; font-size: 40px"";>מוכנים לשלם: <span id=""c_p_y""></span></p>","3","evaluation","0","26","2B,16A","45","71","3","","","","","","","","","","","","","","","","",""
"","","","","","html-keyboard-response","225","2182826","0.0-25.0-2.5","b64673f3-59e6-410c-a8fe-c110dc52c879","null","<p style=""text-align: center;"">+</p>","null","fixation","","","","","","","","","","","","","","","","","","","","","","",""
"","","","","","html-slider-response","226","2183828","0.0-25.0-0.6","b64673f3-59e6-410c-a8fe-c110dc52c879","1000","
                  <p style=""text-align: center;"">₪4
                                                <br>75%</p>
                  <p id=""wtp"" style=""text-align:center; margin-top: 0px; margin-bottom: 0px; font-size: 40px"";>&ensp;</p>","-","viewing","0","3","12B,20B,23B,27C,29C","","","","","","","","","","","","","","","","","","","",""
"","","","","","html-slider-response","227","2184714","0.0-25.0-1.6","b64673f3-59e6-410c-a8fe-c110dc52c879","885","
                  <p style=""text-align: center;"">₪4
                                                <br>75%</p>
                  <p id=""wtp"" style=""text-align:center; margin-top: 0px; margin-bottom: 0px; font-size: 40px"";>מוכנים לשלם: <span id=""c_p_y""></span></p>","0","evaluation","71","3","12B,20B,23B,27C,29C","75","4","0","","","","","","","","","","","","","","","","",""
"","","","","","html-keyboard-response","228","2186033","0.0-25.0-2.6","b64673f3-59e6-410c-a8fe-c110dc52c879","null","<p style=""text-align: center;"">+</p>","null","fixation","","","","","","","","","","","","","","","","","","","","","","",""
"","","","","","html-slider-response","229","2187034","0.0-25.0-0.7","b64673f3-59e6-410c-a8fe-c110dc52c879","1000","
                  <p style=""text-align: center;"">₪16
                                                <br>20%</p>
                  <p id=""wtp"" style=""text-align:center; margin-top: 0px; margin-bottom: 0px; font-size: 40px"";>&ensp;</p>","-","viewing","0","8","14C,17A,20C,27A","","","","","","","","","","","","","","","","","","","",""
"","","","","","html-slider-response","230","2188049","0.0-25.0-1.7","b64673f3-59e6-410c-a8fe-c110dc52c879","1014","
                  <p style=""text-align: center;"">₪16
                                                <br>20%</p>
                  <p id=""wtp"" style=""text-align:center; margin-top: 0px; margin-bottom: 0px; font-size: 40px"";>מוכנים לשלם: <span id=""c_p_y""></span></p>","0","evaluation","19","8","14C,17A,20C,27A","20","16","0","","","","","","","","","","","","","","","","",""
"","","","","","html-keyboard-response","231","2189024","0.0-25.0-2.7","b64673f3-59e6-410c-a8fe-c110dc52c879","null","<p style=""text-align: center;"">+</p>","null","fixation","","","","","","","","","","","","","","","","","","","","","","",""
"","","","","","html-slider-response","232","2190034","0.0-25.0-0.8","b64673f3-59e6-410c-a8fe-c110dc52c879","1000","
                  <p style=""text-align: center;"">₪36
                                                <br>75%</p>
                  <p id=""wtp"" style=""text-align:center; margin-top: 0px; margin-bottom: 0px; font-size: 40px"";>&ensp;</p>","-","viewing","0","14","4B,5A,13B,16B","","","","","","","","","","","","","","","","","","","",""
"","","","","","html-slider-response","233","2191066","0.0-25.0-1.8","b64673f3-59e6-410c-a8fe-c110dc52c879","1030","
                  <p style=""text-align: center;"">₪36
                                                <br>75%</p>
                  <p id=""wtp"" style=""text-align:center; margin-top: 0px; margin-bottom: 0px; font-size: 40px"";>מוכנים לשלם: <span id=""c_p_y""></span></p>","3","evaluation","58","14","4B,5A,13B,16B","75","36","3","","","","","","","","","","","","","","","","",""
"","","","","","html-keyboard-response","234","2191594","0.0-25.0-2.8","b64673f3-59e6-410c-a8fe-c110dc52c879","null","<p style=""text-align: center;"">+</p>","null","fixation","","","","","","","","","","","","","","","","","","","","","","",""
"","","","","","html-slider-response","235","2192602","0.0-25.0-0.9","b64673f3-59e6-410c-a8fe-c110dc52c879","1000","
                  <p style=""text-align: center;"">₪36
                                                <br>70%</p>
                  <p id=""wtp"" style=""text-align:center; margin-top: 0px; margin-bottom: 0px; font-size: 40px"";>&ensp;</p>","-","viewing","0","13","3A,5C,10B","","","","","","","","","","","","","","","","","","","",""
"","","","","","html-slider-response","236","2193858","0.0-25.0-1.9","b64673f3-59e6-410c-a8fe-c110dc52c879","1254","
                  <p style=""text-align: center;"">₪36
                                                <br>70%</p>
                  <p id=""wtp"" style=""text-align:center; margin-top: 0px; margin-bottom: 0px; font-size: 40px"";>מוכנים לשלם: <span id=""c_p_y""></span></p>","3","evaluation","53","13","3A,5C,10B","70","36","3","","","","","","","","","","","","","","","","",""
"","","","","","html-keyboard-response","237","2194838","0.0-25.0-2.9","b64673f3-59e6-410c-a8fe-c110dc52c879","null","<p style=""text-align: center;"">+</p>","null","fixation","","","","","","","","","","","","","","","","","","","","","","",""
"","","","","","html-slider-response","238","2195854","0.0-25.0-0.10","b64673f3-59e6-410c-a8fe-c110dc52c879","1000","
                  <p style=""text-align: center;"">₪43
                                                <br>60%</p>
                  <p id=""wtp"" style=""text-align:center; margin-top: 0px; margin-bottom: 0px; font-size: 40px"";>&ensp;</p>","-","viewing","0","17","2A,7A,9A,15B","","","","","","","","","","","","","","","","","","","",""
"","","","","","html-slider-response","239","2198354","0.0-25.0-1.10","b64673f3-59e6-410c-a8fe-c110dc52c879","2498","
                  <p style=""text-align: center;"">₪43
                                                <br>60%</p>
                  <p id=""wtp"" style=""text-align:center; margin-top: 0px; margin-bottom: 0px; font-size: 40px"";>מוכנים לשלם: <span id=""c_p_y""></span></p>","4","evaluation","60","17","2A,7A,9A,15B","60","43","5","","","","","","","","","","","","","","","","",""
"","","","","","html-keyboard-response","240","2199225","0.0-25.0-2.10","b64673f3-59e6-410c-a8fe-c110dc52c879","null","<p style=""text-align: center;"">+</p>","null","fixation","","","","","","","","","","","","","","","","","","","","","","",""
"","","","","","html-slider-response","241","2200228","0.0-25.0-0.11","b64673f3-59e6-410c-a8fe-c110dc52c879","1000","
                  <p style=""text-align: center;"">₪43
                                                <br>75%</p>
                  <p id=""wtp"" style=""text-align:center; margin-top: 0px; margin-bottom: 0px; font-size: 40px"";>&ensp;</p>","-","viewing","0","18","11B,19B,24A,26A","","","","","","","","","","","","","","","","","","","",""
"","","","","","html-slider-response","242","2201066","0.0-25.0-1.11","b64673f3-59e6-410c-a8fe-c110dc52c879","837","
                  <p style=""text-align: center;"">₪43
                                                <br>75%</p>
                  <p id=""wtp"" style=""text-align:center; margin-top: 0px; margin-bottom: 0px; font-size: 40px"";>מוכנים לשלם: <span id=""c_p_y""></span></p>","5","evaluation","39","18","11B,19B,24A,26A","75","43","5","","","","","","","","","","","","","","","","",""
"","","","","","html-keyboard-response","243","2201764","0.0-25.0-2.11","b64673f3-59e6-410c-a8fe-c110dc52c879","null","<p style=""text-align: center;"">+</p>","null","fixation","","","","","","","","","","","","","","","","","","","","","","",""
"","","","","","html-slider-response","244","2202765","0.0-25.0-0.12","b64673f3-59e6-410c-a8fe-c110dc52c879","1000","
                  <p style=""text-align: center;"">₪39
                                                <br>65%</p>
                  <p id=""wtp"" style=""text-align:center; margin-top: 0px; margin-bottom: 0px; font-size: 40px"";>&ensp;</p>","-","viewing","0","16","1A,15A,26C","","","","","","","","","","","","","","","","","","","",""
"","","","","","html-slider-response","245","2203906","0.0-25.0-1.12","b64673f3-59e6-410c-a8fe-c110dc52c879","1139","
                  <p style=""text-align: center;"">₪39
                                                <br>65%</p>
                  <p id=""wtp"" style=""text-align:center; margin-top: 0px; margin-bottom: 0px; font-size: 40px"";>מוכנים לשלם: <span id=""c_p_y""></span></p>","3","evaluation","75","16","1A,15A,26C","65","39","4","","","","","","","","","","","","","","","","",""
"","","","","","html-keyboard-response","246","2205142","0.0-25.0-2.12","b64673f3-59e6-410c-a8fe-c110dc52c879","null","<p style=""text-align: center;"">+</p>","null","fixation","","","","","","","","","","","","","","","","","","","","","","",""
"","","","","","html-slider-response","247","2206144","0.0-25.0-0.13","b64673f3-59e6-410c-a8fe-c110dc52c879","1000","
                  <p style=""text-align: center;"">₪18
                                                <br>25%</p>
                  <p id=""wtp"" style=""text-align:center; margin-top: 0px; margin-bottom: 0px; font-size: 40px"";>&ensp;</p>","-","viewing","0","9","14A,23A","","","","","","","","","","","","","","","","","","","",""
"","","","","","html-slider-response","248","2206946","0.0-25.0-1.13","b64673f3-59e6-410c-a8fe-c110dc52c879","801","
                  <p style=""text-align: center;"">₪18
                                                <br>25%</p>
                  <p id=""wtp"" style=""text-align:center; margin-top: 0px; margin-bottom: 0px; font-size: 40px"";>מוכנים לשלם: <span id=""c_p_y""></span></p>","0","evaluation","37","9","14A,23A","25","18","0","","","","","","","","","","","","","","","","",""
