"success","timeout","failed_images","failed_audio","failed_video","trial_type","trial_index","time_elapsed","internal_node_id","subject_id","rt","stimulus","response","part","slider_start","ID","set_ID","prob","amount","last_location","actual_choice","actual_EV","binary_id","trinary_id","catch","A_key","D_key","choice_prob","choice_amount","chosen_part","potential_prize_prob","potential_prize_amount","won_prize","total_prize","prize_cost","remaining_budget","accuracy"
"true","false","[]","[]","[]","preload","0","18","0.0-0.0","5f93f61c-8691-442b-9f60-626d11a73ef7","","","","","","","","","","","","","","","","","","","","","","","","","","",""
"","","","","","html-keyboard-response","1","877409","0.0-1.0","5f93f61c-8691-442b-9f60-626d11a73ef7","null","
          <h1>שלום וברוכים הבאים!</h1>
          <p>לפניכם ניסוי בקבלת החלטות עם שני חלקים.
          <br><br>לחצו על העכבר כדי להמשיך.</p>","0","example","","","","","","","","","","","","","","","","","","","","","","",""
"","","","","","html-keyboard-response","2","896753","0.0-2.0","5f93f61c-8691-442b-9f60-626d11a73ef7","null","
        <h1>חלק 1</h1>
        <p>בקרוב יוצגו בפניכם הגרלות.
        <br>עליכם לבחור את המחיר המירבי שתהיו מוכנים לשלם כדי להשתתף בהגרלה שתוצג.
        <br>יש לכם תקציב של ₪80 לכל הגרלה. 
        <br>נסו להעריך כל הגרלה בנפרד ולחשוב כמה היא שווה עבורכם, ₪80 זמינים לכל הגרלה בנפרד.
        <br><br>לחצו על העכבר כדי להמשיך.</p>","1","instructions","","","","","","","","","","","","","","","","","","","","","","",""
"","","","","","html-keyboard-response","3","901633","0.0-3.0","5f93f61c-8691-442b-9f60-626d11a73ef7","null","
        <p>בסוף הניסוי, המחשב יבחר את אחת ההגרלות ויקבע מחיר לכרטיס עבורה. 
        <br>במידה והמחיר שבחרתם נמוך מהמחיר שנבחר על ידי המחשב, לא תשתתפו בהגרלה ותשארו עם מלוא התקציב.
        <br>במידה והמחיר שבחרתם גבוה מהמחיר שנבחר על ידי המחשב, תשלמו את המחיר שנקבע ותשתתפו בהגרלה.
        <br><br>לחצו על העכבר כדי להמשיך.</p>","1","instructions","","","","","","","","","","","","","","","","","","","","","","",""
"","","","","","html-slider-response","4","914626","0.0-4.0","5f93f61c-8691-442b-9f60-626d11a73ef7","12888","
        <p style=""font-size: 42px;"">נתחיל עם דוגמא: 
        <br>ההגרלה מטה מציעה 65% סיכוי לזכות ב-₪40 
        <br>&emsp;&emsp;&emsp;&emsp;&emsp;&emsp;&emsp;&emsp;&ensp;35% סיכוי לזכות ב-₪0.
        <br><br>מה המחיר המירבי שתהיו מוכנים לשלם על כרטיס להגרלה זו בין 0 ל-₪80?
        <br>הזיזו את העכבר על פני המלבן ולחצו כדי לבצע בחירה.</p>
        
        <p style=""text-align: center;"">₪40<br>65%</p>

        <p id=""wtp"" style=""text-align:center; margin-top: 0px; margin-bottom: 0px; font-size: 40px"";>מוכנים לשלם: <span id=""c_p_y""></span></p>","20","example","18","","","","","","","","","","","","","","","","","","","","","",""
"","","","","","html-keyboard-response","5","918689","0.0-5.0","5f93f61c-8691-442b-9f60-626d11a73ef7","null","<p>יפה מאוד!
                <br> בחרתם שתהיו מוכנים לשלם ₪20 כדי להשתתף בהגרלה:
                <br><p style=""text-align: center;"">₪40<br>65%</p>
                <p>נשמע נכון?
                <br>נניח שהגרלה זו נבחרה בסוף הניסוי.
                <br>כעת המחשב יקבע מחיר עבורה באקראי.
                <br>לחצו על העכבר להמשך.</p>","1","example","","","","","","","","","","","","","","","","","","","","","","",""
"","","","","","html-keyboard-response","6","926577","0.0-6.0","5f93f61c-8691-442b-9f60-626d11a73ef7","null","<p>המחשב קבע מחיר: ₪79
                <br>ואתם בחרתם לשלם לכל היותר: ₪20
                <br><br>מכיוון שהמחיר שבחרתם נמוך מהמחיר שנקבע, לא תתשתתפו בהגרלה.
                <br>במקרה כזה, בסוף הניסוי תקבלו את כל התקציב ההתחלתי של ₪80.
                <br><br>לחצו על העכבר להמשך.</p>","1","example","","","","","","","","","","","","","","","","","","","","","","",""
"","","","","","html-slider-response","7","935985","0.0-7.0","5f93f61c-8691-442b-9f60-626d11a73ef7","9151","<p style=""font-size: 42px;"">הנה עוד דוגמא:
                <br>ההגרלה מטה מציעה 35% סיכוי לזכות ב-₪18 
                <br>&emsp;&emsp;&emsp;&emsp;&emsp;&emsp;&emsp;&emsp;&ensp;65% סיכוי לזכות ב-₪0.</p>
        
                <p style=""text-align: center;"">₪18<br>35%</p>
                <p id=""wtp"" style=""text-align:center; margin-top: 0px; margin-bottom: 0px; font-size: 40px"";>מוכנים לשלם: <span id=""c_p_y""></span></p>","5","example","47","","","","","","","","","","","","","","","","","","","","","",""
"","","","","","html-keyboard-response","8","938764","0.0-8.0","5f93f61c-8691-442b-9f60-626d11a73ef7","null","<p>הייתם מוכנים לשלם  ₪5 כדי להשתתף בהגרלה:
                <p style=""text-align: center;"">₪18<br>35%</p>
                <p>כעת נניח שהמחשב בחר את ההגרלה הזו בסוף הניסוי, וקבע עבורה מחיר.
                <br><br>לחצו על העכבר כדי להמשיך.</p>","1","instructions","","","","","","","","","","","","","","","","","","","","","","",""
"","","","","","html-keyboard-response","9","943757","0.0-9.0","5f93f61c-8691-442b-9f60-626d11a73ef7","null","<p>המחשב קבע מחיר להגרלה: ₪3<br>ואתם בחרתם לשלם לכל היותר: ₪5
                <br><br>כעת המחיר שנקבע נמוך מזה שבחרתם, אז תשלמו את המחיר שקבע המחשב (₪3) ותשתתפו בהגרלה.
                <br>במקרה כזה, תסיימו את הניסוי עם תקציב של ₪77 ועם סיכוי לזכות ב-₪18 נוספים מההגרלה.
                <br>כלומר, תוכלו לקבל ₪77 אם לא תזכו בהגרלה, או ₪95 אם תזכו בהגרלה.
                <br><br>לחצו על העכבר להמשך.</p>","1","example","","","","","","","","","","","","","","","","","","","","","","",""
"","","","","","html-keyboard-response","10","951444","0.0-10.0","5f93f61c-8691-442b-9f60-626d11a73ef7","null","<p>במהלך הניסוי, קודם תראו את ההגרלה ורק לאחר מכן תוכלו לבחור.
                <p>כמו כן, יהיו לכם מספר שניות מוגבל להגיב.
                <p>בואו ננסה זאת עם ההגרלה הקודמת.
                <br>לחצו על העכבר כדי להמשיך.</p>","1","instructions","","","","","","","","","","","","","","","","","","","","","","",""
"","","","","","html-slider-response","11","952700","0.0-11.0","5f93f61c-8691-442b-9f60-626d11a73ef7","1000","
                    <p style=""text-align: center;"">₪18<br>35%</p>
                    <p id=""wtp"" style=""text-align:center; margin-top: 0px; margin-bottom: 0px; font-size: 40px"";>&ensp;</p>","49","instructions","0","","","","","","","","","","","","","","","","","","","","","",""
"","","","","","html-slider-response","12","956958","0.0-12.0","5f93f61c-8691-442b-9f60-626d11a73ef7","null","
                    <p style=""text-align: center;"">₪18<br>35%</p>
                    <p id=""wtp"" style=""text-align:center; margin-top: 0px; margin-bottom: 0px; font-size: 40px"";>מוכנים לשלם: <span id=""c_p_y""></span></p>","null","instructions","61","","","","","","","","","","","","","","","","","","","","","",""
"","","","","","html-keyboard-response","13","960988","0.0-13.0","5f93f61c-8691-442b-9f60-626d11a73ef7","null","<p>לא הגבתם בזמן המוקצב לתגובה. 
                <br>נסו להגיב מהר יותר בפעם הבאה.
                <br><br>לחצו על העכבר כדי להמשיך.</p>","1","instructions","","","","","","","","","","","","","","","","","","","","","","",""
"","","","","","html-slider-response","14","962797","0.0-14.0-0.0","5f93f61c-8691-442b-9f60-626d11a73ef7","1557","
                    <p style=""text-align: center;"">₪40<br>65%</p>
                    <p id=""wtp"" style=""text-align:center; margin-top: 0px; margin-bottom: 0px; font-size: 40px"";>מוכנים לשלם: <span id=""c_p_y""></span></p>","61","instructions","78","","","","","","","","","","","","","","","","","","","","","",""
"","","","","","html-keyboard-response","15","964092","0.0-14.0-1.0","5f93f61c-8691-442b-9f60-626d11a73ef7","null","<p>יפה. הפעם בחרתם לשלם לכל היותר ₪61.
                <br><br>לחצו על העכבר כדי להמשיך.</p>","1","instructions","","","","","","","","","","","","","","","","","","","","","","",""
"","","","","","html-keyboard-response","16","966212","0.0-15.0","5f93f61c-8691-442b-9f60-626d11a73ef7","null","<p>כעת נתחיל את הניסוי.
                <br><br>אתם תראו הגרלות ותתבקשו לבחור כמה תהיו מוכנים לשלם כדי להשתתף בהן.
                <br>יש לכם תקציב של ₪80 עבור כל הגרלה.
                <br>בסוף הניסוי הגרלה אחת תבחר באקראי ותשוחק.
                <br><br>לחצו על העכבר כדי להתחיל את הניסוי.</p>","1","instructions","","","","","","","","","","","","","","","","","","","","","","",""
"","","","","","html-keyboard-response","17","967477","0.0-16.0","5f93f61c-8691-442b-9f60-626d11a73ef7","null","<p style=""text-align: center;"">+</p>","null","fixation","","","","","","","","","","","","","","","","","","","","","","",""
"","","","","","html-slider-response","18","968489","0.0-17.0-0.0","5f93f61c-8691-442b-9f60-626d11a73ef7","1000","
                  <p style=""text-align: center;"">₪58
                                                <br>45%</p>
                  <p id=""wtp"" style=""text-align:center; margin-top: 0px; margin-bottom: 0px; font-size: 40px"";>&ensp;</p>","-","viewing","0","21","11C,18C,25A","","","","","","","","","","","","","","","","","","","",""
"","","","","","html-slider-response","19","970445","0.0-17.0-1.0","5f93f61c-8691-442b-9f60-626d11a73ef7","1954","
                  <p style=""text-align: center;"">₪58
                                                <br>45%</p>
                  <p id=""wtp"" style=""text-align:center; margin-top: 0px; margin-bottom: 0px; font-size: 40px"";>מוכנים לשלם: <span id=""c_p_y""></span></p>","58","evaluation","10","21","11C,18C,25A","45","58","58","","","","","","","","","","","","","","","","",""
"","","","","","html-keyboard-response","20","971276","0.0-17.0-2.0","5f93f61c-8691-442b-9f60-626d11a73ef7","null","<p style=""text-align: center;"">+</p>","null","fixation","","","","","","","","","","","","","","","","","","","","","","",""
"","","","","","html-slider-response","21","972285","0.0-17.0-0.1","5f93f61c-8691-442b-9f60-626d11a73ef7","1000","
                  <p style=""text-align: center;"">₪36
                                                <br>75%</p>
                  <p id=""wtp"" style=""text-align:center; margin-top: 0px; margin-bottom: 0px; font-size: 40px"";>&ensp;</p>","-","viewing","0","14","4B,5A,13B,16B","","","","","","","","","","","","","","","","","","","",""
"","","","","","html-slider-response","22","974221","0.0-17.0-1.1","5f93f61c-8691-442b-9f60-626d11a73ef7","1935","
                  <p style=""text-align: center;"">₪36
                                                <br>75%</p>
                  <p id=""wtp"" style=""text-align:center; margin-top: 0px; margin-bottom: 0px; font-size: 40px"";>מוכנים לשלם: <span id=""c_p_y""></span></p>","80","evaluation","26","14","4B,5A,13B,16B","75","36","80","","","","","","","","","","","","","","","","",""
"","","","","","html-keyboard-response","23","975563","0.0-17.0-2.1","5f93f61c-8691-442b-9f60-626d11a73ef7","null","<p style=""text-align: center;"">+</p>","null","fixation","","","","","","","","","","","","","","","","","","","","","","",""
"","","","","","html-slider-response","24","976575","0.0-17.0-0.2","5f93f61c-8691-442b-9f60-626d11a73ef7","1000","
                  <p style=""text-align: center;"">₪4
                                                <br>75%</p>
                  <p id=""wtp"" style=""text-align:center; margin-top: 0px; margin-bottom: 0px; font-size: 40px"";>&ensp;</p>","-","viewing","0","3","12B,20B,23B,27C,29C","","","","","","","","","","","","","","","","","","","",""
"","","","","","html-slider-response","25","979677","0.0-17.0-1.2","5f93f61c-8691-442b-9f60-626d11a73ef7","3101","
                  <p style=""text-align: center;"">₪4
                                                <br>75%</p>
                  <p id=""wtp"" style=""text-align:center; margin-top: 0px; margin-bottom: 0px; font-size: 40px"";>מוכנים לשלם: <span id=""c_p_y""></span></p>","52","evaluation","56","3","12B,20B,23B,27C,29C","75","4","52","","","","","","","","","","","","","","","","",""
"","","","","","html-keyboard-response","26","981120","0.0-17.0-2.2","5f93f61c-8691-442b-9f60-626d11a73ef7","null","<p style=""text-align: center;"">+</p>","null","fixation","","","","","","","","","","","","","","","","","","","","","","",""
"","","","","","html-slider-response","27","982125","0.0-17.0-0.3","5f93f61c-8691-442b-9f60-626d11a73ef7","1000","
                  <p style=""text-align: center;"">₪58
                                                <br>30%</p>
                  <p id=""wtp"" style=""text-align:center; margin-top: 0px; margin-bottom: 0px; font-size: 40px"";>&ensp;</p>","-","viewing","0","19","13C,30A","","","","","","","","","","","","","","","","","","","",""
"","","","","","html-slider-response","28","985677","0.0-17.0-1.3","5f93f61c-8691-442b-9f60-626d11a73ef7","3550","
                  <p style=""text-align: center;"">₪58
                                                <br>30%</p>
                  <p id=""wtp"" style=""text-align:center; margin-top: 0px; margin-bottom: 0px; font-size: 40px"";>מוכנים לשלם: <span id=""c_p_y""></span></p>","23","evaluation","16","19","13C,30A","30","58","23","","","","","","","","","","","","","","","","",""
"","","","","","html-keyboard-response","29","986936","0.0-17.0-2.3","5f93f61c-8691-442b-9f60-626d11a73ef7","null","<p style=""text-align: center;"">+</p>","null","fixation","","","","","","","","","","","","","","","","","","","","","","",""
"","","","","","html-slider-response","30","987939","0.0-17.0-0.4","5f93f61c-8691-442b-9f60-626d11a73ef7","1000","
                  <p style=""text-align: center;"">₪64
                                                <br>50%</p>
                  <p id=""wtp"" style=""text-align:center; margin-top: 0px; margin-bottom: 0px; font-size: 40px"";>&ensp;</p>","-","viewing","0","25","1B,3B,4A","","","","","","","","","","","","","","","","","","","",""
"","","","","","html-slider-response","31","991565","0.0-17.0-1.4","5f93f61c-8691-442b-9f60-626d11a73ef7","3625","
                  <p style=""text-align: center;"">₪64
                                                <br>50%</p>
                  <p id=""wtp"" style=""text-align:center; margin-top: 0px; margin-bottom: 0px; font-size: 40px"";>מוכנים לשלם: <span id=""c_p_y""></span></p>","48","evaluation","22","25","1B,3B,4A","50","64","48","","","","","","","","","","","","","","","","",""
"","","","","","html-keyboard-response","32","992242","0.0-17.0-2.4","5f93f61c-8691-442b-9f60-626d11a73ef7","null","<p style=""text-align: center;"">+</p>","null","fixation","","","","","","","","","","","","","","","","","","","","","","",""
"","","","","","html-slider-response","33","993253","0.0-17.0-0.5","5f93f61c-8691-442b-9f60-626d11a73ef7","1000","
                  <p style=""text-align: center;"">₪4
                                                <br>50%</p>
                  <p id=""wtp"" style=""text-align:center; margin-top: 0px; margin-bottom: 0px; font-size: 40px"";>&ensp;</p>","-","viewing","0","2","4C,17B","","","","","","","","","","","","","","","","","","","",""
"","","","","","html-slider-response","34","994389","0.0-17.0-1.5","5f93f61c-8691-442b-9f60-626d11a73ef7","1134","
                  <p style=""text-align: center;"">₪4
                                                <br>50%</p>
                  <p id=""wtp"" style=""text-align:center; margin-top: 0px; margin-bottom: 0px; font-size: 40px"";>מוכנים לשלם: <span id=""c_p_y""></span></p>","20","evaluation","59","2","4C,17B","50","4","20","","","","","","","","","","","","","","","","",""
"","","","","","html-keyboard-response","35","994941","0.0-17.0-2.5","5f93f61c-8691-442b-9f60-626d11a73ef7","null","<p style=""text-align: center;"">+</p>","null","fixation","","","","","","","","","","","","","","","","","","","","","","",""
"","","","","","html-slider-response","36","995943","0.0-17.0-0.6","5f93f61c-8691-442b-9f60-626d11a73ef7","1000","
                  <p style=""text-align: center;"">₪11
                                                <br>75%</p>
                  <p id=""wtp"" style=""text-align:center; margin-top: 0px; margin-bottom: 0px; font-size: 40px"";>&ensp;</p>","-","viewing","0","7","6B,18B,22C,24C,29A","","","","","","","","","","","","","","","","","","","",""
"","","","","","html-slider-response","37","997919","0.0-17.0-1.6","5f93f61c-8691-442b-9f60-626d11a73ef7","1988","
                  <p style=""text-align: center;"">₪11
                                                <br>75%</p>
                  <p id=""wtp"" style=""text-align:center; margin-top: 0px; margin-bottom: 0px; font-size: 40px"";>מוכנים לשלם: <span id=""c_p_y""></span></p>","75","evaluation","55","7","6B,18B,22C,24C,29A","75","11","75","","","","","","","","","","","","","","","","",""
"","","","","","html-keyboard-response","38","998933","0.0-17.0-2.6","5f93f61c-8691-442b-9f60-626d11a73ef7","null","<p style=""text-align: center;"">+</p>","null","fixation","","","","","","","","","","","","","","","","","","","","","","",""
"","","","","","html-slider-response","39","999939","0.0-17.0-0.7","5f93f61c-8691-442b-9f60-626d11a73ef7","1000","
                  <p style=""text-align: center;"">₪71
                                                <br>55%</p>
                  <p id=""wtp"" style=""text-align:center; margin-top: 0px; margin-bottom: 0px; font-size: 40px"";>&ensp;</p>","-","viewing","0","27","5B,18A","","","","","","","","","","","","","","","","","","","",""
"","","","","","html-slider-response","40","1002487","0.0-17.0-1.7","5f93f61c-8691-442b-9f60-626d11a73ef7","2547","
                  <p style=""text-align: center;"">₪71
                                                <br>55%</p>
                  <p id=""wtp"" style=""text-align:center; margin-top: 0px; margin-bottom: 0px; font-size: 40px"";>מוכנים לשלם: <span id=""c_p_y""></span></p>","50","evaluation","54","27","5B,18A","55","71","50","","","","","","","","","","","","","","","","",""
"","","","","","html-keyboard-response","41","1003724","0.0-17.0-2.7","5f93f61c-8691-442b-9f60-626d11a73ef7","null","<p style=""text-align: center;"">+</p>","null","fixation","","","","","","","","","","","","","","","","","","","","","","",""
"","","","","","html-slider-response","42","1004732","0.0-17.0-0.8","5f93f61c-8691-442b-9f60-626d11a73ef7","1000","
                  <p style=""text-align: center;"">₪4
                                                <br>25%</p>
                  <p id=""wtp"" style=""text-align:center; margin-top: 0px; margin-bottom: 0px; font-size: 40px"";>&ensp;</p>","-","viewing","0","1","6C,29B,30C","","","","","","","","","","","","","","","","","","","",""
"","","","","","html-slider-response","43","1006119","0.0-17.0-1.8","5f93f61c-8691-442b-9f60-626d11a73ef7","1386","
                  <p style=""text-align: center;"">₪4
                                                <br>25%</p>
                  <p id=""wtp"" style=""text-align:center; margin-top: 0px; margin-bottom: 0px; font-size: 40px"";>מוכנים לשלם: <span id=""c_p_y""></span></p>","19","evaluation","55","1","6C,29B,30C","25","4","19","","","","","","","","","","","","","","","","",""
"","","","","","html-keyboard-response","44","1007187","0.0-17.0-2.8","5f93f61c-8691-442b-9f60-626d11a73ef7","null","<p style=""text-align: center;"">+</p>","null","fixation","","","","","","","","","","","","","","","","","","","","","","",""
"","","","","","html-slider-response","45","1008203","0.0-17.0-0.9","5f93f61c-8691-442b-9f60-626d11a73ef7","1000","
                  <p style=""text-align: center;"">₪11
                                                <br>45%</p>
                  <p id=""wtp"" style=""text-align:center; margin-top: 0px; margin-bottom: 0px; font-size: 40px"";>&ensp;</p>","-","viewing","0","6","14B,21C,25C","","","","","","","","","","","","","","","","","","","",""
"","","","","","html-slider-response","46","1012217","0.0-17.0-1.9","5f93f61c-8691-442b-9f60-626d11a73ef7","null","
                  <p style=""text-align: center;"">₪11
                                                <br>45%</p>
                  <p id=""wtp"" style=""text-align:center; margin-top: 0px; margin-bottom: 0px; font-size: 40px"";>מוכנים לשלם: <span id=""c_p_y""></span></p>","null","evaluation","74","6","14B,21C,25C","45","11","32","","","","","","","","","","","","","","","","",""
"","","","","","html-keyboard-response","47","1013078","0.0-17.0-2.9","5f93f61c-8691-442b-9f60-626d11a73ef7","null","<p style=""text-align: center;"">+</p>","null","fixation","","","","","","","","","","","","","","","","","","","","","","",""
"","","","","","html-slider-response","48","1014093","0.0-17.0-0.10","5f93f61c-8691-442b-9f60-626d11a73ef7","1000","
                  <p style=""text-align: center;"">₪61
                                                <br>55%</p>
                  <p id=""wtp"" style=""text-align:center; margin-top: 0px; margin-bottom: 0px; font-size: 40px"";>&ensp;</p>","-","viewing","0","23","7B,26B","","","","","","","","","","","","","","","","","","","",""
"","","","","","html-slider-response","49","1016535","0.0-17.0-1.10","5f93f61c-8691-442b-9f60-626d11a73ef7","2441","
                  <p style=""text-align: center;"">₪61
                                                <br>55%</p>
                  <p id=""wtp"" style=""text-align:center; margin-top: 0px; margin-bottom: 0px; font-size: 40px"";>מוכנים לשלם: <span id=""c_p_y""></span></p>","59","evaluation","17","23","7B,26B","55","61","59","","","","","","","","","","","","","","","","",""
"","","","","","html-keyboard-response","50","1017411","0.0-17.0-2.10","5f93f61c-8691-442b-9f60-626d11a73ef7","null","<p style=""text-align: center;"">+</p>","null","fixation","","","","","","","","","","","","","","","","","","","","","","",""
"","","","","","html-slider-response","51","1018419","0.0-17.0-0.11","5f93f61c-8691-442b-9f60-626d11a73ef7","1000","
                  <p style=""text-align: center;"">₪36
                                                <br>70%</p>
                  <p id=""wtp"" style=""text-align:center; margin-top: 0px; margin-bottom: 0px; font-size: 40px"";>&ensp;</p>","-","viewing","0","13","3A,5C,10B","","","","","","","","","","","","","","","","","","","",""
"","","","","","html-slider-response","52","1019687","0.0-17.0-1.11","5f93f61c-8691-442b-9f60-626d11a73ef7","1267","
                  <p style=""text-align: center;"">₪36
                                                <br>70%</p>
                  <p id=""wtp"" style=""text-align:center; margin-top: 0px; margin-bottom: 0px; font-size: 40px"";>מוכנים לשלם: <span id=""c_p_y""></span></p>","70","evaluation","53","13","3A,5C,10B","70","36","70","","","","","","","","","","","","","","","","",""
"","","","","","html-keyboard-response","53","1020747","0.0-17.0-2.11","5f93f61c-8691-442b-9f60-626d11a73ef7","null","<p style=""text-align: center;"">+</p>","null","fixation","","","","","","","","","","","","","","","","","","","","","","",""
"","","","","","html-slider-response","54","1021748","0.0-17.0-0.12","5f93f61c-8691-442b-9f60-626d11a73ef7","1000","
                  <p style=""text-align: center;"">₪11
                                                <br>20%</p>
                  <p id=""wtp"" style=""text-align:center; margin-top: 0px; margin-bottom: 0px; font-size: 40px"";>&ensp;</p>","-","viewing","0","4","12C,17C,23C,28C","","","","","","","","","","","","","","","","","","","",""
"","","","","","html-slider-response","55","1022439","0.0-17.0-1.12","5f93f61c-8691-442b-9f60-626d11a73ef7","690","
                  <p style=""text-align: center;"">₪11
                                                <br>20%</p>
                  <p id=""wtp"" style=""text-align:center; margin-top: 0px; margin-bottom: 0px; font-size: 40px"";>מוכנים לשלם: <span id=""c_p_y""></span></p>","17","evaluation","75","4","12C,17C,23C,28C","20","11","17","","","","","","","","","","","","","","","","",""
"","","","","","html-keyboard-response","56","1023416","0.0-17.0-2.12","5f93f61c-8691-442b-9f60-626d11a73ef7","null","<p style=""text-align: center;"">+</p>","null","fixation","","","","","","","","","","","","","","","","","","","","","","",""
"","","","","","html-slider-response","57","1024429","0.0-17.0-0.13","5f93f61c-8691-442b-9f60-626d11a73ef7","1000","
                  <p style=""text-align: center;"">₪61
                                                <br>45%</p>
                  <p id=""wtp"" style=""text-align:center; margin-top: 0px; margin-bottom: 0px; font-size: 40px"";>&ensp;</p>","-","viewing","0","22","10A,11A","","","","","","","","","","","","","","","","","","","",""
"","","","","","html-slider-response","58","1025991","0.0-17.0-1.13","5f93f61c-8691-442b-9f60-626d11a73ef7","1561","
                  <p style=""text-align: center;"">₪61
                                                <br>45%</p>
                  <p id=""wtp"" style=""text-align:center; margin-top: 0px; margin-bottom: 0px; font-size: 40px"";>מוכנים לשלם: <span id=""c_p_y""></span></p>","48","evaluation","17","22","10A,11A","45","61","48","","","","","","","","","","","","","","","","",""
"","","","","","html-keyboard-response","59","1026943","0.0-17.0-2.13","5f93f61c-8691-442b-9f60-626d11a73ef7","null","<p style=""text-align: center;"">+</p>","null","fixation","","","","","","","","","","","","","","","","","","","","","","",""
"","","","","","html-slider-response","60","1027952","0.0-17.0-0.14","5f93f61c-8691-442b-9f60-626d11a73ef7","1000","
                  <p style=""text-align: center;"">₪16
                                                <br>20%</p>
                  <p id=""wtp"" style=""text-align:center; margin-top: 0px; margin-bottom: 0px; font-size: 40px"";>&ensp;</p>","-","viewing","0","8","14C,17A,20C,27A","","","","","","","","","","","","","","","","","","","",""
"","","","","","html-slider-response","61","1028527","0.0-17.0-1.14","5f93f61c-8691-442b-9f60-626d11a73ef7","574","
                  <p style=""text-align: center;"">₪16
                                                <br>20%</p>
                  <p id=""wtp"" style=""text-align:center; margin-top: 0px; margin-bottom: 0px; font-size: 40px"";>מוכנים לשלם: <span id=""c_p_y""></span></p>","18","evaluation","70","8","14C,17A,20C,27A","20","16","18","","","","","","","","","","","","","","","","",""
"","","","","","html-keyboard-response","62","1029531","0.0-17.0-2.14","5f93f61c-8691-442b-9f60-626d11a73ef7","null","<p style=""text-align: center;"">+</p>","null","fixation","","","","","","","","","","","","","","","","","","","","","","",""
"","","","","","html-slider-response","63","1030543","0.0-17.0-0.15","5f93f61c-8691-442b-9f60-626d11a73ef7","1000","
                  <p style=""text-align: center;"">₪64
                                                <br>25%</p>
                  <p id=""wtp"" style=""text-align:center; margin-top: 0px; margin-bottom: 0px; font-size: 40px"";>&ensp;</p>","-","viewing","0","24","6A,21A","","","","","","","","","","","","","","","","","","","",""
"","","","","","html-slider-response","64","1032111","0.0-17.0-1.15","5f93f61c-8691-442b-9f60-626d11a73ef7","1567","
                  <p style=""text-align: center;"">₪64
                                                <br>25%</p>
                  <p id=""wtp"" style=""text-align:center; margin-top: 0px; margin-bottom: 0px; font-size: 40px"";>מוכנים לשלם: <span id=""c_p_y""></span></p>","40","evaluation","4","24","6A,21A","25","64","40","","","","","","","","","","","","","","","","",""
"","","","","","html-keyboard-response","65","1032659","0.0-17.0-2.15","5f93f61c-8691-442b-9f60-626d11a73ef7","null","<p style=""text-align: center;"">+</p>","null","fixation","","","","","","","","","","","","","","","","","","","","","","",""
"","","","","","html-slider-response","66","1033671","0.0-17.0-0.16","5f93f61c-8691-442b-9f60-626d11a73ef7","1000","
                  <p style=""text-align: center;"">₪79
                                                <br>40%</p>
                  <p id=""wtp"" style=""text-align:center; margin-top: 0px; margin-bottom: 0px; font-size: 40px"";>&ensp;</p>","-","viewing","0","30","9B","","","","","","","","","","","","","","","","","","","",""
"","","","","","html-slider-response","67","1035335","0.0-17.0-1.16","5f93f61c-8691-442b-9f60-626d11a73ef7","1663","
                  <p style=""text-align: center;"">₪79
                                                <br>40%</p>
                  <p id=""wtp"" style=""text-align:center; margin-top: 0px; margin-bottom: 0px; font-size: 40px"";>מוכנים לשלם: <span id=""c_p_y""></span></p>","47","evaluation","34","30","9B","40","79","47","","","","","","","","","","","","","","","","",""
"","","","","","html-keyboard-response","68","1036480","0.0-17.0-2.16","5f93f61c-8691-442b-9f60-626d11a73ef7","null","<p style=""text-align: center;"">+</p>","null","fixation","","","","","","","","","","","","","","","","","","","","","","",""
"","","","","","html-slider-response","69","1037496","0.0-17.0-0.17","5f93f61c-8691-442b-9f60-626d11a73ef7","1000","
                  <p style=""text-align: center;"">₪18
                                                <br>25%</p>
                  <p id=""wtp"" style=""text-align:center; margin-top: 0px; margin-bottom: 0px; font-size: 40px"";>&ensp;</p>","-","viewing","0","9","14A,23A","","","","","","","","","","","","","","","","","","","",""
"","","","","","html-slider-response","70","1039119","0.0-17.0-1.17","5f93f61c-8691-442b-9f60-626d11a73ef7","1622","
                  <p style=""text-align: center;"">₪18
                                                <br>25%</p>
                  <p id=""wtp"" style=""text-align:center; margin-top: 0px; margin-bottom: 0px; font-size: 40px"";>מוכנים לשלם: <span id=""c_p_y""></span></p>","21","evaluation","70","9","14A,23A","25","18","21","","","","","","","","","","","","","","","","",""
"","","","","","html-keyboard-response","71","1040124","0.0-17.0-2.17","5f93f61c-8691-442b-9f60-626d11a73ef7","null","<p style=""text-align: center;"">+</p>","null","fixation","","","","","","","","","","","","","","","","","","","","","","",""
"","","","","","html-slider-response","72","1041136","0.0-17.0-0.18","5f93f61c-8691-442b-9f60-626d11a73ef7","1000","
                  <p style=""text-align: center;"">₪11
                                                <br>25%</p>
                  <p id=""wtp"" style=""text-align:center; margin-top: 0px; margin-bottom: 0px; font-size: 40px"";>&ensp;</p>","-","viewing","0","5","12A,27B,28B,30B","","","","","","","","","","","","","","","","","","","",""
"","","","","","html-slider-response","73","1042159","0.0-17.0-1.18","5f93f61c-8691-442b-9f60-626d11a73ef7","1022","
                  <p style=""text-align: center;"">₪11
                                                <br>25%</p>
                  <p id=""wtp"" style=""text-align:center; margin-top: 0px; margin-bottom: 0px; font-size: 40px"";>מוכנים לשלם: <span id=""c_p_y""></span></p>","22","evaluation","31","5","12A,27B,28B,30B","25","11","22","","","","","","","","","","","","","","","","",""
"","","","","","html-keyboard-response","74","1042801","0.0-17.0-2.18","5f93f61c-8691-442b-9f60-626d11a73ef7","null","<p style=""text-align: center;"">+</p>","null","fixation","","","","","","","","","","","","","","","","","","","","","","",""
"","","","","","html-slider-response","75","1043806","0.0-17.0-0.19","5f93f61c-8691-442b-9f60-626d11a73ef7","1000","
                  <p style=""text-align: center;"">₪36
                                                <br>30%</p>
                  <p id=""wtp"" style=""text-align:center; margin-top: 0px; margin-bottom: 0px; font-size: 40px"";>&ensp;</p>","-","viewing","0","11","3C,20A,22A","","","","","","","","","","","","","","","","","","","",""
"","","","","","html-slider-response","76","1044655","0.0-17.0-1.19","5f93f61c-8691-442b-9f60-626d11a73ef7","848","
                  <p style=""text-align: center;"">₪36
                                                <br>30%</p>
                  <p id=""wtp"" style=""text-align:center; margin-top: 0px; margin-bottom: 0px; font-size: 40px"";>מוכנים לשלם: <span id=""c_p_y""></span></p>","25","evaluation","57","11","3C,20A,22A","30","36","25","","","","","","","","","","","","","","","","",""
"","","","","","html-keyboard-response","77","1045243","0.0-17.0-2.19","5f93f61c-8691-442b-9f60-626d11a73ef7","null","<p style=""text-align: center;"">+</p>","null","fixation","","","","","","","","","","","","","","","","","","","","","","",""
"","","","","","html-slider-response","78","1046255","0.0-17.0-0.20","5f93f61c-8691-442b-9f60-626d11a73ef7","1000","
                  <p style=""text-align: center;"">₪76
                                                <br>65%</p>
                  <p id=""wtp"" style=""text-align:center; margin-top: 0px; margin-bottom: 0px; font-size: 40px"";>&ensp;</p>","-","viewing","0","29","8C,19A,24B","","","","","","","","","","","","","","","","","","","",""
"","","","","","html-slider-response","79","1048055","0.0-17.0-1.20","5f93f61c-8691-442b-9f60-626d11a73ef7","1798","
                  <p style=""text-align: center;"">₪76
                                                <br>65%</p>
                  <p id=""wtp"" style=""text-align:center; margin-top: 0px; margin-bottom: 0px; font-size: 40px"";>מוכנים לשלם: <span id=""c_p_y""></span></p>","60","evaluation","45","29","8C,19A,24B","65","76","60","","","","","","","","","","","","","","","","",""
"","","","","","html-keyboard-response","80","1049471","0.0-17.0-2.20","5f93f61c-8691-442b-9f60-626d11a73ef7","null","<p style=""text-align: center;"">+</p>","null","fixation","","","","","","","","","","","","","","","","","","","","","","",""
"","","","","","html-slider-response","81","1050480","0.0-17.0-0.21","5f93f61c-8691-442b-9f60-626d11a73ef7","1000","
                  <p style=""text-align: center;"">₪58
                                                <br>40%</p>
                  <p id=""wtp"" style=""text-align:center; margin-top: 0px; margin-bottom: 0px; font-size: 40px"";>&ensp;</p>","-","viewing","0","20","10C,13A,19C,21B","","","","","","","","","","","","","","","","","","","",""
"","","","","","html-slider-response","82","1052167","0.0-17.0-1.21","5f93f61c-8691-442b-9f60-626d11a73ef7","1687","
                  <p style=""text-align: center;"">₪58
                                                <br>40%</p>
                  <p id=""wtp"" style=""text-align:center; margin-top: 0px; margin-bottom: 0px; font-size: 40px"";>מוכנים לשלם: <span id=""c_p_y""></span></p>","43","evaluation","58","20","10C,13A,19C,21B","40","58","43","","","","","","","","","","","","","","","","",""
"","","","","","html-keyboard-response","83","1052792","0.0-17.0-2.21","5f93f61c-8691-442b-9f60-626d11a73ef7","null","<p style=""text-align: center;"">+</p>","null","fixation","","","","","","","","","","","","","","","","","","","","","","",""
"","","","","","html-slider-response","84","1053797","0.0-17.0-0.22","5f93f61c-8691-442b-9f60-626d11a73ef7","1000","
                  <p style=""text-align: center;"">₪39
                                                <br>60%</p>
                  <p id=""wtp"" style=""text-align:center; margin-top: 0px; margin-bottom: 0px; font-size: 40px"";>&ensp;</p>","-","viewing","0","15","9C,25B","","","","","","","","","","","","","","","","","","","",""
"","","","","","html-slider-response","85","1054647","0.0-17.0-1.22","5f93f61c-8691-442b-9f60-626d11a73ef7","849","
                  <p style=""text-align: center;"">₪39
                                                <br>60%</p>
                  <p id=""wtp"" style=""text-align:center; margin-top: 0px; margin-bottom: 0px; font-size: 40px"";>מוכנים לשלם: <span id=""c_p_y""></span></p>","60","evaluation","19","15","9C,25B","60","39","60","","","","","","","","","","","","","","","","",""
"","","","","","html-keyboard-response","86","1055560","0.0-17.0-2.22","5f93f61c-8691-442b-9f60-626d11a73ef7","null","<p style=""text-align: center;"">+</p>","null","fixation","","","","","","","","","","","","","","","","","","","","","","",""
"","","","","","html-slider-response","87","1056569","0.0-17.0-0.23","5f93f61c-8691-442b-9f60-626d11a73ef7","1000","
                  <p style=""text-align: center;"">₪36
                                                <br>60%</p>
                  <p id=""wtp"" style=""text-align:center; margin-top: 0px; margin-bottom: 0px; font-size: 40px"";>&ensp;</p>","-","viewing","0","12","1C,7C,15C","","","","","","","","","","","","","","","","","","","",""
"","","","","","html-slider-response","88","1058539","0.0-17.0-1.23","5f93f61c-8691-442b-9f60-626d11a73ef7","1981","
                  <p style=""text-align: center;"">₪36
                                                <br>60%</p>
                  <p id=""wtp"" style=""text-align:center; margin-top: 0px; margin-bottom: 0px; font-size: 40px"";>מוכנים לשלם: <span id=""c_p_y""></span></p>","57","evaluation","74","12","1C,7C,15C","60","36","57","","","","","","","","","","","","","","","","",""
"","","","","","html-keyboard-response","89","1059775","0.0-17.0-2.23","5f93f61c-8691-442b-9f60-626d11a73ef7","null","<p style=""text-align: center;"">+</p>","null","fixation","","","","","","","","","","","","","","","","","","","","","","",""
"","","","","","html-slider-response","90","1060777","0.0-17.0-0.24","5f93f61c-8691-442b-9f60-626d11a73ef7","1000","
                  <p style=""text-align: center;"">₪71
                                                <br>45%</p>
                  <p id=""wtp"" style=""text-align:center; margin-top: 0px; margin-bottom: 0px; font-size: 40px"";>&ensp;</p>","-","viewing","0","26","2B,16A","","","","","","","","","","","","","","","","","","","",""
"","","","","","html-slider-response","91","1061739","0.0-17.0-1.24","5f93f61c-8691-442b-9f60-626d11a73ef7","961","
                  <p style=""text-align: center;"">₪71
                                                <br>45%</p>
                  <p id=""wtp"" style=""text-align:center; margin-top: 0px; margin-bottom: 0px; font-size: 40px"";>מוכנים לשלם: <span id=""c_p_y""></span></p>","45","evaluation","51","26","2B,16A","45","71","45","","","","","","","","","","","","","","","","",""
"","","","","","html-keyboard-response","92","1062697","0.0-17.0-2.24","5f93f61c-8691-442b-9f60-626d11a73ef7","null","<p style=""text-align: center;"">+</p>","null","fixation","","","","","","","","","","","","","","","","","","","","","","",""
"","","","","","html-slider-response","93","1063709","0.0-17.0-0.25","5f93f61c-8691-442b-9f60-626d11a73ef7","1000","
                  <p style=""text-align: center;"">₪79
                                                <br>65%</p>
                  <p id=""wtp"" style=""text-align:center; margin-top: 0px; margin-bottom: 0px; font-size: 40px"";>&ensp;</p>","-","viewing","0","31","8A","","","","","","","","","","","","","","","","","","","",""
"","","","","","html-slider-response","94","1065451","0.0-17.0-1.25","5f93f61c-8691-442b-9f60-626d11a73ef7","1741","
                  <p style=""text-align: center;"">₪79
                                                <br>65%</p>
                  <p id=""wtp"" style=""text-align:center; margin-top: 0px; margin-bottom: 0px; font-size: 40px"";>מוכנים לשלם: <span id=""c_p_y""></span></p>","73","evaluation","9","31","8A","65","79","73","","","","","","","","","","","","","","","","",""
"","","","","","html-keyboard-response","95","1066679","0.0-17.0-2.25","5f93f61c-8691-442b-9f60-626d11a73ef7","null","<p style=""text-align: center;"">+</p>","null","fixation","","","","","","","","","","","","","","","","","","","","","","",""
"","","","","","html-slider-response","96","1067688","0.0-17.0-0.26","5f93f61c-8691-442b-9f60-626d11a73ef7","1000","
                  <p style=""text-align: center;"">₪71
                                                <br>75%</p>
                  <p id=""wtp"" style=""text-align:center; margin-top: 0px; margin-bottom: 0px; font-size: 40px"";>&ensp;</p>","-","viewing","0","28","8B","","","","","","","","","","","","","","","","","","","",""
"","","","","","html-slider-response","97","1068539","0.0-17.0-1.26","5f93f61c-8691-442b-9f60-626d11a73ef7","850","
                  <p style=""text-align: center;"">₪71
                                                <br>75%</p>
                  <p id=""wtp"" style=""text-align:center; margin-top: 0px; margin-bottom: 0px; font-size: 40px"";>מוכנים לשלם: <span id=""c_p_y""></span></p>","78","evaluation","57","28","8B","75","71","78","","","","","","","","","","","","","","","","",""
"","","","","","html-keyboard-response","98","1069205","0.0-17.0-2.26","5f93f61c-8691-442b-9f60-626d11a73ef7","null","<p style=""text-align: center;"">+</p>","null","fixation","","","","","","","","","","","","","","","","","","","","","","",""
"","","","","","html-slider-response","99","1070220","0.0-17.0-0.27","5f93f61c-8691-442b-9f60-626d11a73ef7","1000","
                  <p style=""text-align: center;"">₪43
                                                <br>60%</p>
                  <p id=""wtp"" style=""text-align:center; margin-top: 0px; margin-bottom: 0px; font-size: 40px"";>&ensp;</p>","-","viewing","0","17","2A,7A,9A,15B","","","","","","","","","","","","","","","","","","","",""
"","","","","","html-slider-response","100","1071227","0.0-17.0-1.27","5f93f61c-8691-442b-9f60-626d11a73ef7","1006","
                  <p style=""text-align: center;"">₪43
                                                <br>60%</p>
                  <p id=""wtp"" style=""text-align:center; margin-top: 0px; margin-bottom: 0px; font-size: 40px"";>מוכנים לשלם: <span id=""c_p_y""></span></p>","64","evaluation","5","17","2A,7A,9A,15B","60","43","64","","","","","","","","","","","","","","","","",""
"","","","","","html-keyboard-response","101","1072166","0.0-17.0-2.27","5f93f61c-8691-442b-9f60-626d11a73ef7","null","<p style=""text-align: center;"">+</p>","null","fixation","","","","","","","","","","","","","","","","","","","","","","",""
"","","","","","html-slider-response","102","1073173","0.0-17.0-0.28","5f93f61c-8691-442b-9f60-626d11a73ef7","1000","
                  <p style=""text-align: center;"">₪18
                                                <br>50%</p>
                  <p id=""wtp"" style=""text-align:center; margin-top: 0px; margin-bottom: 0px; font-size: 40px"";>&ensp;</p>","-","viewing","0","10","2C,16C,22B,28A","","","","","","","","","","","","","","","","","","","",""
"","","","","","html-slider-response","103","1074739","0.0-17.0-1.28","5f93f61c-8691-442b-9f60-626d11a73ef7","1565","
                  <p style=""text-align: center;"">₪18
                                                <br>50%</p>
                  <p id=""wtp"" style=""text-align:center; margin-top: 0px; margin-bottom: 0px; font-size: 40px"";>מוכנים לשלם: <span id=""c_p_y""></span></p>","38","evaluation","42","10","2C,16C,22B,28A","50","18","38","","","","","","","","","","","","","","","","",""
"","","","","","html-keyboard-response","104","1076173","0.0-17.0-2.28","5f93f61c-8691-442b-9f60-626d11a73ef7","null","<p style=""text-align: center;"">+</p>","null","fixation","","","","","","","","","","","","","","","","","","","","","","",""
"","","","","","html-slider-response","105","1077175","0.0-17.0-0.29","5f93f61c-8691-442b-9f60-626d11a73ef7","1000","
                  <p style=""text-align: center;"">₪43
                                                <br>75%</p>
                  <p id=""wtp"" style=""text-align:center; margin-top: 0px; margin-bottom: 0px; font-size: 40px"";>&ensp;</p>","-","viewing","0","18","11B,19B,24A,26A","","","","","","","","","","","","","","","","","","","",""
"","","","","","html-slider-response","106","1078156","0.0-17.0-1.29","5f93f61c-8691-442b-9f60-626d11a73ef7","980","
                  <p style=""text-align: center;"">₪43
                                                <br>75%</p>
                  <p id=""wtp"" style=""text-align:center; margin-top: 0px; margin-bottom: 0px; font-size: 40px"";>מוכנים לשלם: <span id=""c_p_y""></span></p>","70","evaluation","39","18","11B,19B,24A,26A","75","43","70","","","","","","","","","","","","","","","","",""
"","","","","","html-keyboard-response","107","1079029","0.0-17.0-2.29","5f93f61c-8691-442b-9f60-626d11a73ef7","null","<p style=""text-align: center;"">+</p>","null","fixation","","","","","","","","","","","","","","","","","","","","","","",""
"","","","","","html-slider-response","108","1080037","0.0-17.0-0.30","5f93f61c-8691-442b-9f60-626d11a73ef7","1000","
                  <p style=""text-align: center;"">₪39
                                                <br>65%</p>
                  <p id=""wtp"" style=""text-align:center; margin-top: 0px; margin-bottom: 0px; font-size: 40px"";>&ensp;</p>","-","viewing","0","16","1A,15A,26C","","","","","","","","","","","","","","","","","","","",""
"","","","","","html-slider-response","109","1081155","0.0-17.0-1.30","5f93f61c-8691-442b-9f60-626d11a73ef7","1117","
                  <p style=""text-align: center;"">₪39
                                                <br>65%</p>
                  <p id=""wtp"" style=""text-align:center; margin-top: 0px; margin-bottom: 0px; font-size: 40px"";>מוכנים לשלם: <span id=""c_p_y""></span></p>","71","evaluation","68","16","1A,15A,26C","65","39","71","","","","","","","","","","","","","","","","",""
"","","","","","html-keyboard-response","110","1082548","0.0-17.0-2.30","5f93f61c-8691-442b-9f60-626d11a73ef7","null","<p style=""text-align: center;"">+</p>","null","fixation","","","","","","","","","","","","","","","","","","","","","","",""
"","","","","","html-keyboard-response","111","1083551","0.0-18.0","5f93f61c-8691-442b-9f60-626d11a73ef7","null","<p style=""text-align: center;"">+</p>","null","fixation","","","","","","","","","","","","","","","","","","","","","","",""
"","","","","","html-keyboard-response","112","1086019","0.0-19.0","5f93f61c-8691-442b-9f60-626d11a73ef7","null","<p>הפסקה.
          <br>לחצו כדי להמשיך.</p>","1","scan_wait","","","","","","","","","","","","","","","","","","","","","","",""
"","","","","","html-keyboard-response","113","1087021","0.0-20.0","5f93f61c-8691-442b-9f60-626d11a73ef7","null","<p style=""text-align: center;"">+</p>","null","fixation","","","","","","","","","","","","","","","","","","","","","","",""
"","","","","","html-slider-response","114","1088035","0.0-21.0-0.0","5f93f61c-8691-442b-9f60-626d11a73ef7","1000","
                  <p style=""text-align: center;"">₪16
                                                <br>20%</p>
                  <p id=""wtp"" style=""text-align:center; margin-top: 0px; margin-bottom: 0px; font-size: 40px"";>&ensp;</p>","-","viewing","0","8","14C,17A,20C,27A","","","","","","","","","","","","","","","","","","","",""
"","","","","","html-slider-response","115","1089011","0.0-21.0-1.0","5f93f61c-8691-442b-9f60-626d11a73ef7","975","
                  <p style=""text-align: center;"">₪16
                                                <br>20%</p>
                  <p id=""wtp"" style=""text-align:center; margin-top: 0px; margin-bottom: 0px; font-size: 40px"";>מוכנים לשלם: <span id=""c_p_y""></span></p>","20","evaluation","19","8","14C,17A,20C,27A","20","16","20","","","","","","","","","","","","","","","","",""
"","","","","","html-keyboard-response","116","1090351","0.0-21.0-2.0","5f93f61c-8691-442b-9f60-626d11a73ef7","null","<p style=""text-align: center;"">+</p>","null","fixation","","","","","","","","","","","","","","","","","","","","","","",""
"","","","","","html-slider-response","117","1091359","0.0-21.0-0.1","5f93f61c-8691-442b-9f60-626d11a73ef7","1000","
                  <p style=""text-align: center;"">₪4
                                                <br>25%</p>
                  <p id=""wtp"" style=""text-align:center; margin-top: 0px; margin-bottom: 0px; font-size: 40px"";>&ensp;</p>","-","viewing","0","1","6C,29B,30C","","","","","","","","","","","","","","","","","","","",""
"","","","","","html-slider-response","118","1093099","0.0-21.0-1.1","5f93f61c-8691-442b-9f60-626d11a73ef7","1739","
                  <p style=""text-align: center;"">₪4
                                                <br>25%</p>
                  <p id=""wtp"" style=""text-align:center; margin-top: 0px; margin-bottom: 0px; font-size: 40px"";>מוכנים לשלם: <span id=""c_p_y""></span></p>","32","evaluation","71","1","6C,29B,30C","25","4","32","","","","","","","","","","","","","","","","",""
"","","","","","html-keyboard-response","119","1094582","0.0-21.0-2.1","5f93f61c-8691-442b-9f60-626d11a73ef7","null","<p style=""text-align: center;"">+</p>","null","fixation","","","","","","","","","","","","","","","","","","","","","","",""
"","","","","","html-slider-response","120","1095596","0.0-21.0-0.2","5f93f61c-8691-442b-9f60-626d11a73ef7","1000","
                  <p style=""text-align: center;"">₪61
                                                <br>45%</p>
                  <p id=""wtp"" style=""text-align:center; margin-top: 0px; margin-bottom: 0px; font-size: 40px"";>&ensp;</p>","-","viewing","0","22","10A,11A","","","","","","","","","","","","","","","","","","","",""
"","","","","","html-slider-response","121","1096947","0.0-21.0-1.2","5f93f61c-8691-442b-9f60-626d11a73ef7","1350","
                  <p style=""text-align: center;"">₪61
                                                <br>45%</p>
                  <p id=""wtp"" style=""text-align:center; margin-top: 0px; margin-bottom: 0px; font-size: 40px"";>מוכנים לשלם: <span id=""c_p_y""></span></p>","52","evaluation","72","22","10A,11A","45","61","52","","","","","","","","","","","","","","","","",""
"","","","","","html-keyboard-response","122","1098246","0.0-21.0-2.2","5f93f61c-8691-442b-9f60-626d11a73ef7","null","<p style=""text-align: center;"">+</p>","null","fixation","","","","","","","","","","","","","","","","","","","","","","",""
"","","","","","html-slider-response","123","1099252","0.0-21.0-0.3","5f93f61c-8691-442b-9f60-626d11a73ef7","1000","
                  <p style=""text-align: center;"">₪43
                                                <br>60%</p>
                  <p id=""wtp"" style=""text-align:center; margin-top: 0px; margin-bottom: 0px; font-size: 40px"";>&ensp;</p>","-","viewing","0","17","2A,7A,9A,15B","","","","","","","","","","","","","","","","","","","",""
"","","","","","html-slider-response","124","1100731","0.0-21.0-1.3","5f93f61c-8691-442b-9f60-626d11a73ef7","1479","
                  <p style=""text-align: center;"">₪43
                                                <br>60%</p>
                  <p id=""wtp"" style=""text-align:center; margin-top: 0px; margin-bottom: 0px; font-size: 40px"";>מוכנים לשלם: <span id=""c_p_y""></span></p>","62","evaluation","32","17","2A,7A,9A,15B","60","43","62","","","","","","","","","","","","","","","","",""
"","","","","","html-keyboard-response","125","1101716","0.0-21.0-2.3","5f93f61c-8691-442b-9f60-626d11a73ef7","null","<p style=""text-align: center;"">+</p>","null","fixation","","","","","","","","","","","","","","","","","","","","","","",""
"","","","","","html-slider-response","126","1102720","0.0-21.0-0.4","5f93f61c-8691-442b-9f60-626d11a73ef7","1000","
                  <p style=""text-align: center;"">₪11
                                                <br>25%</p>
                  <p id=""wtp"" style=""text-align:center; margin-top: 0px; margin-bottom: 0px; font-size: 40px"";>&ensp;</p>","-","viewing","0","5","12A,27B,28B,30B","","","","","","","","","","","","","","","","","","","",""
"","","","","","html-slider-response","127","1103227","0.0-21.0-1.4","5f93f61c-8691-442b-9f60-626d11a73ef7","506","
                  <p style=""text-align: center;"">₪11
                                                <br>25%</p>
                  <p id=""wtp"" style=""text-align:center; margin-top: 0px; margin-bottom: 0px; font-size: 40px"";>מוכנים לשלם: <span id=""c_p_y""></span></p>","20","evaluation","20","5","12A,27B,28B,30B","25","11","20","","","","","","","","","","","","","","","","",""
"","","","","","html-keyboard-response","128","1104534","0.0-21.0-2.4","5f93f61c-8691-442b-9f60-626d11a73ef7","null","<p style=""text-align: center;"">+</p>","null","fixation","","","","","","","","","","","","","","","","","","","","","","",""
"","","","","","html-slider-response","129","1105536","0.0-21.0-0.5","5f93f61c-8691-442b-9f60-626d11a73ef7","1000","
                  <p style=""text-align: center;"">₪36
                                                <br>70%</p>
                  <p id=""wtp"" style=""text-align:center; margin-top: 0px; margin-bottom: 0px; font-size: 40px"";>&ensp;</p>","-","viewing","0","13","3A,5C,10B","","","","","","","","","","","","","","","","","","","",""
"","","","","","html-slider-response","130","1106651","0.0-21.0-1.5","5f93f61c-8691-442b-9f60-626d11a73ef7","1114","
                  <p style=""text-align: center;"">₪36
                                                <br>70%</p>
                  <p id=""wtp"" style=""text-align:center; margin-top: 0px; margin-bottom: 0px; font-size: 40px"";>מוכנים לשלם: <span id=""c_p_y""></span></p>","68","evaluation","76","13","3A,5C,10B","70","36","68","","","","","","","","","","","","","","","","",""
"","","","","","html-keyboard-response","131","1107449","0.0-21.0-2.5","5f93f61c-8691-442b-9f60-626d11a73ef7","null","<p style=""text-align: center;"">+</p>","null","fixation","","","","","","","","","","","","","","","","","","","","","","",""
"","","","","","html-slider-response","132","1108452","0.0-21.0-0.6","5f93f61c-8691-442b-9f60-626d11a73ef7","1000","
                  <p style=""text-align: center;"">₪58
                                                <br>30%</p>
                  <p id=""wtp"" style=""text-align:center; margin-top: 0px; margin-bottom: 0px; font-size: 40px"";>&ensp;</p>","-","viewing","0","19","13C,30A","","","","","","","","","","","","","","","","","","","",""
"","","","","","html-slider-response","133","1109851","0.0-21.0-1.6","5f93f61c-8691-442b-9f60-626d11a73ef7","1398","
                  <p style=""text-align: center;"">₪58
                                                <br>30%</p>
                  <p id=""wtp"" style=""text-align:center; margin-top: 0px; margin-bottom: 0px; font-size: 40px"";>מוכנים לשלם: <span id=""c_p_y""></span></p>","22","evaluation","45","19","13C,30A","30","58","22","","","","","","","","","","","","","","","","",""
"","","","","","html-keyboard-response","134","1110970","0.0-21.0-2.6","5f93f61c-8691-442b-9f60-626d11a73ef7","null","<p style=""text-align: center;"">+</p>","null","fixation","","","","","","","","","","","","","","","","","","","","","","",""
"","","","","","html-slider-response","135","1111971","0.0-21.0-0.7","5f93f61c-8691-442b-9f60-626d11a73ef7","1000","
                  <p style=""text-align: center;"">₪39
                                                <br>60%</p>
                  <p id=""wtp"" style=""text-align:center; margin-top: 0px; margin-bottom: 0px; font-size: 40px"";>&ensp;</p>","-","viewing","0","15","9C,25B","","","","","","","","","","","","","","","","","","","",""
"","","","","","html-slider-response","136","1113139","0.0-21.0-1.7","5f93f61c-8691-442b-9f60-626d11a73ef7","1167","
                  <p style=""text-align: center;"">₪39
                                                <br>60%</p>
                  <p id=""wtp"" style=""text-align:center; margin-top: 0px; margin-bottom: 0px; font-size: 40px"";>מוכנים לשלם: <span id=""c_p_y""></span></p>","61","evaluation","26","15","9C,25B","60","39","61","","","","","","","","","","","","","","","","",""
"","","","","","html-keyboard-response","137","1114606","0.0-21.0-2.7","5f93f61c-8691-442b-9f60-626d11a73ef7","null","<p style=""text-align: center;"">+</p>","null","fixation","","","","","","","","","","","","","","","","","","","","","","",""
"","","","","","html-slider-response","138","1115613","0.0-21.0-0.8","5f93f61c-8691-442b-9f60-626d11a73ef7","1000","
                  <p style=""text-align: center;"">₪39
                                                <br>65%</p>
                  <p id=""wtp"" style=""text-align:center; margin-top: 0px; margin-bottom: 0px; font-size: 40px"";>&ensp;</p>","-","viewing","0","16","1A,15A,26C","","","","","","","","","","","","","","","","","","","",""
"","","","","","html-slider-response","139","1116963","0.0-21.0-1.8","5f93f61c-8691-442b-9f60-626d11a73ef7","1350","
                  <p style=""text-align: center;"">₪39
                                                <br>65%</p>
                  <p id=""wtp"" style=""text-align:center; margin-top: 0px; margin-bottom: 0px; font-size: 40px"";>מוכנים לשלם: <span id=""c_p_y""></span></p>","63","evaluation","20","16","1A,15A,26C","65","39","63","","","","","","","","","","","","","","","","",""
"","","","","","html-keyboard-response","140","1117935","0.0-21.0-2.8","5f93f61c-8691-442b-9f60-626d11a73ef7","null","<p style=""text-align: center;"">+</p>","null","fixation","","","","","","","","","","","","","","","","","","","","","","",""
"","","","","","html-slider-response","141","1118938","0.0-21.0-0.9","5f93f61c-8691-442b-9f60-626d11a73ef7","1000","
                  <p style=""text-align: center;"">₪58
                                                <br>45%</p>
                  <p id=""wtp"" style=""text-align:center; margin-top: 0px; margin-bottom: 0px; font-size: 40px"";>&ensp;</p>","-","viewing","0","21","11C,18C,25A","","","","","","","","","","","","","","","","","","","",""
"","","","","","html-slider-response","142","1120422","0.0-21.0-1.9","5f93f61c-8691-442b-9f60-626d11a73ef7","1484","
                  <p style=""text-align: center;"">₪58
                                                <br>45%</p>
                  <p id=""wtp"" style=""text-align:center; margin-top: 0px; margin-bottom: 0px; font-size: 40px"";>מוכנים לשלם: <span id=""c_p_y""></span></p>","41","evaluation","78","21","11C,18C,25A","45","58","41","","","","","","","","","","","","","","","","",""
"","","","","","html-keyboard-response","143","1121630","0.0-21.0-2.9","5f93f61c-8691-442b-9f60-626d11a73ef7","null","<p style=""text-align: center;"">+</p>","null","fixation","","","","","","","","","","","","","","","","","","","","","","",""
"","","","","","html-slider-response","144","1122631","0.0-21.0-0.10","5f93f61c-8691-442b-9f60-626d11a73ef7","1000","
                  <p style=""text-align: center;"">₪36
                                                <br>60%</p>
                  <p id=""wtp"" style=""text-align:center; margin-top: 0px; margin-bottom: 0px; font-size: 40px"";>&ensp;</p>","-","viewing","0","12","1C,7C,15C","","","","","","","","","","","","","","","","","","","",""
"","","","","","html-slider-response","145","1124070","0.0-21.0-1.10","5f93f61c-8691-442b-9f60-626d11a73ef7","1437","
                  <p style=""text-align: center;"">₪36
                                                <br>60%</p>
                  <p id=""wtp"" style=""text-align:center; margin-top: 0px; margin-bottom: 0px; font-size: 40px"";>מוכנים לשלם: <span id=""c_p_y""></span></p>","66","evaluation","13","12","1C,7C,15C","60","36","66","","","","","","","","","","","","","","","","",""
"","","","","","html-keyboard-response","146","1125121","0.0-21.0-2.10","5f93f61c-8691-442b-9f60-626d11a73ef7","null","<p style=""text-align: center;"">+</p>","null","fixation","","","","","","","","","","","","","","","","","","","","","","",""
"","","","","","html-slider-response","147","1126130","0.0-21.0-0.11","5f93f61c-8691-442b-9f60-626d11a73ef7","1000","
                  <p style=""text-align: center;"">₪11
                                                <br>45%</p>
                  <p id=""wtp"" style=""text-align:center; margin-top: 0px; margin-bottom: 0px; font-size: 40px"";>&ensp;</p>","-","viewing","0","6","14B,21C,25C","","","","","","","","","","","","","","","","","","","",""
"","","","","","html-slider-response","148","1128558","0.0-21.0-1.11","5f93f61c-8691-442b-9f60-626d11a73ef7","2427","
                  <p style=""text-align: center;"">₪11
                                                <br>45%</p>
                  <p id=""wtp"" style=""text-align:center; margin-top: 0px; margin-bottom: 0px; font-size: 40px"";>מוכנים לשלם: <span id=""c_p_y""></span></p>","28","evaluation","67","6","14B,21C,25C","45","11","28","","","","","","","","","","","","","","","","",""
"","","","","","html-keyboard-response","149","1129535","0.0-21.0-2.11","5f93f61c-8691-442b-9f60-626d11a73ef7","null","<p style=""text-align: center;"">+</p>","null","fixation","","","","","","","","","","","","","","","","","","","","","","",""
"","","","","","html-slider-response","150","1130542","0.0-21.0-0.12","5f93f61c-8691-442b-9f60-626d11a73ef7","1000","
                  <p style=""text-align: center;"">₪76
                                                <br>65%</p>
                  <p id=""wtp"" style=""text-align:center; margin-top: 0px; margin-bottom: 0px; font-size: 40px"";>&ensp;</p>","-","viewing","0","29","8C,19A,24B","","","","","","","","","","","","","","","","","","","",""
"","","","","","html-slider-response","151","1132046","0.0-21.0-1.12","5f93f61c-8691-442b-9f60-626d11a73ef7","1502","
                  <p style=""text-align: center;"">₪76
                                                <br>65%</p>
                  <p id=""wtp"" style=""text-align:center; margin-top: 0px; margin-bottom: 0px; font-size: 40px"";>מוכנים לשלם: <span id=""c_p_y""></span></p>","72","evaluation","45","29","8C,19A,24B","65","76","72","","","","","","","","","","","","","","","","",""
"","","","","","html-keyboard-response","152","1132579","0.0-21.0-2.12","5f93f61c-8691-442b-9f60-626d11a73ef7","null","<p style=""text-align: center;"">+</p>","null","fixation","","","","","","","","","","","","","","","","","","","","","","",""
"","","","","","html-slider-response","153","1133582","0.0-21.0-0.13","5f93f61c-8691-442b-9f60-626d11a73ef7","1000","
                  <p style=""text-align: center;"">₪4
                                                <br>75%</p>
                  <p id=""wtp"" style=""text-align:center; margin-top: 0px; margin-bottom: 0px; font-size: 40px"";>&ensp;</p>","-","viewing","0","3","12B,20B,23B,27C,29C","","","","","","","","","","","","","","","","","","","",""
"","","","","","html-slider-response","154","1135366","0.0-21.0-1.13","5f93f61c-8691-442b-9f60-626d11a73ef7","1783","
                  <p style=""text-align: center;"">₪4
                                                <br>75%</p>
                  <p id=""wtp"" style=""text-align:center; margin-top: 0px; margin-bottom: 0px; font-size: 40px"";>מוכנים לשלם: <span id=""c_p_y""></span></p>","60","evaluation","79","3","12B,20B,23B,27C,29C","75","4","60","","","","","","","","","","","","","","","","",""
"","","","","","html-keyboard-response","155","1136264","0.0-21.0-2.13","5f93f61c-8691-442b-9f60-626d11a73ef7","null","<p style=""text-align: center;"">+</p>","null","fixation","","","","","","","","","","","","","","","","","","","","","","",""
"","","","","","html-slider-response","156","1137275","0.0-21.0-0.14","5f93f61c-8691-442b-9f60-626d11a73ef7","1000","
                  <p style=""text-align: center;"">₪18
                                                <br>50%</p>
                  <p id=""wtp"" style=""text-align:center; margin-top: 0px; margin-bottom: 0px; font-size: 40px"";>&ensp;</p>","-","viewing","0","10","2C,16C,22B,28A","","","","","","","","","","","","","","","","","","","",""
"","","","","","html-slider-response","157","1139230","0.0-21.0-1.14","5f93f61c-8691-442b-9f60-626d11a73ef7","1954","
                  <p style=""text-align: center;"">₪18
                                                <br>50%</p>
                  <p id=""wtp"" style=""text-align:center; margin-top: 0px; margin-bottom: 0px; font-size: 40px"";>מוכנים לשלם: <span id=""c_p_y""></span></p>","33","evaluation","69","10","2C,16C,22B,28A","50","18","33","","","","","","","","","","","","","","","","",""
"","","","","","html-keyboard-response","158","1140338","0.0-21.0-2.14","5f93f61c-8691-442b-9f60-626d11a73ef7","null","<p style=""text-align: center;"">+</p>","null","fixation","","","","","","","","","","","","","","","","","","","","","","",""
"","","","","","html-slider-response","159","1141345","0.0-21.0-0.15","5f93f61c-8691-442b-9f60-626d11a73ef7","1000","
                  <p style=""text-align: center;"">₪71
                                                <br>45%</p>
                  <p id=""wtp"" style=""text-align:center; margin-top: 0px; margin-bottom: 0px; font-size: 40px"";>&ensp;</p>","-","viewing","0","26","2B,16A","","","","","","","","","","","","","","","","","","","",""
"","","","","","html-slider-response","160","1142942","0.0-21.0-1.15","5f93f61c-8691-442b-9f60-626d11a73ef7","1595","
                  <p style=""text-align: center;"">₪71
                                                <br>45%</p>
                  <p id=""wtp"" style=""text-align:center; margin-top: 0px; margin-bottom: 0px; font-size: 40px"";>מוכנים לשלם: <span id=""c_p_y""></span></p>","41","evaluation","68","26","2B,16A","45","71","41","","","","","","","","","","","","","","","","",""
"","","","","","html-keyboard-response","161","1143755","0.0-21.0-2.15","5f93f61c-8691-442b-9f60-626d11a73ef7","null","<p style=""text-align: center;"">+</p>","null","fixation","","","","","","","","","","","","","","","","","","","","","","",""
"","","","","","html-slider-response","162","1144763","0.0-21.0-0.16","5f93f61c-8691-442b-9f60-626d11a73ef7","1000","
                  <p style=""text-align: center;"">₪61
                                                <br>55%</p>
                  <p id=""wtp"" style=""text-align:center; margin-top: 0px; margin-bottom: 0px; font-size: 40px"";>&ensp;</p>","-","viewing","0","23","7B,26B","","","","","","","","","","","","","","","","","","","",""
"","","","","","html-slider-response","163","1145911","0.0-21.0-1.16","5f93f61c-8691-442b-9f60-626d11a73ef7","1147","
                  <p style=""text-align: center;"">₪61
                                                <br>55%</p>
                  <p id=""wtp"" style=""text-align:center; margin-top: 0px; margin-bottom: 0px; font-size: 40px"";>מוכנים לשלם: <span id=""c_p_y""></span></p>","56","evaluation","64","23","7B,26B","55","61","56","","","","","","","","","","","","","","","","",""
"","","","","","html-keyboard-response","164","1147338","0.0-21.0-2.16","5f93f61c-8691-442b-9f60-626d11a73ef7","null","<p style=""text-align: center;"">+</p>","null","fixation","","","","","","","","","","","","","","","","","","","","","","",""
"","","","","","html-slider-response","165","1148350","0.0-21.0-0.17","5f93f61c-8691-442b-9f60-626d11a73ef7","1000","
                  <p style=""text-align: center;"">₪4
                                                <br>50%</p>
                  <p id=""wtp"" style=""text-align:center; margin-top: 0px; margin-bottom: 0px; font-size: 40px"";>&ensp;</p>","-","viewing","0","2","4C,17B","","","","","","","","","","","","","","","","","","","",""
"","","","","","html-slider-response","166","1149742","0.0-21.0-1.17","5f93f61c-8691-442b-9f60-626d11a73ef7","1391","
                  <p style=""text-align: center;"">₪4
                                                <br>50%</p>
                  <p id=""wtp"" style=""text-align:center; margin-top: 0px; margin-bottom: 0px; font-size: 40px"";>מוכנים לשלם: <span id=""c_p_y""></span></p>","28","evaluation","67","2","4C,17B","50","4","28","","","","","","","","","","","","","","","","",""
"","","","","","html-keyboard-response","167","1151118","0.0-21.0-2.17","5f93f61c-8691-442b-9f60-626d11a73ef7","null","<p style=""text-align: center;"">+</p>","null","fixation","","","","","","","","","","","","","","","","","","","","","","",""
"","","","","","html-slider-response","168","1152119","0.0-21.0-0.18","5f93f61c-8691-442b-9f60-626d11a73ef7","1000","
                  <p style=""text-align: center;"">₪11
                                                <br>75%</p>
                  <p id=""wtp"" style=""text-align:center; margin-top: 0px; margin-bottom: 0px; font-size: 40px"";>&ensp;</p>","-","viewing","0","7","6B,18B,22C,24C,29A","","","","","","","","","","","","","","","","","","","",""
"","","","","","html-slider-response","169","1153974","0.0-21.0-1.18","5f93f61c-8691-442b-9f60-626d11a73ef7","1854","
                  <p style=""text-align: center;"">₪11
                                                <br>75%</p>
                  <p id=""wtp"" style=""text-align:center; margin-top: 0px; margin-bottom: 0px; font-size: 40px"";>מוכנים לשלם: <span id=""c_p_y""></span></p>","30","evaluation","42","7","6B,18B,22C,24C,29A","75","11","30","","","","","","","","","","","","","","","","",""
"","","","","","html-keyboard-response","170","1155069","0.0-21.0-2.18","5f93f61c-8691-442b-9f60-626d11a73ef7","null","<p style=""text-align: center;"">+</p>","null","fixation","","","","","","","","","","","","","","","","","","","","","","",""
"","","","","","html-slider-response","171","1156078","0.0-21.0-0.19","5f93f61c-8691-442b-9f60-626d11a73ef7","1000","
                  <p style=""text-align: center;"">₪79
                                                <br>40%</p>
                  <p id=""wtp"" style=""text-align:center; margin-top: 0px; margin-bottom: 0px; font-size: 40px"";>&ensp;</p>","-","viewing","0","30","9B","","","","","","","","","","","","","","","","","","","",""
"","","","","","html-slider-response","172","1158502","0.0-21.0-1.19","5f93f61c-8691-442b-9f60-626d11a73ef7","2423","
                  <p style=""text-align: center;"">₪79
                                                <br>40%</p>
                  <p id=""wtp"" style=""text-align:center; margin-top: 0px; margin-bottom: 0px; font-size: 40px"";>מוכנים לשלם: <span id=""c_p_y""></span></p>","42","evaluation","70","30","9B","40","79","42","","","","","","","","","","","","","","","","",""
"","","","","","html-keyboard-response","173","1159575","0.0-21.0-2.19","5f93f61c-8691-442b-9f60-626d11a73ef7","null","<p style=""text-align: center;"">+</p>","null","fixation","","","","","","","","","","","","","","","","","","","","","","",""
"","","","","","html-slider-response","174","1160581","0.0-21.0-0.20","5f93f61c-8691-442b-9f60-626d11a73ef7","1000","
                  <p style=""text-align: center;"">₪18
                                                <br>25%</p>
                  <p id=""wtp"" style=""text-align:center; margin-top: 0px; margin-bottom: 0px; font-size: 40px"";>&ensp;</p>","-","viewing","0","9","14A,23A","","","","","","","","","","","","","","","","","","","",""
"","","","","","html-slider-response","175","1161446","0.0-21.0-1.20","5f93f61c-8691-442b-9f60-626d11a73ef7","864","
                  <p style=""text-align: center;"">₪18
                                                <br>25%</p>
                  <p id=""wtp"" style=""text-align:center; margin-top: 0px; margin-bottom: 0px; font-size: 40px"";>מוכנים לשלם: <span id=""c_p_y""></span></p>","20","evaluation","48","9","14A,23A","25","18","20","","","","","","","","","","","","","","","","",""
"","","","","","html-keyboard-response","176","1162180","0.0-21.0-2.20","5f93f61c-8691-442b-9f60-626d11a73ef7","null","<p style=""text-align: center;"">+</p>","null","fixation","","","","","","","","","","","","","","","","","","","","","","",""
"","","","","","html-slider-response","177","1163183","0.0-21.0-0.21","5f93f61c-8691-442b-9f60-626d11a73ef7","1000","
                  <p style=""text-align: center;"">₪79
                                                <br>65%</p>
                  <p id=""wtp"" style=""text-align:center; margin-top: 0px; margin-bottom: 0px; font-size: 40px"";>&ensp;</p>","-","viewing","0","31","8A","","","","","","","","","","","","","","","","","","","",""
"","","","","","html-slider-response","178","1164526","0.0-21.0-1.21","5f93f61c-8691-442b-9f60-626d11a73ef7","1343","
                  <p style=""text-align: center;"">₪79
                                                <br>65%</p>
                  <p id=""wtp"" style=""text-align:center; margin-top: 0px; margin-bottom: 0px; font-size: 40px"";>מוכנים לשלם: <span id=""c_p_y""></span></p>","60","evaluation","64","31","8A","65","79","60","","","","","","","","","","","","","","","","",""
"","","","","","html-keyboard-response","179","1165845","0.0-21.0-2.21","5f93f61c-8691-442b-9f60-626d11a73ef7","null","<p style=""text-align: center;"">+</p>","null","fixation","","","","","","","","","","","","","","","","","","","","","","",""
"","","","","","html-slider-response","180","1166852","0.0-21.0-0.22","5f93f61c-8691-442b-9f60-626d11a73ef7","1000","
                  <p style=""text-align: center;"">₪36
                                                <br>75%</p>
                  <p id=""wtp"" style=""text-align:center; margin-top: 0px; margin-bottom: 0px; font-size: 40px"";>&ensp;</p>","-","viewing","0","14","4B,5A,13B,16B","","","","","","","","","","","","","","","","","","","",""
"","","","","","html-slider-response","181","1168230","0.0-21.0-1.22","5f93f61c-8691-442b-9f60-626d11a73ef7","1377","
                  <p style=""text-align: center;"">₪36
                                                <br>75%</p>
                  <p id=""wtp"" style=""text-align:center; margin-top: 0px; margin-bottom: 0px; font-size: 40px"";>מוכנים לשלם: <span id=""c_p_y""></span></p>","60","evaluation","43","14","4B,5A,13B,16B","75","36","60","","","","","","","","","","","","","","","","",""
"","","","","","html-keyboard-response","182","1169230","0.0-21.0-2.22","5f93f61c-8691-442b-9f60-626d11a73ef7","null","<p style=""text-align: center;"">+</p>","null","fixation","","","","","","","","","","","","","","","","","","","","","","",""
"","","","","","html-slider-response","183","1170241","0.0-21.0-0.23","5f93f61c-8691-442b-9f60-626d11a73ef7","1000","
                  <p style=""text-align: center;"">₪64
                                                <br>50%</p>
                  <p id=""wtp"" style=""text-align:center; margin-top: 0px; margin-bottom: 0px; font-size: 40px"";>&ensp;</p>","-","viewing","0","25","1B,3B,4A","","","","","","","","","","","","","","","","","","","",""
"","","","","","html-slider-response","184","1172926","0.0-21.0-1.23","5f93f61c-8691-442b-9f60-626d11a73ef7","2684","
                  <p style=""text-align: center;"">₪64
                                                <br>50%</p>
                  <p id=""wtp"" style=""text-align:center; margin-top: 0px; margin-bottom: 0px; font-size: 40px"";>מוכנים לשלם: <span id=""c_p_y""></span></p>","59","evaluation","30","25","1B,3B,4A","50","64","59","","","","","","","","","","","","","","","","",""
"","","","","","html-keyboard-response","185","1174006","0.0-21.0-2.23","5f93f61c-8691-442b-9f60-626d11a73ef7","null","<p style=""text-align: center;"">+</p>","null","fixation","","","","","","","","","","","","","","","","","","","","","","",""
"","","","","","html-slider-response","186","1175009","0.0-21.0-0.24","5f93f61c-8691-442b-9f60-626d11a73ef7","1000","
                  <p style=""text-align: center;"">₪64
                                                <br>25%</p>
                  <p id=""wtp"" style=""text-align:center; margin-top: 0px; margin-bottom: 0px; font-size: 40px"";>&ensp;</p>","-","viewing","0","24","6A,21A","","","","","","","","","","","","","","","","","","","",""
"","","","","","html-slider-response","187","1176294","0.0-21.0-1.24","5f93f61c-8691-442b-9f60-626d11a73ef7","1284","
                  <p style=""text-align: center;"">₪64
                                                <br>25%</p>
                  <p id=""wtp"" style=""text-align:center; margin-top: 0px; margin-bottom: 0px; font-size: 40px"";>מוכנים לשלם: <span id=""c_p_y""></span></p>","20","evaluation","46","24","6A,21A","25","64","20","","","","","","","","","","","","","","","","",""
"","","","","","html-keyboard-response","188","1177436","0.0-21.0-2.24","5f93f61c-8691-442b-9f60-626d11a73ef7","null","<p style=""text-align: center;"">+</p>","null","fixation","","","","","","","","","","","","","","","","","","","","","","",""
"","","","","","html-slider-response","189","1178437","0.0-21.0-0.25","5f93f61c-8691-442b-9f60-626d11a73ef7","1000","
                  <p style=""text-align: center;"">₪36
                                                <br>30%</p>
                  <p id=""wtp"" style=""text-align:center; margin-top: 0px; margin-bottom: 0px; font-size: 40px"";>&ensp;</p>","-","viewing","0","11","3C,20A,22A","","","","","","","","","","","","","","","","","","","",""
"","","","","","html-slider-response","190","1179138","0.0-21.0-1.25","5f93f61c-8691-442b-9f60-626d11a73ef7","700","
                  <p style=""text-align: center;"">₪36
                                                <br>30%</p>
                  <p id=""wtp"" style=""text-align:center; margin-top: 0px; margin-bottom: 0px; font-size: 40px"";>מוכנים לשלם: <span id=""c_p_y""></span></p>","20","evaluation","0","11","3C,20A,22A","30","36","20","","","","","","","","","","","","","","","","",""
"","","","","","html-keyboard-response","191","1180216","0.0-21.0-2.25","5f93f61c-8691-442b-9f60-626d11a73ef7","null","<p style=""text-align: center;"">+</p>","null","fixation","","","","","","","","","","","","","","","","","","","","","","",""
"","","","","","html-slider-response","192","1181220","0.0-21.0-0.26","5f93f61c-8691-442b-9f60-626d11a73ef7","1000","
                  <p style=""text-align: center;"">₪43
                                                <br>75%</p>
                  <p id=""wtp"" style=""text-align:center; margin-top: 0px; margin-bottom: 0px; font-size: 40px"";>&ensp;</p>","-","viewing","0","18","11B,19B,24A,26A","","","","","","","","","","","","","","","","","","","",""
"","","","","","html-slider-response","193","1183290","0.0-21.0-1.26","5f93f61c-8691-442b-9f60-626d11a73ef7","2068","
                  <p style=""text-align: center;"">₪43
                                                <br>75%</p>
                  <p id=""wtp"" style=""text-align:center; margin-top: 0px; margin-bottom: 0px; font-size: 40px"";>מוכנים לשלם: <span id=""c_p_y""></span></p>","67","evaluation","54","18","11B,19B,24A,26A","75","43","67","","","","","","","","","","","","","","","","",""
"","","","","","html-keyboard-response","194","1184298","0.0-21.0-2.26","5f93f61c-8691-442b-9f60-626d11a73ef7","null","<p style=""text-align: center;"">+</p>","null","fixation","","","","","","","","","","","","","","","","","","","","","","",""
"","","","","","html-slider-response","195","1185300","0.0-21.0-0.27","5f93f61c-8691-442b-9f60-626d11a73ef7","1000","
                  <p style=""text-align: center;"">₪71
                                                <br>55%</p>
                  <p id=""wtp"" style=""text-align:center; margin-top: 0px; margin-bottom: 0px; font-size: 40px"";>&ensp;</p>","-","viewing","0","27","5B,18A","","","","","","","","","","","","","","","","","","","",""
"","","","","","html-slider-response","196","1186450","0.0-21.0-1.27","5f93f61c-8691-442b-9f60-626d11a73ef7","1148","
                  <p style=""text-align: center;"">₪71
                                                <br>55%</p>
                  <p id=""wtp"" style=""text-align:center; margin-top: 0px; margin-bottom: 0px; font-size: 40px"";>מוכנים לשלם: <span id=""c_p_y""></span></p>","65","evaluation","44","27","5B,18A","55","71","65","","","","","","","","","","","","","","","","",""
"","","","","","html-keyboard-response","197","1187877","0.0-21.0-2.27","5f93f61c-8691-442b-9f60-626d11a73ef7","null","<p style=""text-align: center;"">+</p>","null","fixation","","","","","","","","","","","","","","","","","","","","","","",""
"","","","","","html-slider-response","198","1188881","0.0-21.0-0.28","5f93f61c-8691-442b-9f60-626d11a73ef7","1000","
                  <p style=""text-align: center;"">₪71
                                                <br>75%</p>
                  <p id=""wtp"" style=""text-align:center; margin-top: 0px; margin-bottom: 0px; font-size: 40px"";>&ensp;</p>","-","viewing","0","28","8B","","","","","","","","","","","","","","","","","","","",""
"","","","","","html-slider-response","199","1189978","0.0-21.0-1.28","5f93f61c-8691-442b-9f60-626d11a73ef7","1096","
                  <p style=""text-align: center;"">₪71
                                                <br>75%</p>
                  <p id=""wtp"" style=""text-align:center; margin-top: 0px; margin-bottom: 0px; font-size: 40px"";>מוכנים לשלם: <span id=""c_p_y""></span></p>","72","evaluation","7","28","8B","75","71","72","","","","","","","","","","","","","","","","",""
"","","","","","html-keyboard-response","200","1190641","0.0-21.0-2.28","5f93f61c-8691-442b-9f60-626d11a73ef7","null","<p style=""text-align: center;"">+</p>","null","fixation","","","","","","","","","","","","","","","","","","","","","","",""
"","","","","","html-slider-response","201","1191644","0.0-21.0-0.29","5f93f61c-8691-442b-9f60-626d11a73ef7","1000","
                  <p style=""text-align: center;"">₪11
                                                <br>20%</p>
                  <p id=""wtp"" style=""text-align:center; margin-top: 0px; margin-bottom: 0px; font-size: 40px"";>&ensp;</p>","-","viewing","0","4","12C,17C,23C,28C","","","","","","","","","","","","","","","","","","","",""
"","","","","","html-slider-response","202","1192442","0.0-21.0-1.29","5f93f61c-8691-442b-9f60-626d11a73ef7","797","
                  <p style=""text-align: center;"">₪11
                                                <br>20%</p>
                  <p id=""wtp"" style=""text-align:center; margin-top: 0px; margin-bottom: 0px; font-size: 40px"";>מוכנים לשלם: <span id=""c_p_y""></span></p>","10","evaluation","15","4","12C,17C,23C,28C","20","11","10","","","","","","","","","","","","","","","","",""
"","","","","","html-keyboard-response","203","1193865","0.0-21.0-2.29","5f93f61c-8691-442b-9f60-626d11a73ef7","null","<p style=""text-align: center;"">+</p>","null","fixation","","","","","","","","","","","","","","","","","","","","","","",""
"","","","","","html-slider-response","204","1194868","0.0-21.0-0.30","5f93f61c-8691-442b-9f60-626d11a73ef7","1000","
                  <p style=""text-align: center;"">₪58
                                                <br>40%</p>
                  <p id=""wtp"" style=""text-align:center; margin-top: 0px; margin-bottom: 0px; font-size: 40px"";>&ensp;</p>","-","viewing","0","20","10C,13A,19C,21B","","","","","","","","","","","","","","","","","","","",""
"","","","","","html-slider-response","205","1197130","0.0-21.0-1.30","5f93f61c-8691-442b-9f60-626d11a73ef7","2260","
                  <p style=""text-align: center;"">₪58
                                                <br>40%</p>
                  <p id=""wtp"" style=""text-align:center; margin-top: 0px; margin-bottom: 0px; font-size: 40px"";>מוכנים לשלם: <span id=""c_p_y""></span></p>","24","evaluation","53","20","10C,13A,19C,21B","40","58","24","","","","","","","","","","","","","","","","",""
"","","","","","html-keyboard-response","206","1197843","0.0-21.0-2.30","5f93f61c-8691-442b-9f60-626d11a73ef7","null","<p style=""text-align: center;"">+</p>","null","fixation","","","","","","","","","","","","","","","","","","","","","","",""
"","","","","","html-keyboard-response","207","1198845","0.0-22.0","5f93f61c-8691-442b-9f60-626d11a73ef7","null","<p style=""text-align: center;"">+</p>","null","fixation","","","","","","","","","","","","","","","","","","","","","","",""
"","","","","","html-keyboard-response","208","1202721","0.0-23.0","5f93f61c-8691-442b-9f60-626d11a73ef7","null","<p>הפסקה.
          <br>לחצו כדי להמשיך.</p>","1","scan_wait","","","","","","","","","","","","","","","","","","","","","","",""
"","","","","","html-keyboard-response","209","1203729","0.0-24.0","5f93f61c-8691-442b-9f60-626d11a73ef7","null","<p style=""text-align: center;"">+</p>","null","fixation","","","","","","","","","","","","","","","","","","","","","","",""
"","","","","","html-slider-response","210","1204730","0.0-25.0-0.0","5f93f61c-8691-442b-9f60-626d11a73ef7","1000","
                  <p style=""text-align: center;"">₪39
                                                <br>65%</p>
                  <p id=""wtp"" style=""text-align:center; margin-top: 0px; margin-bottom: 0px; font-size: 40px"";>&ensp;</p>","-","viewing","0","16","1A,15A,26C","","","","","","","","","","","","","","","","","","","",""
"","","","","","html-slider-response","211","1205362","0.0-25.0-1.0","5f93f61c-8691-442b-9f60-626d11a73ef7","631","
                  <p style=""text-align: center;"">₪39
                                                <br>65%</p>
                  <p id=""wtp"" style=""text-align:center; margin-top: 0px; margin-bottom: 0px; font-size: 40px"";>מוכנים לשלם: <span id=""c_p_y""></span></p>","56","evaluation","50","16","1A,15A,26C","65","39","56","","","","","","","","","","","","","","","","",""
"","","","","","html-keyboard-response","212","1206391","0.0-25.0-2.0","5f93f61c-8691-442b-9f60-626d11a73ef7","null","<p style=""text-align: center;"">+</p>","null","fixation","","","","","","","","","","","","","","","","","","","","","","",""
"","","","","","html-slider-response","213","1207394","0.0-25.0-0.1","5f93f61c-8691-442b-9f60-626d11a73ef7","1000","
                  <p style=""text-align: center;"">₪79
                                                <br>65%</p>
                  <p id=""wtp"" style=""text-align:center; margin-top: 0px; margin-bottom: 0px; font-size: 40px"";>&ensp;</p>","-","viewing","0","31","8A","","","","","","","","","","","","","","","","","","","",""
"","","","","","html-slider-response","214","1208178","0.0-25.0-1.1","5f93f61c-8691-442b-9f60-626d11a73ef7","782","
                  <p style=""text-align: center;"">₪79
                                                <br>65%</p>
                  <p id=""wtp"" style=""text-align:center; margin-top: 0px; margin-bottom: 0px; font-size: 40px"";>מוכנים לשלם: <span id=""c_p_y""></span></p>","75","evaluation","3","31","8A","65","79","75","","","","","","","","","","","","","","","","",""
"","","","","","html-keyboard-response","215","1208831","0.0-25.0-2.1","5f93f61c-8691-442b-9f60-626d11a73ef7","null","<p style=""text-align: center;"">+</p>","null","fixation","","","","","","","","","","","","","","","","","","","","","","",""
"","","","","","html-slider-response","216","1209835","0.0-25.0-0.2","5f93f61c-8691-442b-9f60-626d11a73ef7","1000","
                  <p style=""text-align: center;"">₪71
                                                <br>55%</p>
                  <p id=""wtp"" style=""text-align:center; margin-top: 0px; margin-bottom: 0px; font-size: 40px"";>&ensp;</p>","-","viewing","0","27","5B,18A","","","","","","","","","","","","","","","","","","","",""
"","","","","","html-slider-response","217","1211058","0.0-25.0-1.2","5f93f61c-8691-442b-9f60-626d11a73ef7","1221","
                  <p style=""text-align: center;"">₪71
                                                <br>55%</p>
                  <p id=""wtp"" style=""text-align:center; margin-top: 0px; margin-bottom: 0px; font-size: 40px"";>מוכנים לשלם: <span id=""c_p_y""></span></p>","59","evaluation","39","27","5B,18A","55","71","59","","","","","","","","","","","","","","","","",""
"","","","","","html-keyboard-response","218","1211570","0.0-25.0-2.2","5f93f61c-8691-442b-9f60-626d11a73ef7","null","<p style=""text-align: center;"">+</p>","null","fixation","","","","","","","","","","","","","","","","","","","","","","",""
"","","","","","html-slider-response","219","1212571","0.0-25.0-0.3","5f93f61c-8691-442b-9f60-626d11a73ef7","1000","
                  <p style=""text-align: center;"">₪61
                                                <br>55%</p>
                  <p id=""wtp"" style=""text-align:center; margin-top: 0px; margin-bottom: 0px; font-size: 40px"";>&ensp;</p>","-","viewing","0","23","7B,26B","","","","","","","","","","","","","","","","","","","",""
"","","","","","html-slider-response","220","1213234","0.0-25.0-1.3","5f93f61c-8691-442b-9f60-626d11a73ef7","661","
                  <p style=""text-align: center;"">₪61
                                                <br>55%</p>
                  <p id=""wtp"" style=""text-align:center; margin-top: 0px; margin-bottom: 0px; font-size: 40px"";>מוכנים לשלם: <span id=""c_p_y""></span></p>","61","evaluation","79","23","7B,26B","55","61","61","","","","","","","","","","","","","","","","",""
"","","","","","html-keyboard-response","221","1213813","0.0-25.0-2.3","5f93f61c-8691-442b-9f60-626d11a73ef7","null","<p style=""text-align: center;"">+</p>","null","fixation","","","","","","","","","","","","","","","","","","","","","","",""
"","","","","","html-slider-response","222","1214823","0.0-25.0-0.4","5f93f61c-8691-442b-9f60-626d11a73ef7","1000","
                  <p style=""text-align: center;"">₪71
                                                <br>75%</p>
                  <p id=""wtp"" style=""text-align:center; margin-top: 0px; margin-bottom: 0px; font-size: 40px"";>&ensp;</p>","-","viewing","0","28","8B","","","","","","","","","","","","","","","","","","","",""
"","","","","","html-slider-response","223","1215346","0.0-25.0-1.4","5f93f61c-8691-442b-9f60-626d11a73ef7","522","
                  <p style=""text-align: center;"">₪71
                                                <br>75%</p>
                  <p id=""wtp"" style=""text-align:center; margin-top: 0px; margin-bottom: 0px; font-size: 40px"";>מוכנים לשלם: <span id=""c_p_y""></span></p>","80","evaluation","39","28","8B","75","71","80","","","","","","","","","","","","","","","","",""
"","","","","","html-keyboard-response","224","1216420","0.0-25.0-2.4","5f93f61c-8691-442b-9f60-626d11a73ef7","null","<p style=""text-align: center;"">+</p>","null","fixation","","","","","","","","","","","","","","","","","","","","","","",""
"","","","","","html-slider-response","225","1217426","0.0-25.0-0.5","5f93f61c-8691-442b-9f60-626d11a73ef7","1000","
                  <p style=""text-align: center;"">₪36
                                                <br>30%</p>
                  <p id=""wtp"" style=""text-align:center; margin-top: 0px; margin-bottom: 0px; font-size: 40px"";>&ensp;</p>","-","viewing","0","11","3C,20A,22A","","","","","","","","","","","","","","","","","","","",""
"","","","","","html-slider-response","226","1218810","0.0-25.0-1.5","5f93f61c-8691-442b-9f60-626d11a73ef7","1382","
                  <p style=""text-align: center;"">₪36
                                                <br>30%</p>
                  <p id=""wtp"" style=""text-align:center; margin-top: 0px; margin-bottom: 0px; font-size: 40px"";>מוכנים לשלם: <span id=""c_p_y""></span></p>","25","evaluation","18","11","3C,20A,22A","30","36","25","","","","","","","","","","","","","","","","",""
"","","","","","html-keyboard-response","227","1220050","0.0-25.0-2.5","5f93f61c-8691-442b-9f60-626d11a73ef7","null","<p style=""text-align: center;"">+</p>","null","fixation","","","","","","","","","","","","","","","","","","","","","","",""
"","","","","","html-slider-response","228","1221060","0.0-25.0-0.6","5f93f61c-8691-442b-9f60-626d11a73ef7","1000","
                  <p style=""text-align: center;"">₪18
                                                <br>50%</p>
                  <p id=""wtp"" style=""text-align:center; margin-top: 0px; margin-bottom: 0px; font-size: 40px"";>&ensp;</p>","-","viewing","0","10","2C,16C,22B,28A","","","","","","","","","","","","","","","","","","","",""
"","","","","","html-slider-response","229","1222417","0.0-25.0-1.6","5f93f61c-8691-442b-9f60-626d11a73ef7","1357","
                  <p style=""text-align: center;"">₪18
                                                <br>50%</p>
                  <p id=""wtp"" style=""text-align:center; margin-top: 0px; margin-bottom: 0px; font-size: 40px"";>מוכנים לשלם: <span id=""c_p_y""></span></p>","23","evaluation","54","10","2C,16C,22B,28A","50","18","23","","","","","","","","","","","","","","","","",""
"","","","","","html-keyboard-response","230","1223142","0.0-25.0-2.6","5f93f61c-8691-442b-9f60-626d11a73ef7","null","<p style=""text-align: center;"">+</p>","null","fixation","","","","","","","","","","","","","","","","","","","","","","",""
"","","","","","html-slider-response","231","1224147","0.0-25.0-0.7","5f93f61c-8691-442b-9f60-626d11a73ef7","1000","
                  <p style=""text-align: center;"">₪11
                                                <br>25%</p>
                  <p id=""wtp"" style=""text-align:center; margin-top: 0px; margin-bottom: 0px; font-size: 40px"";>&ensp;</p>","-","viewing","0","5","12A,27B,28B,30B","","","","","","","","","","","","","","","","","","","",""
"","","","","","html-slider-response","232","1226026","0.0-25.0-1.7","5f93f61c-8691-442b-9f60-626d11a73ef7","1878","
                  <p style=""text-align: center;"">₪11
                                                <br>25%</p>
                  <p id=""wtp"" style=""text-align:center; margin-top: 0px; margin-bottom: 0px; font-size: 40px"";>מוכנים לשלם: <span id=""c_p_y""></span></p>","22","evaluation","3","5","12A,27B,28B,30B","25","11","22","","","","","","","","","","","","","","","","",""
"","","","","","html-keyboard-response","233","1226695","0.0-25.0-2.7","5f93f61c-8691-442b-9f60-626d11a73ef7","null","<p style=""text-align: center;"">+</p>","null","fixation","","","","","","","","","","","","","","","","","","","","","","",""
"","","","","","html-slider-response","234","1227697","0.0-25.0-0.8","5f93f61c-8691-442b-9f60-626d11a73ef7","1000","
                  <p style=""text-align: center;"">₪36
                                                <br>70%</p>
                  <p id=""wtp"" style=""text-align:center; margin-top: 0px; margin-bottom: 0px; font-size: 40px"";>&ensp;</p>","-","viewing","0","13","3A,5C,10B","","","","","","","","","","","","","","","","","","","",""
"","","","","","html-slider-response","235","1228594","0.0-25.0-1.8","5f93f61c-8691-442b-9f60-626d11a73ef7","895","
                  <p style=""text-align: center;"">₪36
                                                <br>70%</p>
                  <p id=""wtp"" style=""text-align:center; margin-top: 0px; margin-bottom: 0px; font-size: 40px"";>מוכנים לשלם: <span id=""c_p_y""></span></p>","59","evaluation","78","13","3A,5C,10B","70","36","59","","","","","","","","","","","","","","","","",""
"","","","","","html-keyboard-response","236","1229130","0.0-25.0-2.8","5f93f61c-8691-442b-9f60-626d11a73ef7","null","<p style=""text-align: center;"">+</p>","null","fixation","","","","","","","","","","","","","","","","","","","","","","",""
"","","","","","html-slider-response","237","1230133","0.0-25.0-0.9","5f93f61c-8691-442b-9f60-626d11a73ef7","1000","
                  <p style=""text-align: center;"">₪4
                                                <br>25%</p>
                  <p id=""wtp"" style=""text-align:center; margin-top: 0px; margin-bottom: 0px; font-size: 40px"";>&ensp;</p>","-","viewing","0","1","6C,29B,30C","","","","","","","","","","","","","","","","","","","",""
"","","","","","html-slider-response","238","1231458","0.0-25.0-1.9","5f93f61c-8691-442b-9f60-626d11a73ef7","1324","
                  <p style=""text-align: center;"">₪4
                                                <br>25%</p>
                  <p id=""wtp"" style=""text-align:center; margin-top: 0px; margin-bottom: 0px; font-size: 40px"";>מוכנים לשלם: <span id=""c_p_y""></span></p>","21","evaluation","48","1","6C,29B,30C","25","4","21","","","","","","","","","","","","","","","","",""
"","","","","","html-keyboard-response","239","1232400","0.0-25.0-2.9","5f93f61c-8691-442b-9f60-626d11a73ef7","null","<p style=""text-align: center;"">+</p>","null","fixation","","","","","","","","","","","","","","","","","","","","","","",""
"","","","","","html-slider-response","240","1233406","0.0-25.0-0.10","5f93f61c-8691-442b-9f60-626d11a73ef7","1000","
                  <p style=""text-align: center;"">₪36
                                                <br>60%</p>
                  <p id=""wtp"" style=""text-align:center; margin-top: 0px; margin-bottom: 0px; font-size: 40px"";>&ensp;</p>","-","viewing","0","12","1C,7C,15C","","","","","","","","","","","","","","","","","","","",""
"","","","","","html-slider-response","241","1233986","0.0-25.0-1.10","5f93f61c-8691-442b-9f60-626d11a73ef7","579","
                  <p style=""text-align: center;"">₪36
                                                <br>60%</p>
                  <p id=""wtp"" style=""text-align:center; margin-top: 0px; margin-bottom: 0px; font-size: 40px"";>מוכנים לשלם: <span id=""c_p_y""></span></p>","60","evaluation","4","12","1C,7C,15C","60","36","60","","","","","","","","","","","","","","","","",""
"","","","","","html-keyboard-response","242","1235039","0.0-25.0-2.10","5f93f61c-8691-442b-9f60-626d11a73ef7","null","<p style=""text-align: center;"">+</p>","null","fixation","","","","","","","","","","","","","","","","","","","","","","",""
"","","","","","html-slider-response","243","1236044","0.0-25.0-0.11","5f93f61c-8691-442b-9f60-626d11a73ef7","1000","
                  <p style=""text-align: center;"">₪58
                                                <br>45%</p>
                  <p id=""wtp"" style=""text-align:center; margin-top: 0px; margin-bottom: 0px; font-size: 40px"";>&ensp;</p>","-","viewing","0","21","11C,18C,25A","","","","","","","","","","","","","","","","","","","",""
"","","","","","html-slider-response","244","1239884","0.0-25.0-1.11","5f93f61c-8691-442b-9f60-626d11a73ef7","3853","
                  <p style=""text-align: center;"">₪58
                                                <br>45%</p>
                  <p id=""wtp"" style=""text-align:center; margin-top: 0px; margin-bottom: 0px; font-size: 40px"";>מוכנים לשלם: <span id=""c_p_y""></span></p>","41","evaluation","40","21","11C,18C,25A","45","58","41","","","","","","","","","","","","","","","","",""
"","","","","","html-keyboard-response","245","1240511","0.0-25.0-2.11","5f93f61c-8691-442b-9f60-626d11a73ef7","null","<p style=""text-align: center;"">+</p>","null","fixation","","","","","","","","","","","","","","","","","","","","","","",""
"","","","","","html-slider-response","246","1241520","0.0-25.0-0.12","5f93f61c-8691-442b-9f60-626d11a73ef7","1000","
                  <p style=""text-align: center;"">₪11
                                                <br>45%</p>
                  <p id=""wtp"" style=""text-align:center; margin-top: 0px; margin-bottom: 0px; font-size: 40px"";>&ensp;</p>","-","viewing","0","6","14B,21C,25C","","","","","","","","","","","","","","","","","","","",""
"","","","","","html-slider-response","247","1242900","0.0-25.0-1.12","5f93f61c-8691-442b-9f60-626d11a73ef7","1380","
                  <p style=""text-align: center;"">₪11
                                                <br>45%</p>
                  <p id=""wtp"" style=""text-align:center; margin-top: 0px; margin-bottom: 0px; font-size: 40px"";>מוכנים לשלם: <span id=""c_p_y""></span></p>","13","evaluation","73","6","14B,21C,25C","45","11","13","","","","","","","","","","","","","","","","",""
"","","","","","html-keyboard-response","248","1244245","0.0-25.0-2.12","5f93f61c-8691-442b-9f60-626d11a73ef7","null","<p style=""text-align: center;"">+</p>","null","fixation","","","","","","","","","","","","","","","","","","","","","","",""
"","","","","","html-slider-response","249","1245247","0.0-25.0-0.13","5f93f61c-8691-442b-9f60-626d11a73ef7","1000","
                  <p style=""text-align: center;"">₪36
