"success","timeout","failed_images","failed_audio","failed_video","trial_type","trial_index","time_elapsed","internal_node_id","subject_id","rt","stimulus","response","part","slider_start","ID","set_ID","prob","amount","last_location","actual_choice","actual_EV","binary_id","trinary_id","catch","direction","A_key","S_key","D_key","choice_prob","choice_amount","chosen_part","won_prize","potential_prize_amount","potential_prize_prob","total_prize","accuracy"
"true","false","[]","[]","[]","preload","0","54","0.0-0.0","3952a5d5-ec13-4328-b604-6958480e84d8","","","","","","","","","","","","","","","","","","","","","","","","","","",""
"","","","","","html-keyboard-response","1","819650","0.0-1.0","3952a5d5-ec13-4328-b604-6958480e84d8","819599","
          <h1>שלום וברוכים הבאים!</h1>
          <p>לפניכם ניסוי בקבלת החלטות עם שני חלקים.
          <br><br>לחצו על העכבר כדי להמשיך.</p>","0","example","","","","","","","","","","","","","","","","","","","","","","",""
"","","","","","html-keyboard-response","2","825616","0.0-2.0","3952a5d5-ec13-4328-b604-6958480e84d8","5705","
        <h1>חלק 1</h1>
        <p>בקרוב יוצגו בפניכם הגרלות.
        <br>עליכם לבחור את המחיר המירבי שתהיו מוכנים לשלם כדי להשתתף בהגרלה שתוצג.
        <br>יש לכם תקציב של ₪80 לכל הגרלה. 
        <br>נסו להעריך כל הגרלה בנפרד ולחשוב כמה היא שווה עבורכם, ₪80 זמינים לכל הגרלה בנפרד.
        <br><br>לחצו על העכבר כדי להמשיך.</p>"," ","instructions","","","","","","","","","","","","","","","","","","","","","","",""
"","","","","","html-keyboard-response","3","826624","0.0-3.0","3952a5d5-ec13-4328-b604-6958480e84d8","895","
        <p>בסוף הניסוי, המחשב יבחר את אחת ההגרלות ויקבע מחיר לכרטיס עבורה. 
        <br>במידה והמחיר שבחרתם נמוך מהמחיר שנבחר על ידי המחשב, לא תשתתפו בהגרלה ותשארו עם מלוא התקציב.
        <br>במידה והמחיר שבחרתם גבוה מהמחיר שנבחר על ידי המחשב, תשלמו את המחיר שנקבע ותשתתפו בהגרלה.
        <br><br>לחצו על העכבר כדי להמשיך.</p>"," ","instructions","","","","","","","","","","","","","","","","","","","","","","",""
"","","","","","html-slider-response","4","856512","0.0-4.0","3952a5d5-ec13-4328-b604-6958480e84d8","29779","
        <p style=""font-size: 42px;"">נתחיל עם דוגמא: 
        <br>ההגרלה מטה מציעה 65% סיכוי לזכות ב-₪40 
        <br>&emsp;&emsp;&emsp;&emsp;&emsp;&emsp;&emsp;&emsp;&ensp;35% סיכוי לזכות ב-₪0.
        <br><br>מה המחיר המירבי שתהיו מוכנים לשלם על כרטיס להגרלה זו בין 0 ל-₪80?
        <br>הזיזו את העכבר על פני המלבן ולחצו כדי לבצע בחירה.</p>
        
        <p style=""text-align: center;"">₪40<br>65%</p>

        <p id=""wtp"" style=""text-align:center; margin-top: 0px; margin-bottom: 0px; font-size: 40px"";>מוכנים לשלם: <span id=""c_p_y""></span></p>","40","example","7","","","","","","","","","","","","","","","","","","","","","",""
"","","","","","html-keyboard-response","5","862816","0.0-5.0","3952a5d5-ec13-4328-b604-6958480e84d8","6048","<p>יפה מאוד!
                <br> בחרתם שתהיו מוכנים לשלם ₪40 כדי להשתתף בהגרלה:
                <br><p style=""text-align: center;"">₪40<br>65%</p>
                <p>נשמע נכון?
                <br>נניח שהגרלה זו נבחרה בסוף הניסוי.
                <br>כעת המחשב יקבע מחיר עבורה באקראי.
                <br>לחצו על העכבר להמשך.</p>"," ","example","","","","","","","","","","","","","","","","","","","","","","",""
"","","","","","html-keyboard-response","6","872240","0.0-6.0","3952a5d5-ec13-4328-b604-6958480e84d8","9168","<p>המחשב קבע מחיר: ₪73
                <br>ואתם בחרתם לשלם לכל היותר: ₪40
                <br><br>מכיוון שהמחיר שבחרתם נמוך מהמחיר שנקבע, לא תתשתתפו בהגרלה.
                <br>במקרה כזה, בסוף הניסוי תקבלו את כל התקציב ההתחלתי של ₪80.
                <br><br>לחצו על העכבר להמשך.</p>"," ","example","","","","","","","","","","","","","","","","","","","","","","",""
"","","","","","html-slider-response","7","882759","0.0-7.0","3952a5d5-ec13-4328-b604-6958480e84d8","10261","<p style=""font-size: 42px;"">הנה עוד דוגמא:
                <br>ההגרלה מטה מציעה 35% סיכוי לזכות ב-₪18 
                <br>&emsp;&emsp;&emsp;&emsp;&emsp;&emsp;&emsp;&emsp;&ensp;65% סיכוי לזכות ב-₪0.</p>
        
                <p style=""text-align: center;"">₪18<br>35%</p>
                <p id=""wtp"" style=""text-align:center; margin-top: 0px; margin-bottom: 0px; font-size: 40px"";>מוכנים לשלם: <span id=""c_p_y""></span></p>","15","example","74","","","","","","","","","","","","","","","","","","","","","",""
"","","","","","html-keyboard-response","8","885279","0.0-8.0","3952a5d5-ec13-4328-b604-6958480e84d8","2269","<p>הייתם מוכנים לשלם  ₪15 כדי להשתתף בהגרלה:
                <p style=""text-align: center;"">₪18<br>35%</p>
                <p>כעת נניח שהמחשב בחר את ההגרלה הזו בסוף הניסוי, וקבע עבורה מחיר.
                <br><br>לחצו על העכבר כדי להמשיך.</p>"," ","instructions","","","","","","","","","","","","","","","","","","","","","","",""
"","","","","","html-keyboard-response","9","889423","0.0-9.0","3952a5d5-ec13-4328-b604-6958480e84d8","3878","<p>המחשב קבע מחיר להגרלה: ₪6<br>ואתם בחרתם לשלם לכל היותר: ₪15
                <br><br>כעת המחיר שנקבע נמוך מזה שבחרתם, אז תשלמו את המחיר שקבע המחשב (₪6) ותשתתפו בהגרלה.
                <br>במקרה כזה, תסיימו את הניסוי עם תקציב של ₪74 ועם סיכוי לזכות ב-₪18 נוספים מההגרלה.
                <br>כלומר, תוכלו לקבל ₪74 אם לא תזכו בהגרלה, או ₪92 אם תזכו בהגרלה.
                <br><br>לחצו על העכבר להמשך.</p>"," ","example","","","","","","","","","","","","","","","","","","","","","","",""
"","","","","","html-keyboard-response","10","896640","0.0-10.0","3952a5d5-ec13-4328-b604-6958480e84d8","6957","<p>במהלך הניסוי, קודם תראו את ההגרלה ורק לאחר מכן תוכלו לבחור.
                <p>כמו כן, יהיו לכם מספר שניות מוגבל להגיב.
                <p>בואו ננסה זאת עם ההגרלה הקודמת.
                <br>לחצו על העכבר כדי להמשיך.</p>"," ","instructions","","","","","","","","","","","","","","","","","","","","","","",""
"","","","","","html-slider-response","11","897904","0.0-11.0","3952a5d5-ec13-4328-b604-6958480e84d8","1000","
                    <p style=""text-align: center;"">₪18<br>35%</p>
                    <p id=""wtp"" style=""text-align:center; margin-top: 0px; margin-bottom: 0px; font-size: 40px"";>&ensp;</p>","38","instructions","0","","","","","","","","","","","","","","","","","","","","","",""
"","","","","","html-slider-response","12","902168","0.0-12.0","3952a5d5-ec13-4328-b604-6958480e84d8","null","
                    <p style=""text-align: center;"">₪18<br>35%</p>
                    <p id=""wtp"" style=""text-align:center; margin-top: 0px; margin-bottom: 0px; font-size: 40px"";>מוכנים לשלם: <span id=""c_p_y""></span></p>","null","instructions","5","","","","","","","","","","","","","","","","","","","","","",""
"","","","","","html-keyboard-response","13","902942","0.0-13.0","3952a5d5-ec13-4328-b604-6958480e84d8","null","<p>לא הגבתם בזמן המוקצב לתגובה. 
                <br>נסו להגיב מהר יותר בפעם הבאה.
                <br><br>לחצו על העכבר כדי להמשיך.</p>","1","instructions","","","","","","","","","","","","","","","","","","","","","","",""
"","","","","","html-slider-response","14","905935","0.0-14.0-0.0","3952a5d5-ec13-4328-b604-6958480e84d8","2738","
                    <p style=""text-align: center;"">₪40<br>65%</p>
                    <p id=""wtp"" style=""text-align:center; margin-top: 0px; margin-bottom: 0px; font-size: 40px"";>מוכנים לשלם: <span id=""c_p_y""></span></p>","48","instructions","57","","","","","","","","","","","","","","","","","","","","","",""
"","","","","","html-keyboard-response","15","907776","0.0-14.0-1.0","3952a5d5-ec13-4328-b604-6958480e84d8","1576","<p>יפה. הפעם בחרתם לשלם לכל היותר ₪48.
                <br><br>לחצו על העכבר כדי להמשיך.</p>"," ","instructions","","","","","","","","","","","","","","","","","","","","","","",""
"","","","","","html-keyboard-response","16","909920","0.0-15.0","3952a5d5-ec13-4328-b604-6958480e84d8","1886","<p>כעת נתחיל את הניסוי.
                <br><br>אתם תראו הגרלות ותתבקשו לבחור כמה תהיו מוכנים לשלם כדי להשתתף בהן.
                <br>יש לכם תקציב של ₪80 עבור כל הגרלה.
                <br>בסוף הניסוי הגרלה אחת תבחר באקראי ותשוחק.
                <br><br>לחצו על העכבר כדי להתחיל את הניסוי.</p>"," ","instructions","","","","","","","","","","","","","","","","","","","","","","",""
"","","","","","html-keyboard-response","17","911182","0.0-16.0","3952a5d5-ec13-4328-b604-6958480e84d8","null","<p style=""text-align: center;"">+</p>","null","fixation","","","","","","","","","","","","","","","","","","","","","","",""
"","","","","","html-slider-response","18","912191","0.0-17.0-0.0","3952a5d5-ec13-4328-b604-6958480e84d8","1000","
                  <p style=""text-align: center;"">₪18
                                                <br>50%</p>
                  <p id=""wtp"" style=""text-align:center; margin-top: 0px; margin-bottom: 0px; font-size: 40px"";>&ensp;</p>","-","viewing","0","10","2C,16C,22B,28A","","","","","","","","","","","","","","","","","","","",""
"","","","","","html-slider-response","19","914871","0.0-17.0-1.0","3952a5d5-ec13-4328-b604-6958480e84d8","2678","
                  <p style=""text-align: center;"">₪18
                                                <br>50%</p>
                  <p id=""wtp"" style=""text-align:center; margin-top: 0px; margin-bottom: 0px; font-size: 40px"";>מוכנים לשלם: <span id=""c_p_y""></span></p>","21","evaluation","5","10","2C,16C,22B,28A","50","18","21","","","","","","","","","","","","","","","","",""
"","","","","","html-keyboard-response","20","915547","0.0-17.0-2.0","3952a5d5-ec13-4328-b604-6958480e84d8","null","<p style=""text-align: center;"">+</p>","null","fixation","","","","","","","","","","","","","","","","","","","","","","",""
"","","","","","html-slider-response","21","916558","0.0-17.0-0.1","3952a5d5-ec13-4328-b604-6958480e84d8","1000","
                  <p style=""text-align: center;"">₪64
                                                <br>25%</p>
                  <p id=""wtp"" style=""text-align:center; margin-top: 0px; margin-bottom: 0px; font-size: 40px"";>&ensp;</p>","-","viewing","0","24","6A,21A","","","","","","","","","","","","","","","","","","","",""
"","","","","","html-slider-response","22","920574","0.0-17.0-1.1","3952a5d5-ec13-4328-b604-6958480e84d8","null","
                  <p style=""text-align: center;"">₪64
                                                <br>25%</p>
                  <p id=""wtp"" style=""text-align:center; margin-top: 0px; margin-bottom: 0px; font-size: 40px"";>מוכנים לשלם: <span id=""c_p_y""></span></p>","null","evaluation","64","24","6A,21A","25","64","28","","","","","","","","","","","","","","","","",""
"","","","","","html-keyboard-response","23","921224","0.0-17.0-2.1","3952a5d5-ec13-4328-b604-6958480e84d8","null","<p style=""text-align: center;"">+</p>","null","fixation","","","","","","","","","","","","","","","","","","","","","","",""
"","","","","","html-slider-response","24","922240","0.0-17.0-0.2","3952a5d5-ec13-4328-b604-6958480e84d8","1000","
                  <p style=""text-align: center;"">₪18
                                                <br>25%</p>
                  <p id=""wtp"" style=""text-align:center; margin-top: 0px; margin-bottom: 0px; font-size: 40px"";>&ensp;</p>","-","viewing","0","9","14A,23A","","","","","","","","","","","","","","","","","","","",""
"","","","","","html-slider-response","25","924143","0.0-17.0-1.2","3952a5d5-ec13-4328-b604-6958480e84d8","1901","
                  <p style=""text-align: center;"">₪18
                                                <br>25%</p>
                  <p id=""wtp"" style=""text-align:center; margin-top: 0px; margin-bottom: 0px; font-size: 40px"";>מוכנים לשלם: <span id=""c_p_y""></span></p>","25","evaluation","66","9","14A,23A","25","18","25","","","","","","","","","","","","","","","","",""
"","","","","","html-keyboard-response","26","925446","0.0-17.0-2.2","3952a5d5-ec13-4328-b604-6958480e84d8","null","<p style=""text-align: center;"">+</p>","null","fixation","","","","","","","","","","","","","","","","","","","","","","",""
"","","","","","html-slider-response","27","926450","0.0-17.0-0.3","3952a5d5-ec13-4328-b604-6958480e84d8","1000","
                  <p style=""text-align: center;"">₪79
                                                <br>40%</p>
                  <p id=""wtp"" style=""text-align:center; margin-top: 0px; margin-bottom: 0px; font-size: 40px"";>&ensp;</p>","-","viewing","0","30","9B","","","","","","","","","","","","","","","","","","","",""
"","","","","","html-slider-response","28","928639","0.0-17.0-1.3","3952a5d5-ec13-4328-b604-6958480e84d8","2188","
                  <p style=""text-align: center;"">₪79
                                                <br>40%</p>
                  <p id=""wtp"" style=""text-align:center; margin-top: 0px; margin-bottom: 0px; font-size: 40px"";>מוכנים לשלם: <span id=""c_p_y""></span></p>","59","evaluation","72","30","9B","40","79","59","","","","","","","","","","","","","","","","",""
"","","","","","html-keyboard-response","29","929760","0.0-17.0-2.3","3952a5d5-ec13-4328-b604-6958480e84d8","null","<p style=""text-align: center;"">+</p>","null","fixation","","","","","","","","","","","","","","","","","","","","","","",""
"","","","","","html-slider-response","30","930768","0.0-17.0-0.4","3952a5d5-ec13-4328-b604-6958480e84d8","1000","
                  <p style=""text-align: center;"">₪71
                                                <br>45%</p>
                  <p id=""wtp"" style=""text-align:center; margin-top: 0px; margin-bottom: 0px; font-size: 40px"";>&ensp;</p>","-","viewing","0","26","2B,16A","","","","","","","","","","","","","","","","","","","",""
"","","","","","html-slider-response","31","933487","0.0-17.0-1.4","3952a5d5-ec13-4328-b604-6958480e84d8","2717","
                  <p style=""text-align: center;"">₪71
                                                <br>45%</p>
                  <p id=""wtp"" style=""text-align:center; margin-top: 0px; margin-bottom: 0px; font-size: 40px"";>מוכנים לשלם: <span id=""c_p_y""></span></p>","65","evaluation","69","26","2B,16A","45","71","65","","","","","","","","","","","","","","","","",""
"","","","","","html-keyboard-response","32","934618","0.0-17.0-2.4","3952a5d5-ec13-4328-b604-6958480e84d8","null","<p style=""text-align: center;"">+</p>","null","fixation","","","","","","","","","","","","","","","","","","","","","","",""
"","","","","","html-slider-response","33","935623","0.0-17.0-0.5","3952a5d5-ec13-4328-b604-6958480e84d8","1000","
                  <p style=""text-align: center;"">₪43
                                                <br>75%</p>
                  <p id=""wtp"" style=""text-align:center; margin-top: 0px; margin-bottom: 0px; font-size: 40px"";>&ensp;</p>","-","viewing","0","18","11B,19B,24A,26A","","","","","","","","","","","","","","","","","","","",""
"","","","","","html-slider-response","34","939047","0.0-17.0-1.5","3952a5d5-ec13-4328-b604-6958480e84d8","3423","
                  <p style=""text-align: center;"">₪43
                                                <br>75%</p>
                  <p id=""wtp"" style=""text-align:center; margin-top: 0px; margin-bottom: 0px; font-size: 40px"";>מוכנים לשלם: <span id=""c_p_y""></span></p>","59","evaluation","71","18","11B,19B,24A,26A","75","43","59","","","","","","","","","","","","","","","","",""
"","","","","","html-keyboard-response","35","940311","0.0-17.0-2.5","3952a5d5-ec13-4328-b604-6958480e84d8","null","<p style=""text-align: center;"">+</p>","null","fixation","","","","","","","","","","","","","","","","","","","","","","",""
"","","","","","html-slider-response","36","941316","0.0-17.0-0.6","3952a5d5-ec13-4328-b604-6958480e84d8","1000","
                  <p style=""text-align: center;"">₪4
                                                <br>50%</p>
                  <p id=""wtp"" style=""text-align:center; margin-top: 0px; margin-bottom: 0px; font-size: 40px"";>&ensp;</p>","-","viewing","0","2","4C,17B","","","","","","","","","","","","","","","","","","","",""
"","","","","","html-slider-response","37","944143","0.0-17.0-1.6","3952a5d5-ec13-4328-b604-6958480e84d8","2826","
                  <p style=""text-align: center;"">₪4
                                                <br>50%</p>
                  <p id=""wtp"" style=""text-align:center; margin-top: 0px; margin-bottom: 0px; font-size: 40px"";>מוכנים לשלם: <span id=""c_p_y""></span></p>","9","evaluation","30","2","4C,17B","50","4","9","","","","","","","","","","","","","","","","",""
"","","","","","html-keyboard-response","38","944997","0.0-17.0-2.6","3952a5d5-ec13-4328-b604-6958480e84d8","null","<p style=""text-align: center;"">+</p>","null","fixation","","","","","","","","","","","","","","","","","","","","","","",""
"","","","","","html-slider-response","39","946001","0.0-17.0-0.7","3952a5d5-ec13-4328-b604-6958480e84d8","1000","
                  <p style=""text-align: center;"">₪79
                                                <br>65%</p>
                  <p id=""wtp"" style=""text-align:center; margin-top: 0px; margin-bottom: 0px; font-size: 40px"";>&ensp;</p>","-","viewing","0","31","8A","","","","","","","","","","","","","","","","","","","",""
"","","","","","html-slider-response","40","949375","0.0-17.0-1.7","3952a5d5-ec13-4328-b604-6958480e84d8","3373","
                  <p style=""text-align: center;"">₪79
                                                <br>65%</p>
                  <p id=""wtp"" style=""text-align:center; margin-top: 0px; margin-bottom: 0px; font-size: 40px"";>מוכנים לשלם: <span id=""c_p_y""></span></p>","78","evaluation","75","31","8A","65","79","78","","","","","","","","","","","","","","","","",""
"","","","","","html-keyboard-response","41","949917","0.0-17.0-2.7","3952a5d5-ec13-4328-b604-6958480e84d8","null","<p style=""text-align: center;"">+</p>","null","fixation","","","","","","","","","","","","","","","","","","","","","","",""
"","","","","","html-slider-response","42","950919","0.0-17.0-0.8","3952a5d5-ec13-4328-b604-6958480e84d8","1000","
                  <p style=""text-align: center;"">₪11
                                                <br>20%</p>
                  <p id=""wtp"" style=""text-align:center; margin-top: 0px; margin-bottom: 0px; font-size: 40px"";>&ensp;</p>","-","viewing","0","4","12C,17C,23C,28C","","","","","","","","","","","","","","","","","","","",""
"","","","","","html-slider-response","43","953351","0.0-17.0-1.8","3952a5d5-ec13-4328-b604-6958480e84d8","2431","
                  <p style=""text-align: center;"">₪11
                                                <br>20%</p>
                  <p id=""wtp"" style=""text-align:center; margin-top: 0px; margin-bottom: 0px; font-size: 40px"";>מוכנים לשלם: <span id=""c_p_y""></span></p>","8","evaluation","8","4","12C,17C,23C,28C","20","11","8","","","","","","","","","","","","","","","","",""
"","","","","","html-keyboard-response","44","953893","0.0-17.0-2.8","3952a5d5-ec13-4328-b604-6958480e84d8","null","<p style=""text-align: center;"">+</p>","null","fixation","","","","","","","","","","","","","","","","","","","","","","",""
"","","","","","html-slider-response","45","954897","0.0-17.0-0.9","3952a5d5-ec13-4328-b604-6958480e84d8","1000","
                  <p style=""text-align: center;"">₪11
                                                <br>75%</p>
                  <p id=""wtp"" style=""text-align:center; margin-top: 0px; margin-bottom: 0px; font-size: 40px"";>&ensp;</p>","-","viewing","0","7","6B,18B,22C,24C,29A","","","","","","","","","","","","","","","","","","","",""
"","","","","","html-slider-response","46","958904","0.0-17.0-1.9","3952a5d5-ec13-4328-b604-6958480e84d8","null","
                  <p style=""text-align: center;"">₪11
                                                <br>75%</p>
                  <p id=""wtp"" style=""text-align:center; margin-top: 0px; margin-bottom: 0px; font-size: 40px"";>מוכנים לשלם: <span id=""c_p_y""></span></p>","null","evaluation","65","7","6B,18B,22C,24C,29A","75","11","14","","","","","","","","","","","","","","","","",""
"","","","","","html-keyboard-response","47","959745","0.0-17.0-2.9","3952a5d5-ec13-4328-b604-6958480e84d8","null","<p style=""text-align: center;"">+</p>","null","fixation","","","","","","","","","","","","","","","","","","","","","","",""
"","","","","","html-slider-response","48","960754","0.0-17.0-0.10","3952a5d5-ec13-4328-b604-6958480e84d8","1000","
                  <p style=""text-align: center;"">₪61
                                                <br>45%</p>
                  <p id=""wtp"" style=""text-align:center; margin-top: 0px; margin-bottom: 0px; font-size: 40px"";>&ensp;</p>","-","viewing","0","22","10A,11A","","","","","","","","","","","","","","","","","","","",""
"","","","","","html-slider-response","49","963751","0.0-17.0-1.10","3952a5d5-ec13-4328-b604-6958480e84d8","2995","
                  <p style=""text-align: center;"">₪61
                                                <br>45%</p>
                  <p id=""wtp"" style=""text-align:center; margin-top: 0px; margin-bottom: 0px; font-size: 40px"";>מוכנים לשלם: <span id=""c_p_y""></span></p>","52","evaluation","38","22","10A,11A","45","61","52","","","","","","","","","","","","","","","","",""
"","","","","","html-keyboard-response","50","965141","0.0-17.0-2.10","3952a5d5-ec13-4328-b604-6958480e84d8","null","<p style=""text-align: center;"">+</p>","null","fixation","","","","","","","","","","","","","","","","","","","","","","",""
"","","","","","html-slider-response","51","966159","0.0-17.0-0.11","3952a5d5-ec13-4328-b604-6958480e84d8","1000","
                  <p style=""text-align: center;"">₪39
                                                <br>65%</p>
                  <p id=""wtp"" style=""text-align:center; margin-top: 0px; margin-bottom: 0px; font-size: 40px"";>&ensp;</p>","-","viewing","0","16","1A,15A,26C","","","","","","","","","","","","","","","","","","","",""
"","","","","","html-slider-response","52","969071","0.0-17.0-1.11","3952a5d5-ec13-4328-b604-6958480e84d8","2911","
                  <p style=""text-align: center;"">₪39
                                                <br>65%</p>
                  <p id=""wtp"" style=""text-align:center; margin-top: 0px; margin-bottom: 0px; font-size: 40px"";>מוכנים לשלם: <span id=""c_p_y""></span></p>","39","evaluation","75","16","1A,15A,26C","65","39","39","","","","","","","","","","","","","","","","",""
"","","","","","html-keyboard-response","53","970454","0.0-17.0-2.11","3952a5d5-ec13-4328-b604-6958480e84d8","null","<p style=""text-align: center;"">+</p>","null","fixation","","","","","","","","","","","","","","","","","","","","","","",""
"","","","","","html-slider-response","54","971463","0.0-17.0-0.12","3952a5d5-ec13-4328-b604-6958480e84d8","1000","
                  <p style=""text-align: center;"">₪36
                                                <br>30%</p>
                  <p id=""wtp"" style=""text-align:center; margin-top: 0px; margin-bottom: 0px; font-size: 40px"";>&ensp;</p>","-","viewing","0","11","3C,20A,22A","","","","","","","","","","","","","","","","","","","",""
"","","","","","html-slider-response","55","973671","0.0-17.0-1.12","3952a5d5-ec13-4328-b604-6958480e84d8","2208","
                  <p style=""text-align: center;"">₪36
                                                <br>30%</p>
                  <p id=""wtp"" style=""text-align:center; margin-top: 0px; margin-bottom: 0px; font-size: 40px"";>מוכנים לשלם: <span id=""c_p_y""></span></p>","33","evaluation","66","11","3C,20A,22A","30","36","33","","","","","","","","","","","","","","","","",""
"","","","","","html-keyboard-response","56","975014","0.0-17.0-2.12","3952a5d5-ec13-4328-b604-6958480e84d8","null","<p style=""text-align: center;"">+</p>","null","fixation","","","","","","","","","","","","","","","","","","","","","","",""
"","","","","","html-slider-response","57","976028","0.0-17.0-0.13","3952a5d5-ec13-4328-b604-6958480e84d8","1000","
                  <p style=""text-align: center;"">₪4
                                                <br>75%</p>
                  <p id=""wtp"" style=""text-align:center; margin-top: 0px; margin-bottom: 0px; font-size: 40px"";>&ensp;</p>","-","viewing","0","3","12B,20B,23B,27C,29C","","","","","","","","","","","","","","","","","","","",""
"","","","","","html-slider-response","58","977647","0.0-17.0-1.13","3952a5d5-ec13-4328-b604-6958480e84d8","1618","
                  <p style=""text-align: center;"">₪4
                                                <br>75%</p>
                  <p id=""wtp"" style=""text-align:center; margin-top: 0px; margin-bottom: 0px; font-size: 40px"";>מוכנים לשלם: <span id=""c_p_y""></span></p>","7","evaluation","34","3","12B,20B,23B,27C,29C","75","4","8","","","","","","","","","","","","","","","","",""
"","","","","","html-keyboard-response","59","978231","0.0-17.0-2.13","3952a5d5-ec13-4328-b604-6958480e84d8","null","<p style=""text-align: center;"">+</p>","null","fixation","","","","","","","","","","","","","","","","","","","","","","",""
"","","","","","html-slider-response","60","979237","0.0-17.0-0.14","3952a5d5-ec13-4328-b604-6958480e84d8","1000","
                  <p style=""text-align: center;"">₪71
                                                <br>55%</p>
                  <p id=""wtp"" style=""text-align:center; margin-top: 0px; margin-bottom: 0px; font-size: 40px"";>&ensp;</p>","-","viewing","0","27","5B,18A","","","","","","","","","","","","","","","","","","","",""
"","","","","","html-slider-response","61","982623","0.0-17.0-1.14","3952a5d5-ec13-4328-b604-6958480e84d8","3385","
                  <p style=""text-align: center;"">₪71
                                                <br>55%</p>
                  <p id=""wtp"" style=""text-align:center; margin-top: 0px; margin-bottom: 0px; font-size: 40px"";>מוכנים לשלם: <span id=""c_p_y""></span></p>","62","evaluation","28","27","5B,18A","55","71","62","","","","","","","","","","","","","","","","",""
"","","","","","html-keyboard-response","62","983387","0.0-17.0-2.14","3952a5d5-ec13-4328-b604-6958480e84d8","null","<p style=""text-align: center;"">+</p>","null","fixation","","","","","","","","","","","","","","","","","","","","","","",""
"","","","","","html-slider-response","63","984396","0.0-17.0-0.15","3952a5d5-ec13-4328-b604-6958480e84d8","1000","
                  <p style=""text-align: center;"">₪4
                                                <br>25%</p>
                  <p id=""wtp"" style=""text-align:center; margin-top: 0px; margin-bottom: 0px; font-size: 40px"";>&ensp;</p>","-","viewing","0","1","6C,29B,30C","","","","","","","","","","","","","","","","","","","",""
"","","","","","html-slider-response","64","987999","0.0-17.0-1.15","3952a5d5-ec13-4328-b604-6958480e84d8","3601","
                  <p style=""text-align: center;"">₪4
                                                <br>25%</p>
                  <p id=""wtp"" style=""text-align:center; margin-top: 0px; margin-bottom: 0px; font-size: 40px"";>מוכנים לשלם: <span id=""c_p_y""></span></p>","4","evaluation","10","1","6C,29B,30C","25","4","5","","","","","","","","","","","","","","","","",""
"","","","","","html-keyboard-response","65","989294","0.0-17.0-2.15","3952a5d5-ec13-4328-b604-6958480e84d8","null","<p style=""text-align: center;"">+</p>","null","fixation","","","","","","","","","","","","","","","","","","","","","","",""
"","","","","","html-slider-response","66","990304","0.0-17.0-0.16","3952a5d5-ec13-4328-b604-6958480e84d8","1000","
                  <p style=""text-align: center;"">₪61
                                                <br>55%</p>
                  <p id=""wtp"" style=""text-align:center; margin-top: 0px; margin-bottom: 0px; font-size: 40px"";>&ensp;</p>","-","viewing","0","23","7B,26B","","","","","","","","","","","","","","","","","","","",""
"","","","","","html-slider-response","67","994317","0.0-17.0-1.16","3952a5d5-ec13-4328-b604-6958480e84d8","null","
                  <p style=""text-align: center;"">₪61
                                                <br>55%</p>
                  <p id=""wtp"" style=""text-align:center; margin-top: 0px; margin-bottom: 0px; font-size: 40px"";>מוכנים לשלם: <span id=""c_p_y""></span></p>","null","evaluation","5","23","7B,26B","55","61","56","","","","","","","","","","","","","","","","",""
"","","","","","html-keyboard-response","68","995572","0.0-17.0-2.16","3952a5d5-ec13-4328-b604-6958480e84d8","null","<p style=""text-align: center;"">+</p>","null","fixation","","","","","","","","","","","","","","","","","","","","","","",""
"","","","","","html-slider-response","69","996584","0.0-17.0-0.17","3952a5d5-ec13-4328-b604-6958480e84d8","1000","
                  <p style=""text-align: center;"">₪43
                                                <br>60%</p>
                  <p id=""wtp"" style=""text-align:center; margin-top: 0px; margin-bottom: 0px; font-size: 40px"";>&ensp;</p>","-","viewing","0","17","2A,7A,9A,15B","","","","","","","","","","","","","","","","","","","",""
"","","","","","html-slider-response","70","998031","0.0-17.0-1.17","3952a5d5-ec13-4328-b604-6958480e84d8","1446","
                  <p style=""text-align: center;"">₪43
                                                <br>60%</p>
                  <p id=""wtp"" style=""text-align:center; margin-top: 0px; margin-bottom: 0px; font-size: 40px"";>מוכנים לשלם: <span id=""c_p_y""></span></p>","46","evaluation","34","17","2A,7A,9A,15B","60","43","46","","","","","","","","","","","","","","","","",""
"","","","","","html-keyboard-response","71","999154","0.0-17.0-2.17","3952a5d5-ec13-4328-b604-6958480e84d8","null","<p style=""text-align: center;"">+</p>","null","fixation","","","","","","","","","","","","","","","","","","","","","","",""
"","","","","","html-slider-response","72","1000157","0.0-17.0-0.18","3952a5d5-ec13-4328-b604-6958480e84d8","1000","
                  <p style=""text-align: center;"">₪36
                                                <br>60%</p>
                  <p id=""wtp"" style=""text-align:center; margin-top: 0px; margin-bottom: 0px; font-size: 40px"";>&ensp;</p>","-","viewing","0","12","1C,7C,15C","","","","","","","","","","","","","","","","","","","",""
"","","","","","html-slider-response","73","1001999","0.0-17.0-1.18","3952a5d5-ec13-4328-b604-6958480e84d8","1842","
                  <p style=""text-align: center;"">₪36
                                                <br>60%</p>
                  <p id=""wtp"" style=""text-align:center; margin-top: 0px; margin-bottom: 0px; font-size: 40px"";>מוכנים לשלם: <span id=""c_p_y""></span></p>","48","evaluation","16","12","1C,7C,15C","60","36","48","","","","","","","","","","","","","","","","",""
"","","","","","html-keyboard-response","74","1002666","0.0-17.0-2.18","3952a5d5-ec13-4328-b604-6958480e84d8","null","<p style=""text-align: center;"">+</p>","null","fixation","","","","","","","","","","","","","","","","","","","","","","",""
"","","","","","html-slider-response","75","1003667","0.0-17.0-0.19","3952a5d5-ec13-4328-b604-6958480e84d8","1000","
                  <p style=""text-align: center;"">₪11
                                                <br>25%</p>
                  <p id=""wtp"" style=""text-align:center; margin-top: 0px; margin-bottom: 0px; font-size: 40px"";>&ensp;</p>","-","viewing","0","5","12A,27B,28B,30B","","","","","","","","","","","","","","","","","","","",""
"","","","","","html-slider-response","76","1005279","0.0-17.0-1.19","3952a5d5-ec13-4328-b604-6958480e84d8","1612","
                  <p style=""text-align: center;"">₪11
                                                <br>25%</p>
                  <p id=""wtp"" style=""text-align:center; margin-top: 0px; margin-bottom: 0px; font-size: 40px"";>מוכנים לשלם: <span id=""c_p_y""></span></p>","12","evaluation","3","5","12A,27B,28B,30B","25","11","12","","","","","","","","","","","","","","","","",""
"","","","","","html-keyboard-response","77","1006285","0.0-17.0-2.19","3952a5d5-ec13-4328-b604-6958480e84d8","null","<p style=""text-align: center;"">+</p>","null","fixation","","","","","","","","","","","","","","","","","","","","","","",""
"","","","","","html-slider-response","78","1007288","0.0-17.0-0.20","3952a5d5-ec13-4328-b604-6958480e84d8","1000","
                  <p style=""text-align: center;"">₪71
                                                <br>75%</p>
                  <p id=""wtp"" style=""text-align:center; margin-top: 0px; margin-bottom: 0px; font-size: 40px"";>&ensp;</p>","-","viewing","0","28","8B","","","","","","","","","","","","","","","","","","","",""
"","","","","","html-slider-response","79","1009983","0.0-17.0-1.20","3952a5d5-ec13-4328-b604-6958480e84d8","2694","
                  <p style=""text-align: center;"">₪71
                                                <br>75%</p>
                  <p id=""wtp"" style=""text-align:center; margin-top: 0px; margin-bottom: 0px; font-size: 40px"";>מוכנים לשלם: <span id=""c_p_y""></span></p>","70","evaluation","63","28","8B","75","71","70","","","","","","","","","","","","","","","","",""
"","","","","","html-keyboard-response","80","1011072","0.0-17.0-2.20","3952a5d5-ec13-4328-b604-6958480e84d8","null","<p style=""text-align: center;"">+</p>","null","fixation","","","","","","","","","","","","","","","","","","","","","","",""
"","","","","","html-slider-response","81","1012086","0.0-17.0-0.21","3952a5d5-ec13-4328-b604-6958480e84d8","1000","
                  <p style=""text-align: center;"">₪11
                                                <br>45%</p>
                  <p id=""wtp"" style=""text-align:center; margin-top: 0px; margin-bottom: 0px; font-size: 40px"";>&ensp;</p>","-","viewing","0","6","14B,21C,25C","","","","","","","","","","","","","","","","","","","",""
"","","","","","html-slider-response","82","1015359","0.0-17.0-1.21","3952a5d5-ec13-4328-b604-6958480e84d8","3272","
                  <p style=""text-align: center;"">₪11
                                                <br>45%</p>
                  <p id=""wtp"" style=""text-align:center; margin-top: 0px; margin-bottom: 0px; font-size: 40px"";>מוכנים לשלם: <span id=""c_p_y""></span></p>","10","evaluation","35","6","14B,21C,25C","45","11","11","","","","","","","","","","","","","","","","",""
"","","","","","html-keyboard-response","83","1016375","0.0-17.0-2.21","3952a5d5-ec13-4328-b604-6958480e84d8","null","<p style=""text-align: center;"">+</p>","null","fixation","","","","","","","","","","","","","","","","","","","","","","",""
"","","","","","html-slider-response","84","1017376","0.0-17.0-0.22","3952a5d5-ec13-4328-b604-6958480e84d8","1000","
                  <p style=""text-align: center;"">₪58
                                                <br>30%</p>
                  <p id=""wtp"" style=""text-align:center; margin-top: 0px; margin-bottom: 0px; font-size: 40px"";>&ensp;</p>","-","viewing","0","19","13C,30A","","","","","","","","","","","","","","","","","","","",""
"","","","","","html-slider-response","85","1019791","0.0-17.0-1.22","3952a5d5-ec13-4328-b604-6958480e84d8","2414","
                  <p style=""text-align: center;"">₪58
                                                <br>30%</p>
                  <p id=""wtp"" style=""text-align:center; margin-top: 0px; margin-bottom: 0px; font-size: 40px"";>מוכנים לשלם: <span id=""c_p_y""></span></p>","34","evaluation","43","19","13C,30A","30","58","34","","","","","","","","","","","","","","","","",""
"","","","","","html-keyboard-response","86","1020604","0.0-17.0-2.22","3952a5d5-ec13-4328-b604-6958480e84d8","null","<p style=""text-align: center;"">+</p>","null","fixation","","","","","","","","","","","","","","","","","","","","","","",""
"","","","","","html-slider-response","87","1021613","0.0-17.0-0.23","3952a5d5-ec13-4328-b604-6958480e84d8","1000","
                  <p style=""text-align: center;"">₪36
                                                <br>75%</p>
                  <p id=""wtp"" style=""text-align:center; margin-top: 0px; margin-bottom: 0px; font-size: 40px"";>&ensp;</p>","-","viewing","0","14","4B,5A,13B,16B","","","","","","","","","","","","","","","","","","","",""
"","","","","","html-slider-response","88","1023895","0.0-17.0-1.23","3952a5d5-ec13-4328-b604-6958480e84d8","2281","
                  <p style=""text-align: center;"">₪36
                                                <br>75%</p>
                  <p id=""wtp"" style=""text-align:center; margin-top: 0px; margin-bottom: 0px; font-size: 40px"";>מוכנים לשלם: <span id=""c_p_y""></span></p>","55","evaluation","24","14","4B,5A,13B,16B","75","36","55","","","","","","","","","","","","","","","","",""
"","","","","","html-keyboard-response","89","1024855","0.0-17.0-2.23","3952a5d5-ec13-4328-b604-6958480e84d8","null","<p style=""text-align: center;"">+</p>","null","fixation","","","","","","","","","","","","","","","","","","","","","","",""
"","","","","","html-slider-response","90","1025867","0.0-17.0-0.24","3952a5d5-ec13-4328-b604-6958480e84d8","1000","
                  <p style=""text-align: center;"">₪64
                                                <br>50%</p>
                  <p id=""wtp"" style=""text-align:center; margin-top: 0px; margin-bottom: 0px; font-size: 40px"";>&ensp;</p>","-","viewing","0","25","1B,3B,4A","","","","","","","","","","","","","","","","","","","",""
"","","","","","html-slider-response","91","1027647","0.0-17.0-1.24","3952a5d5-ec13-4328-b604-6958480e84d8","1780","
                  <p style=""text-align: center;"">₪64
                                                <br>50%</p>
                  <p id=""wtp"" style=""text-align:center; margin-top: 0px; margin-bottom: 0px; font-size: 40px"";>מוכנים לשלם: <span id=""c_p_y""></span></p>","68","evaluation","23","25","1B,3B,4A","50","64","67","","","","","","","","","","","","","","","","",""
"","","","","","html-keyboard-response","92","1028848","0.0-17.0-2.24","3952a5d5-ec13-4328-b604-6958480e84d8","null","<p style=""text-align: center;"">+</p>","null","fixation","","","","","","","","","","","","","","","","","","","","","","",""
"","","","","","html-slider-response","93","1029852","0.0-17.0-0.25","3952a5d5-ec13-4328-b604-6958480e84d8","1000","
                  <p style=""text-align: center;"">₪58
                                                <br>40%</p>
                  <p id=""wtp"" style=""text-align:center; margin-top: 0px; margin-bottom: 0px; font-size: 40px"";>&ensp;</p>","-","viewing","0","20","10C,13A,19C,21B","","","","","","","","","","","","","","","","","","","",""
"","","","","","html-slider-response","94","1032631","0.0-17.0-1.25","3952a5d5-ec13-4328-b604-6958480e84d8","2777","
                  <p style=""text-align: center;"">₪58
                                                <br>40%</p>
                  <p id=""wtp"" style=""text-align:center; margin-top: 0px; margin-bottom: 0px; font-size: 40px"";>מוכנים לשלם: <span id=""c_p_y""></span></p>","43","evaluation","47","20","10C,13A,19C,21B","40","58","43","","","","","","","","","","","","","","","","",""
"","","","","","html-keyboard-response","95","1033516","0.0-17.0-2.25","3952a5d5-ec13-4328-b604-6958480e84d8","null","<p style=""text-align: center;"">+</p>","null","fixation","","","","","","","","","","","","","","","","","","","","","","",""
"","","","","","html-slider-response","96","1034526","0.0-17.0-0.26","3952a5d5-ec13-4328-b604-6958480e84d8","1000","
                  <p style=""text-align: center;"">₪36
                                                <br>70%</p>
                  <p id=""wtp"" style=""text-align:center; margin-top: 0px; margin-bottom: 0px; font-size: 40px"";>&ensp;</p>","-","viewing","0","13","3A,5C,10B","","","","","","","","","","","","","","","","","","","",""
"","","","","","html-slider-response","97","1036583","0.0-17.0-1.26","3952a5d5-ec13-4328-b604-6958480e84d8","2056","
                  <p style=""text-align: center;"">₪36
                                                <br>70%</p>
                  <p id=""wtp"" style=""text-align:center; margin-top: 0px; margin-bottom: 0px; font-size: 40px"";>מוכנים לשלם: <span id=""c_p_y""></span></p>","45","evaluation","19","13","3A,5C,10B","70","36","45","","","","","","","","","","","","","","","","",""
"","","","","","html-keyboard-response","98","1037736","0.0-17.0-2.26","3952a5d5-ec13-4328-b604-6958480e84d8","null","<p style=""text-align: center;"">+</p>","null","fixation","","","","","","","","","","","","","","","","","","","","","","",""
"","","","","","html-slider-response","99","1038746","0.0-17.0-0.27","3952a5d5-ec13-4328-b604-6958480e84d8","1000","
                  <p style=""text-align: center;"">₪58
                                                <br>45%</p>
                  <p id=""wtp"" style=""text-align:center; margin-top: 0px; margin-bottom: 0px; font-size: 40px"";>&ensp;</p>","-","viewing","0","21","11C,18C,25A","","","","","","","","","","","","","","","","","","","",""
"","","","","","html-slider-response","100","1041631","0.0-17.0-1.27","3952a5d5-ec13-4328-b604-6958480e84d8","2884","
                  <p style=""text-align: center;"">₪58
                                                <br>45%</p>
                  <p id=""wtp"" style=""text-align:center; margin-top: 0px; margin-bottom: 0px; font-size: 40px"";>מוכנים לשלם: <span id=""c_p_y""></span></p>","48","evaluation","6","21","11C,18C,25A","45","58","48","","","","","","","","","","","","","","","","",""
"","","","","","html-keyboard-response","101","1042244","0.0-17.0-2.27","3952a5d5-ec13-4328-b604-6958480e84d8","null","<p style=""text-align: center;"">+</p>","null","fixation","","","","","","","","","","","","","","","","","","","","","","",""
"","","","","","html-slider-response","102","1043252","0.0-17.0-0.28","3952a5d5-ec13-4328-b604-6958480e84d8","1000","
                  <p style=""text-align: center;"">₪76
                                                <br>65%</p>
                  <p id=""wtp"" style=""text-align:center; margin-top: 0px; margin-bottom: 0px; font-size: 40px"";>&ensp;</p>","-","viewing","0","29","8C,19A,24B","","","","","","","","","","","","","","","","","","","",""
"","","","","","html-slider-response","103","1044535","0.0-17.0-1.28","3952a5d5-ec13-4328-b604-6958480e84d8","1282","
                  <p style=""text-align: center;"">₪76
                                                <br>65%</p>
                  <p id=""wtp"" style=""text-align:center; margin-top: 0px; margin-bottom: 0px; font-size: 40px"";>מוכנים לשלם: <span id=""c_p_y""></span></p>","80","evaluation","54","29","8C,19A,24B","65","76","80","","","","","","","","","","","","","","","","",""
"","","","","","html-keyboard-response","104","1045208","0.0-17.0-2.28","3952a5d5-ec13-4328-b604-6958480e84d8","null","<p style=""text-align: center;"">+</p>","null","fixation","","","","","","","","","","","","","","","","","","","","","","",""
"","","","","","html-slider-response","105","1046215","0.0-17.0-0.29","3952a5d5-ec13-4328-b604-6958480e84d8","1000","
                  <p style=""text-align: center;"">₪16
                                                <br>20%</p>
                  <p id=""wtp"" style=""text-align:center; margin-top: 0px; margin-bottom: 0px; font-size: 40px"";>&ensp;</p>","-","viewing","0","8","14C,17A,20C,27A","","","","","","","","","","","","","","","","","","","",""
"","","","","","html-slider-response","106","1049159","0.0-17.0-1.29","3952a5d5-ec13-4328-b604-6958480e84d8","2943","
                  <p style=""text-align: center;"">₪16
                                                <br>20%</p>
                  <p id=""wtp"" style=""text-align:center; margin-top: 0px; margin-bottom: 0px; font-size: 40px"";>מוכנים לשלם: <span id=""c_p_y""></span></p>","15","evaluation","53","8","14C,17A,20C,27A","20","16","15","","","","","","","","","","","","","","","","",""
"","","","","","html-keyboard-response","107","1050608","0.0-17.0-2.29","3952a5d5-ec13-4328-b604-6958480e84d8","null","<p style=""text-align: center;"">+</p>","null","fixation","","","","","","","","","","","","","","","","","","","","","","",""
"","","","","","html-slider-response","108","1051612","0.0-17.0-0.30","3952a5d5-ec13-4328-b604-6958480e84d8","1000","
                  <p style=""text-align: center;"">₪39
                                                <br>60%</p>
                  <p id=""wtp"" style=""text-align:center; margin-top: 0px; margin-bottom: 0px; font-size: 40px"";>&ensp;</p>","-","viewing","0","15","9C,25B","","","","","","","","","","","","","","","","","","","",""
"","","","","","html-slider-response","109","1054319","0.0-17.0-1.30","3952a5d5-ec13-4328-b604-6958480e84d8","2706","
                  <p style=""text-align: center;"">₪39
                                                <br>60%</p>
                  <p id=""wtp"" style=""text-align:center; margin-top: 0px; margin-bottom: 0px; font-size: 40px"";>מוכנים לשלם: <span id=""c_p_y""></span></p>","43","evaluation","39","15","9C,25B","60","39","43","","","","","","","","","","","","","","","","",""
"","","","","","html-keyboard-response","110","1055711","0.0-17.0-2.30","3952a5d5-ec13-4328-b604-6958480e84d8","null","<p style=""text-align: center;"">+</p>","null","fixation","","","","","","","","","","","","","","","","","","","","","","",""
"","","","","","html-keyboard-response","111","1056721","0.0-18.0","3952a5d5-ec13-4328-b604-6958480e84d8","null","<p style=""text-align: center;"">+</p>","null","fixation","","","","","","","","","","","","","","","","","","","","","","",""
"","","","","","html-keyboard-response","112","1058304","0.0-19.0","3952a5d5-ec13-4328-b604-6958480e84d8","1581","<p>הפסקה.
          <br>לחצו כדי להמשיך.</p>"," ","scan_wait","","","","","","","","","","","","","","","","","","","","","","",""
"","","","","","html-keyboard-response","113","1059317","0.0-20.0","3952a5d5-ec13-4328-b604-6958480e84d8","null","<p style=""text-align: center;"">+</p>","null","fixation","","","","","","","","","","","","","","","","","","","","","","",""
"","","","","","html-slider-response","114","1060322","0.0-21.0-0.0","3952a5d5-ec13-4328-b604-6958480e84d8","1000","
                  <p style=""text-align: center;"">₪79
                                                <br>65%</p>
                  <p id=""wtp"" style=""text-align:center; margin-top: 0px; margin-bottom: 0px; font-size: 40px"";>&ensp;</p>","-","viewing","0","31","8A","","","","","","","","","","","","","","","","","","","",""
"","","","","","html-slider-response","115","1063143","0.0-21.0-1.0","3952a5d5-ec13-4328-b604-6958480e84d8","2820","
                  <p style=""text-align: center;"">₪79
                                                <br>65%</p>
                  <p id=""wtp"" style=""text-align:center; margin-top: 0px; margin-bottom: 0px; font-size: 40px"";>מוכנים לשלם: <span id=""c_p_y""></span></p>","66","evaluation","44","31","8A","65","79","65","","","","","","","","","","","","","","","","",""
"","","","","","html-keyboard-response","116","1064486","0.0-21.0-2.0","3952a5d5-ec13-4328-b604-6958480e84d8","null","<p style=""text-align: center;"">+</p>","null","fixation","","","","","","","","","","","","","","","","","","","","","","",""
"","","","","","html-slider-response","117","1065492","0.0-21.0-0.1","3952a5d5-ec13-4328-b604-6958480e84d8","1000","
                  <p style=""text-align: center;"">₪36
                                                <br>60%</p>
                  <p id=""wtp"" style=""text-align:center; margin-top: 0px; margin-bottom: 0px; font-size: 40px"";>&ensp;</p>","-","viewing","0","12","1C,7C,15C","","","","","","","","","","","","","","","","","","","",""
"","","","","","html-slider-response","118","1068711","0.0-21.0-1.1","3952a5d5-ec13-4328-b604-6958480e84d8","3217","
                  <p style=""text-align: center;"">₪36
                                                <br>60%</p>
                  <p id=""wtp"" style=""text-align:center; margin-top: 0px; margin-bottom: 0px; font-size: 40px"";>מוכנים לשלם: <span id=""c_p_y""></span></p>","41","evaluation","14","12","1C,7C,15C","60","36","41","","","","","","","","","","","","","","","","",""
"","","","","","html-keyboard-response","119","1069852","0.0-21.0-2.1","3952a5d5-ec13-4328-b604-6958480e84d8","null","<p style=""text-align: center;"">+</p>","null","fixation","","","","","","","","","","","","","","","","","","","","","","",""
"","","","","","html-slider-response","120","1070861","0.0-21.0-0.2","3952a5d5-ec13-4328-b604-6958480e84d8","1000","
                  <p style=""text-align: center;"">₪11
                                                <br>20%</p>
                  <p id=""wtp"" style=""text-align:center; margin-top: 0px; margin-bottom: 0px; font-size: 40px"";>&ensp;</p>","-","viewing","0","4","12C,17C,23C,28C","","","","","","","","","","","","","","","","","","","",""
"","","","","","html-slider-response","121","1073487","0.0-21.0-1.2","3952a5d5-ec13-4328-b604-6958480e84d8","2625","
                  <p style=""text-align: center;"">₪11
                                                <br>20%</p>
                  <p id=""wtp"" style=""text-align:center; margin-top: 0px; margin-bottom: 0px; font-size: 40px"";>מוכנים לשלם: <span id=""c_p_y""></span></p>","4","evaluation","32","4","12C,17C,23C,28C","20","11","5","","","","","","","","","","","","","","","","",""
"","","","","","html-keyboard-response","122","1074168","0.0-21.0-2.2","3952a5d5-ec13-4328-b604-6958480e84d8","null","<p style=""text-align: center;"">+</p>","null","fixation","","","","","","","","","","","","","","","","","","","","","","",""
"","","","","","html-slider-response","123","1075185","0.0-21.0-0.3","3952a5d5-ec13-4328-b604-6958480e84d8","1000","
                  <p style=""text-align: center;"">₪71
                                                <br>55%</p>
                  <p id=""wtp"" style=""text-align:center; margin-top: 0px; margin-bottom: 0px; font-size: 40px"";>&ensp;</p>","-","viewing","0","27","5B,18A","","","","","","","","","","","","","","","","","","","",""
"","","","","","html-slider-response","124","1078431","0.0-21.0-1.3","3952a5d5-ec13-4328-b604-6958480e84d8","3245","
                  <p style=""text-align: center;"">₪71
                                                <br>55%</p>
                  <p id=""wtp"" style=""text-align:center; margin-top: 0px; margin-bottom: 0px; font-size: 40px"";>מוכנים לשלם: <span id=""c_p_y""></span></p>","59","evaluation","57","27","5B,18A","55","71","59","","","","","","","","","","","","","","","","",""
"","","","","","html-keyboard-response","125","1079047","0.0-21.0-2.3","3952a5d5-ec13-4328-b604-6958480e84d8","null","<p style=""text-align: center;"">+</p>","null","fixation","","","","","","","","","","","","","","","","","","","","","","",""
"","","","","","html-slider-response","126","1080050","0.0-21.0-0.4","3952a5d5-ec13-4328-b604-6958480e84d8","1000","
                  <p style=""text-align: center;"">₪61
                                                <br>45%</p>
                  <p id=""wtp"" style=""text-align:center; margin-top: 0px; margin-bottom: 0px; font-size: 40px"";>&ensp;</p>","-","viewing","0","22","10A,11A","","","","","","","","","","","","","","","","","","","",""
"","","","","","html-slider-response","127","1082895","0.0-21.0-1.4","3952a5d5-ec13-4328-b604-6958480e84d8","2844","
                  <p style=""text-align: center;"">₪61
                                                <br>45%</p>
                  <p id=""wtp"" style=""text-align:center; margin-top: 0px; margin-bottom: 0px; font-size: 40px"";>מוכנים לשלם: <span id=""c_p_y""></span></p>","47","evaluation","69","22","10A,11A","45","61","47","","","","","","","","","","","","","","","","",""
"","","","","","html-keyboard-response","128","1084190","0.0-21.0-2.4","3952a5d5-ec13-4328-b604-6958480e84d8","null","<p style=""text-align: center;"">+</p>","null","fixation","","","","","","","","","","","","","","","","","","","","","","",""
"","","","","","html-slider-response","129","1085199","0.0-21.0-0.5","3952a5d5-ec13-4328-b604-6958480e84d8","1000","
                  <p style=""text-align: center;"">₪71
                                                <br>45%</p>
                  <p id=""wtp"" style=""text-align:center; margin-top: 0px; margin-bottom: 0px; font-size: 40px"";>&ensp;</p>","-","viewing","0","26","2B,16A","","","","","","","","","","","","","","","","","","","",""
"","","","","","html-slider-response","130","1087167","0.0-21.0-1.5","3952a5d5-ec13-4328-b604-6958480e84d8","1967","
                  <p style=""text-align: center;"">₪71
                                                <br>45%</p>
                  <p id=""wtp"" style=""text-align:center; margin-top: 0px; margin-bottom: 0px; font-size: 40px"";>מוכנים לשלם: <span id=""c_p_y""></span></p>","55","evaluation","31","26","2B,16A","45","71","55","","","","","","","","","","","","","","","","",""
"","","","","","html-keyboard-response","131","1088018","0.0-21.0-2.5","3952a5d5-ec13-4328-b604-6958480e84d8","null","<p style=""text-align: center;"">+</p>","null","fixation","","","","","","","","","","","","","","","","","","","","","","",""
"","","","","","html-slider-response","132","1089030","0.0-21.0-0.6","3952a5d5-ec13-4328-b604-6958480e84d8","1000","
                  <p style=""text-align: center;"">₪71
                                                <br>75%</p>
                  <p id=""wtp"" style=""text-align:center; margin-top: 0px; margin-bottom: 0px; font-size: 40px"";>&ensp;</p>","-","viewing","0","28","8B","","","","","","","","","","","","","","","","","","","",""
"","","","","","html-slider-response","133","1092199","0.0-21.0-1.6","3952a5d5-ec13-4328-b604-6958480e84d8","3168","
                  <p style=""text-align: center;"">₪71
                                                <br>75%</p>
                  <p id=""wtp"" style=""text-align:center; margin-top: 0px; margin-bottom: 0px; font-size: 40px"";>מוכנים לשלם: <span id=""c_p_y""></span></p>","80","evaluation","74","28","8B","75","71","80","","","","","","","","","","","","","","","","",""
"","","","","","html-keyboard-response","134","1093575","0.0-21.0-2.6","3952a5d5-ec13-4328-b604-6958480e84d8","null","<p style=""text-align: center;"">+</p>","null","fixation","","","","","","","","","","","","","","","","","","","","","","",""
"","","","","","html-slider-response","135","1094582","0.0-21.0-0.7","3952a5d5-ec13-4328-b604-6958480e84d8","1000","
                  <p style=""text-align: center;"">₪61
                                                <br>55%</p>
                  <p id=""wtp"" style=""text-align:center; margin-top: 0px; margin-bottom: 0px; font-size: 40px"";>&ensp;</p>","-","viewing","0","23","7B,26B","","","","","","","","","","","","","","","","","","","",""
"","","","","","html-slider-response","136","1097303","0.0-21.0-1.7","3952a5d5-ec13-4328-b604-6958480e84d8","2720","
                  <p style=""text-align: center;"">₪61
                                                <br>55%</p>
                  <p id=""wtp"" style=""text-align:center; margin-top: 0px; margin-bottom: 0px; font-size: 40px"";>מוכנים לשלם: <span id=""c_p_y""></span></p>","44","evaluation","33","23","7B,26B","55","61","44","","","","","","","","","","","","","","","","",""
"","","","","","html-keyboard-response","137","1097963","0.0-21.0-2.7","3952a5d5-ec13-4328-b604-6958480e84d8","null","<p style=""text-align: center;"">+</p>","null","fixation","","","","","","","","","","","","","","","","","","","","","","",""
"","","","","","html-slider-response","138","1098972","0.0-21.0-0.8","3952a5d5-ec13-4328-b604-6958480e84d8","1000","
                  <p style=""text-align: center;"">₪64
                                                <br>25%</p>
                  <p id=""wtp"" style=""text-align:center; margin-top: 0px; margin-bottom: 0px; font-size: 40px"";>&ensp;</p>","-","viewing","0","24","6A,21A","","","","","","","","","","","","","","","","","","","",""
"","","","","","html-slider-response","139","1102263","0.0-21.0-1.8","3952a5d5-ec13-4328-b604-6958480e84d8","3289","
                  <p style=""text-align: center;"">₪64
                                                <br>25%</p>
                  <p id=""wtp"" style=""text-align:center; margin-top: 0px; margin-bottom: 0px; font-size: 40px"";>מוכנים לשלם: <span id=""c_p_y""></span></p>","27","evaluation","78","24","6A,21A","25","64","27","","","","","","","","","","","","","","","","",""
"","","","","","html-keyboard-response","140","1102996","0.0-21.0-2.8","3952a5d5-ec13-4328-b604-6958480e84d8","null","<p style=""text-align: center;"">+</p>","null","fixation","","","","","","","","","","","","","","","","","","","","","","",""
"","","","","","html-slider-response","141","1104011","0.0-21.0-0.9","3952a5d5-ec13-4328-b604-6958480e84d8","1000","
                  <p style=""text-align: center;"">₪58
                                                <br>30%</p>
                  <p id=""wtp"" style=""text-align:center; margin-top: 0px; margin-bottom: 0px; font-size: 40px"";>&ensp;</p>","-","viewing","0","19","13C,30A","","","","","","","","","","","","","","","","","","","",""
"","","","","","html-slider-response","142","1106823","0.0-21.0-1.9","3952a5d5-ec13-4328-b604-6958480e84d8","2810","
                  <p style=""text-align: center;"">₪58
                                                <br>30%</p>
                  <p id=""wtp"" style=""text-align:center; margin-top: 0px; margin-bottom: 0px; font-size: 40px"";>מוכנים לשלם: <span id=""c_p_y""></span></p>","24","evaluation","4","19","13C,30A","30","58","24","","","","","","","","","","","","","","","","",""
"","","","","","html-keyboard-response","143","1107613","0.0-21.0-2.9","3952a5d5-ec13-4328-b604-6958480e84d8","null","<p style=""text-align: center;"">+</p>","null","fixation","","","","","","","","","","","","","","","","","","","","","","",""
"","","","","","html-slider-response","144","1108617","0.0-21.0-0.10","3952a5d5-ec13-4328-b604-6958480e84d8","1000","
                  <p style=""text-align: center;"">₪11
                                                <br>25%</p>
                  <p id=""wtp"" style=""text-align:center; margin-top: 0px; margin-bottom: 0px; font-size: 40px"";>&ensp;</p>","-","viewing","0","5","12A,27B,28B,30B","","","","","","","","","","","","","","","","","","","",""
"","","","","","html-slider-response","145","1111855","0.0-21.0-1.10","3952a5d5-ec13-4328-b604-6958480e84d8","3237","
                  <p style=""text-align: center;"">₪11
                                                <br>25%</p>
                  <p id=""wtp"" style=""text-align:center; margin-top: 0px; margin-bottom: 0px; font-size: 40px"";>מוכנים לשלם: <span id=""c_p_y""></span></p>","7","evaluation","59","5","12A,27B,28B,30B","25","11","8","","","","","","","","","","","","","","","","",""
"","","","","","html-keyboard-response","146","1113136","0.0-21.0-2.10","3952a5d5-ec13-4328-b604-6958480e84d8","null","<p style=""text-align: center;"">+</p>","null","fixation","","","","","","","","","","","","","","","","","","","","","","",""
"","","","","","html-slider-response","147","1114139","0.0-21.0-0.11","3952a5d5-ec13-4328-b604-6958480e84d8","1000","
                  <p style=""text-align: center;"">₪79
                                                <br>40%</p>
                  <p id=""wtp"" style=""text-align:center; margin-top: 0px; margin-bottom: 0px; font-size: 40px"";>&ensp;</p>","-","viewing","0","30","9B","","","","","","","","","","","","","","","","","","","",""
"","","","","","html-slider-response","148","1116703","0.0-21.0-1.11","3952a5d5-ec13-4328-b604-6958480e84d8","2563","
                  <p style=""text-align: center;"">₪79
                                                <br>40%</p>
                  <p id=""wtp"" style=""text-align:center; margin-top: 0px; margin-bottom: 0px; font-size: 40px"";>מוכנים לשלם: <span id=""c_p_y""></span></p>","44","evaluation","48","30","9B","40","79","44","","","","","","","","","","","","","","","","",""
"","","","","","html-keyboard-response","149","1117474","0.0-21.0-2.11","3952a5d5-ec13-4328-b604-6958480e84d8","null","<p style=""text-align: center;"">+</p>","null","fixation","","","","","","","","","","","","","","","","","","","","","","",""
"","","","","","html-slider-response","150","1118487","0.0-21.0-0.12","3952a5d5-ec13-4328-b604-6958480e84d8","1000","
                  <p style=""text-align: center;"">₪4
                                                <br>75%</p>
                  <p id=""wtp"" style=""text-align:center; margin-top: 0px; margin-bottom: 0px; font-size: 40px"";>&ensp;</p>","-","viewing","0","3","12B,20B,23B,27C,29C","","","","","","","","","","","","","","","","","","","",""
"","","","","","html-slider-response","151","1120990","0.0-21.0-1.12","3952a5d5-ec13-4328-b604-6958480e84d8","2502","
                  <p style=""text-align: center;"">₪4
                                                <br>75%</p>
                  <p id=""wtp"" style=""text-align:center; margin-top: 0px; margin-bottom: 0px; font-size: 40px"";>מוכנים לשלם: <span id=""c_p_y""></span></p>","9","evaluation","70","3","12B,20B,23B,27C,29C","75","4","9","","","","","","","","","","","","","","","","",""
"","","","","","html-keyboard-response","152","1122213","0.0-21.0-2.12","3952a5d5-ec13-4328-b604-6958480e84d8","null","<p style=""text-align: center;"">+</p>","null","fixation","","","","","","","","","","","","","","","","","","","","","","",""
"","","","","","html-slider-response","153","1123214","0.0-21.0-0.13","3952a5d5-ec13-4328-b604-6958480e84d8","1000","
                  <p style=""text-align: center;"">₪18
                                                <br>25%</p>
                  <p id=""wtp"" style=""text-align:center; margin-top: 0px; margin-bottom: 0px; font-size: 40px"";>&ensp;</p>","-","viewing","0","9","14A,23A","","","","","","","","","","","","","","","","","","","",""
"","","","","","html-slider-response","154","1126222","0.0-21.0-1.13","3952a5d5-ec13-4328-b604-6958480e84d8","3007","
                  <p style=""text-align: center;"">₪18
                                                <br>25%</p>
                  <p id=""wtp"" style=""text-align:center; margin-top: 0px; margin-bottom: 0px; font-size: 40px"";>מוכנים לשלם: <span id=""c_p_y""></span></p>","8","evaluation","28","9","14A,23A","25","18","9","","","","","","","","","","","","","","","","",""
"","","","","","html-keyboard-response","155","1127484","0.0-21.0-2.13","3952a5d5-ec13-4328-b604-6958480e84d8","null","<p style=""text-align: center;"">+</p>","null","fixation","","","","","","","","","","","","","","","","","","","","","","",""
"","","","","","html-slider-response","156","1128502","0.0-21.0-0.14","3952a5d5-ec13-4328-b604-6958480e84d8","1000","
                  <p style=""text-align: center;"">₪58
                                                <br>40%</p>
                  <p id=""wtp"" style=""text-align:center; margin-top: 0px; margin-bottom: 0px; font-size: 40px"";>&ensp;</p>","-","viewing","0","20","10C,13A,19C,21B","","","","","","","","","","","","","","","","","","","",""
"","","","","","html-slider-response","157","1131318","0.0-21.0-1.14","3952a5d5-ec13-4328-b604-6958480e84d8","2815","
                  <p style=""text-align: center;"">₪58
                                                <br>40%</p>
                  <p id=""wtp"" style=""text-align:center; margin-top: 0px; margin-bottom: 0px; font-size: 40px"";>מוכנים לשלם: <span id=""c_p_y""></span></p>","33","evaluation","49","20","10C,13A,19C,21B","40","58","33","","","","","","","","","","","","","","","","",""
"","","","","","html-keyboard-response","158","1132184","0.0-21.0-2.14","3952a5d5-ec13-4328-b604-6958480e84d8","null","<p style=""text-align: center;"">+</p>","null","fixation","","","","","","","","","","","","","","","","","","","","","","",""
"","","","","","html-slider-response","159","1133197","0.0-21.0-0.15","3952a5d5-ec13-4328-b604-6958480e84d8","1000","
                  <p style=""text-align: center;"">₪16
                                                <br>20%</p>
                  <p id=""wtp"" style=""text-align:center; margin-top: 0px; margin-bottom: 0px; font-size: 40px"";>&ensp;</p>","-","viewing","0","8","14C,17A,20C,27A","","","","","","","","","","","","","","","","","","","",""
"","","","","","html-slider-response","160","1136542","0.0-21.0-1.15","3952a5d5-ec13-4328-b604-6958480e84d8","3344","
                  <p style=""text-align: center;"">₪16
                                                <br>20%</p>
                  <p id=""wtp"" style=""text-align:center; margin-top: 0px; margin-bottom: 0px; font-size: 40px"";>מוכנים לשלם: <span id=""c_p_y""></span></p>","8","evaluation","7","8","14C,17A,20C,27A","20","16","8","","","","","","","","","","","","","","","","",""
"","","","","","html-keyboard-response","161","1137202","0.0-21.0-2.15","3952a5d5-ec13-4328-b604-6958480e84d8","null","<p style=""text-align: center;"">+</p>","null","fixation","","","","","","","","","","","","","","","","","","","","","","",""
"","","","","","html-slider-response","162","1138211","0.0-21.0-0.16","3952a5d5-ec13-4328-b604-6958480e84d8","1000","
                  <p style=""text-align: center;"">₪11
                                                <br>75%</p>
                  <p id=""wtp"" style=""text-align:center; margin-top: 0px; margin-bottom: 0px; font-size: 40px"";>&ensp;</p>","-","viewing","0","7","6B,18B,22C,24C,29A","","","","","","","","","","","","","","","","","","","",""
"","","","","","html-slider-response","163","1140582","0.0-21.0-1.16","3952a5d5-ec13-4328-b604-6958480e84d8","2370","
                  <p style=""text-align: center;"">₪11
                                                <br>75%</p>
                  <p id=""wtp"" style=""text-align:center; margin-top: 0px; margin-bottom: 0px; font-size: 40px"";>מוכנים לשלם: <span id=""c_p_y""></span></p>","6","evaluation","25","7","6B,18B,22C,24C,29A","75","11","7","","","","","","","","","","","","","","","","",""
"","","","","","html-keyboard-response","164","1141948","0.0-21.0-2.16","3952a5d5-ec13-4328-b604-6958480e84d8","null","<p style=""text-align: center;"">+</p>","null","fixation","","","","","","","","","","","","","","","","","","","","","","",""
"","","","","","html-slider-response","165","1142950","0.0-21.0-0.17","3952a5d5-ec13-4328-b604-6958480e84d8","1000","
                  <p style=""text-align: center;"">₪58
                                                <br>45%</p>
                  <p id=""wtp"" style=""text-align:center; margin-top: 0px; margin-bottom: 0px; font-size: 40px"";>&ensp;</p>","-","viewing","0","21","11C,18C,25A","","","","","","","","","","","","","","","","","","","",""
"","","","","","html-slider-response","166","1144326","0.0-21.0-1.17","3952a5d5-ec13-4328-b604-6958480e84d8","1375","
                  <p style=""text-align: center;"">₪58
                                                <br>45%</p>
                  <p id=""wtp"" style=""text-align:center; margin-top: 0px; margin-bottom: 0px; font-size: 40px"";>מוכנים לשלם: <span id=""c_p_y""></span></p>","31","evaluation","38","21","11C,18C,25A","45","58","31","","","","","","","","","","","","","","","","",""
"","","","","","html-keyboard-response","167","1145085","0.0-21.0-2.17","3952a5d5-ec13-4328-b604-6958480e84d8","null","<p style=""text-align: center;"">+</p>","null","fixation","","","","","","","","","","","","","","","","","","","","","","",""
"","","","","","html-slider-response","168","1146099","0.0-21.0-0.18","3952a5d5-ec13-4328-b604-6958480e84d8","1000","
                  <p style=""text-align: center;"">₪36
                                                <br>30%</p>
                  <p id=""wtp"" style=""text-align:center; margin-top: 0px; margin-bottom: 0px; font-size: 40px"";>&ensp;</p>","-","viewing","0","11","3C,20A,22A","","","","","","","","","","","","","","","","","","","",""
"","","","","","html-slider-response","169","1148654","0.0-21.0-1.18","3952a5d5-ec13-4328-b604-6958480e84d8","2554","
                  <p style=""text-align: center;"">₪36
                                                <br>30%</p>
                  <p id=""wtp"" style=""text-align:center; margin-top: 0px; margin-bottom: 0px; font-size: 40px"";>מוכנים לשלם: <span id=""c_p_y""></span></p>","11","evaluation","79","11","3C,20A,22A","30","36","11","","","","","","","","","","","","","","","","",""
"","","","","","html-keyboard-response","170","1149220","0.0-21.0-2.18","3952a5d5-ec13-4328-b604-6958480e84d8","null","<p style=""text-align: center;"">+</p>","null","fixation","","","","","","","","","","","","","","","","","","","","","","",""
"","","","","","html-slider-response","171","1150236","0.0-21.0-0.19","3952a5d5-ec13-4328-b604-6958480e84d8","1000","
                  <p style=""text-align: center;"">₪11
                                                <br>45%</p>
                  <p id=""wtp"" style=""text-align:center; margin-top: 0px; margin-bottom: 0px; font-size: 40px"";>&ensp;</p>","-","viewing","0","6","14B,21C,25C","","","","","","","","","","","","","","","","","","","",""
"","","","","","html-slider-response","172","1152926","0.0-21.0-1.19","3952a5d5-ec13-4328-b604-6958480e84d8","2688","
                  <p style=""text-align: center;"">₪11
                                                <br>45%</p>
                  <p id=""wtp"" style=""text-align:center; margin-top: 0px; margin-bottom: 0px; font-size: 40px"";>מוכנים לשלם: <span id=""c_p_y""></span></p>","10","evaluation","45","6","14B,21C,25C","45","11","11","","","","","","","","","","","","","","","","",""
"","","","","","html-keyboard-response","173","1153663","0.0-21.0-2.19","3952a5d5-ec13-4328-b604-6958480e84d8","null","<p style=""text-align: center;"">+</p>","null","fixation","","","","","","","","","","","","","","","","","","","","","","",""
"","","","","","html-slider-response","174","1154678","0.0-21.0-0.20","3952a5d5-ec13-4328-b604-6958480e84d8","1000","
                  <p style=""text-align: center;"">₪18
                                                <br>50%</p>
                  <p id=""wtp"" style=""text-align:center; margin-top: 0px; margin-bottom: 0px; font-size: 40px"";>&ensp;</p>","-","viewing","0","10","2C,16C,22B,28A","","","","","","","","","","","","","","","","","","","",""
"","","","","","html-slider-response","175","1156622","0.0-21.0-1.20","3952a5d5-ec13-4328-b604-6958480e84d8","1944","
                  <p style=""text-align: center;"">₪18
                                                <br>50%</p>
                  <p id=""wtp"" style=""text-align:center; margin-top: 0px; margin-bottom: 0px; font-size: 40px"";>מוכנים לשלם: <span id=""c_p_y""></span></p>","15","evaluation","5","10","2C,16C,22B,28A","50","18","15","","","","","","","","","","","","","","","","",""
"","","","","","html-keyboard-response","176","1157397","0.0-21.0-2.20","3952a5d5-ec13-4328-b604-6958480e84d8","null","<p style=""text-align: center;"">+</p>","null","fixation","","","","","","","","","","","","","","","","","","","","","","",""
"","","","","","html-slider-response","177","1158400","0.0-21.0-0.21","3952a5d5-ec13-4328-b604-6958480e84d8","1000","
                  <p style=""text-align: center;"">₪36
                                                <br>75%</p>
                  <p id=""wtp"" style=""text-align:center; margin-top: 0px; margin-bottom: 0px; font-size: 40px"";>&ensp;</p>","-","viewing","0","14","4B,5A,13B,16B","","","","","","","","","","","","","","","","","","","",""
"","","","","","html-slider-response","178","1160758","0.0-21.0-1.21","3952a5d5-ec13-4328-b604-6958480e84d8","2357","
                  <p style=""text-align: center;"">₪36
                                                <br>75%</p>
                  <p id=""wtp"" style=""text-align:center; margin-top: 0px; margin-bottom: 0px; font-size: 40px"";>מוכנים לשלם: <span id=""c_p_y""></span></p>","54","evaluation","50","14","4B,5A,13B,16B","75","36","54","","","","","","","","","","","","","","","","",""
"","","","","","html-keyboard-response","179","1161390","0.0-21.0-2.21","3952a5d5-ec13-4328-b604-6958480e84d8","null","<p style=""text-align: center;"">+</p>","null","fixation","","","","","","","","","","","","","","","","","","","","","","",""
"","","","","","html-slider-response","180","1162403","0.0-21.0-0.22","3952a5d5-ec13-4328-b604-6958480e84d8","1000","
                  <p style=""text-align: center;"">₪4
                                                <br>50%</p>
                  <p id=""wtp"" style=""text-align:center; margin-top: 0px; margin-bottom: 0px; font-size: 40px"";>&ensp;</p>","-","viewing","0","2","4C,17B","","","","","","","","","","","","","","","","","","","",""
"","","","","","html-slider-response","181","1165838","0.0-21.0-1.22","3952a5d5-ec13-4328-b604-6958480e84d8","3434","
                  <p style=""text-align: center;"">₪4
                                                <br>50%</p>
                  <p id=""wtp"" style=""text-align:center; margin-top: 0px; margin-bottom: 0px; font-size: 40px"";>מוכנים לשלם: <span id=""c_p_y""></span></p>","4","evaluation","25","2","4C,17B","50","4","4","","","","","","","","","","","","","","","","",""
"","","","","","html-keyboard-response","182","1166646","0.0-21.0-2.22","3952a5d5-ec13-4328-b604-6958480e84d8","null","<p style=""text-align: center;"">+</p>","null","fixation","","","","","","","","","","","","","","","","","","","","","","",""
"","","","","","html-slider-response","183","1167654","0.0-21.0-0.23","3952a5d5-ec13-4328-b604-6958480e84d8","1000","
                  <p style=""text-align: center;"">₪36
                                                <br>70%</p>
                  <p id=""wtp"" style=""text-align:center; margin-top: 0px; margin-bottom: 0px; font-size: 40px"";>&ensp;</p>","-","viewing","0","13","3A,5C,10B","","","","","","","","","","","","","","","","","","","",""
"","","","","","html-slider-response","184","1170790","0.0-21.0-1.23","3952a5d5-ec13-4328-b604-6958480e84d8","3134","
                  <p style=""text-align: center;"">₪36
                                                <br>70%</p>
                  <p id=""wtp"" style=""text-align:center; margin-top: 0px; margin-bottom: 0px; font-size: 40px"";>מוכנים לשלם: <span id=""c_p_y""></span></p>","59","evaluation","11","13","3A,5C,10B","70","36","59","","","","","","","","","","","","","","","","",""
"","","","","","html-keyboard-response","185","1171546","0.0-21.0-2.23","3952a5d5-ec13-4328-b604-6958480e84d8","null","<p style=""text-align: center;"">+</p>","null","fixation","","","","","","","","","","","","","","","","","","","","","","",""
"","","","","","html-slider-response","186","1172562","0.0-21.0-0.24","3952a5d5-ec13-4328-b604-6958480e84d8","1000","
                  <p style=""text-align: center;"">₪43
                                                <br>75%</p>
                  <p id=""wtp"" style=""text-align:center; margin-top: 0px; margin-bottom: 0px; font-size: 40px"";>&ensp;</p>","-","viewing","0","18","11B,19B,24A,26A","","","","","","","","","","","","","","","","","","","",""
"","","","","","html-slider-response","187","1175598","0.0-21.0-1.24","3952a5d5-ec13-4328-b604-6958480e84d8","3034","
                  <p style=""text-align: center;"">₪43
                                                <br>75%</p>
                  <p id=""wtp"" style=""text-align:center; margin-top: 0px; margin-bottom: 0px; font-size: 40px"";>מוכנים לשלם: <span id=""c_p_y""></span></p>","65","evaluation","47","18","11B,19B,24A,26A","75","43","65","","","","","","","","","","","","","","","","",""
"","","","","","html-keyboard-response","188","1177077","0.0-21.0-2.24","3952a5d5-ec13-4328-b604-6958480e84d8","null","<p style=""text-align: center;"">+</p>","null","fixation","","","","","","","","","","","","","","","","","","","","","","",""
"","","","","","html-slider-response","189","1178087","0.0-21.0-0.25","3952a5d5-ec13-4328-b604-6958480e84d8","1000","
                  <p style=""text-align: center;"">₪39
                                                <br>60%</p>
                  <p id=""wtp"" style=""text-align:center; margin-top: 0px; margin-bottom: 0px; font-size: 40px"";>&ensp;</p>","-","viewing","0","15","9C,25B","","","","","","","","","","","","","","","","","","","",""
"","","","","","html-slider-response","190","1182093","0.0-21.0-1.25","3952a5d5-ec13-4328-b604-6958480e84d8","null","
                  <p style=""text-align: center;"">₪39
                                                <br>60%</p>
                  <p id=""wtp"" style=""text-align:center; margin-top: 0px; margin-bottom: 0px; font-size: 40px"";>מוכנים לשלם: <span id=""c_p_y""></span></p>","null","evaluation","13","15","9C,25B","60","39","40","","","","","","","","","","","","","","","","",""
"","","","","","html-keyboard-response","191","1183008","0.0-21.0-2.25","3952a5d5-ec13-4328-b604-6958480e84d8","null","<p style=""text-align: center;"">+</p>","null","fixation","","","","","","","","","","","","","","","","","","","","","","",""
"","","","","","html-slider-response","192","1184023","0.0-21.0-0.26","3952a5d5-ec13-4328-b604-6958480e84d8","1000","
                  <p style=""text-align: center;"">₪39
                                                <br>65%</p>
                  <p id=""wtp"" style=""text-align:center; margin-top: 0px; margin-bottom: 0px; font-size: 40px"";>&ensp;</p>","-","viewing","0","16","1A,15A,26C","","","","","","","","","","","","","","","","","","","",""
"","","","","","html-slider-response","193","1185855","0.0-21.0-1.26","3952a5d5-ec13-4328-b604-6958480e84d8","1831","
                  <p style=""text-align: center;"">₪39
                                                <br>65%</p>
                  <p id=""wtp"" style=""text-align:center; margin-top: 0px; margin-bottom: 0px; font-size: 40px"";>מוכנים לשלם: <span id=""c_p_y""></span></p>","26","evaluation","28","16","1A,15A,26C","65","39","26","","","","","","","","","","","","","","","","",""
"","","","","","html-keyboard-response","194","1186720","0.0-21.0-2.26","3952a5d5-ec13-4328-b604-6958480e84d8","null","<p style=""text-align: center;"">+</p>","null","fixation","","","","","","","","","","","","","","","","","","","","","","",""
"","","","","","html-slider-response","195","1187726","0.0-21.0-0.27","3952a5d5-ec13-4328-b604-6958480e84d8","1000","
                  <p style=""text-align: center;"">₪76
                                                <br>65%</p>
                  <p id=""wtp"" style=""text-align:center; margin-top: 0px; margin-bottom: 0px; font-size: 40px"";>&ensp;</p>","-","viewing","0","29","8C,19A,24B","","","","","","","","","","","","","","","","","","","",""
"","","","","","html-slider-response","196","1190134","0.0-21.0-1.27","3952a5d5-ec13-4328-b604-6958480e84d8","2406","
                  <p style=""text-align: center;"">₪76
                                                <br>65%</p>
                  <p id=""wtp"" style=""text-align:center; margin-top: 0px; margin-bottom: 0px; font-size: 40px"";>מוכנים לשלם: <span id=""c_p_y""></span></p>","27","evaluation","49","29","8C,19A,24B","65","76","27","","","","","","","","","","","","","","","","",""
"","","","","","html-keyboard-response","197","1191054","0.0-21.0-2.27","3952a5d5-ec13-4328-b604-6958480e84d8","null","<p style=""text-align: center;"">+</p>","null","fixation","","","","","","","","","","","","","","","","","","","","","","",""
"","","","","","html-slider-response","198","1192056","0.0-21.0-0.28","3952a5d5-ec13-4328-b604-6958480e84d8","1000","
                  <p style=""text-align: center;"">₪4
                                                <br>25%</p>
                  <p id=""wtp"" style=""text-align:center; margin-top: 0px; margin-bottom: 0px; font-size: 40px"";>&ensp;</p>","-","viewing","0","1","6C,29B,30C","","","","","","","","","","","","","","","","","","","",""
"","","","","","html-slider-response","199","1193406","0.0-21.0-1.28","3952a5d5-ec13-4328-b604-6958480e84d8","1348","
                  <p style=""text-align: center;"">₪4
                                                <br>25%</p>
                  <p id=""wtp"" style=""text-align:center; margin-top: 0px; margin-bottom: 0px; font-size: 40px"";>מוכנים לשלם: <span id=""c_p_y""></span></p>","4","evaluation","48","1","6C,29B,30C","25","4","5","","","","","","","","","","","","","","","","",""
"","","","","","html-keyboard-response","200","1194462","0.0-21.0-2.28","3952a5d5-ec13-4328-b604-6958480e84d8","null","<p style=""text-align: center;"">+</p>","null","fixation","","","","","","","","","","","","","","","","","","","","","","",""
"","","","","","html-slider-response","201","1195466","0.0-21.0-0.29","3952a5d5-ec13-4328-b604-6958480e84d8","1000","
                  <p style=""text-align: center;"">₪43
                                                <br>60%</p>
                  <p id=""wtp"" style=""text-align:center; margin-top: 0px; margin-bottom: 0px; font-size: 40px"";>&ensp;</p>","-","viewing","0","17","2A,7A,9A,15B","","","","","","","","","","","","","","","","","","","",""
"","","","","","html-slider-response","202","1197406","0.0-21.0-1.29","3952a5d5-ec13-4328-b604-6958480e84d8","1938","
                  <p style=""text-align: center;"">₪43
                                                <br>60%</p>
                  <p id=""wtp"" style=""text-align:center; margin-top: 0px; margin-bottom: 0px; font-size: 40px"";>מוכנים לשלם: <span id=""c_p_y""></span></p>","24","evaluation","31","17","2A,7A,9A,15B","60","43","24","","","","","","","","","","","","","","","","",""
"","","","","","html-keyboard-response","203","1198302","0.0-21.0-2.29","3952a5d5-ec13-4328-b604-6958480e84d8","null","<p style=""text-align: center;"">+</p>","null","fixation","","","","","","","","","","","","","","","","","","","","","","",""
"","","","","","html-slider-response","204","1199306","0.0-21.0-0.30","3952a5d5-ec13-4328-b604-6958480e84d8","1000","
                  <p style=""text-align: center;"">₪64
                                                <br>50%</p>
                  <p id=""wtp"" style=""text-align:center; margin-top: 0px; margin-bottom: 0px; font-size: 40px"";>&ensp;</p>","-","viewing","0","25","1B,3B,4A","","","","","","","","","","","","","","","","","","","",""
"","","","","","html-slider-response","205","1202094","0.0-21.0-1.30","3952a5d5-ec13-4328-b604-6958480e84d8","2786","
                  <p style=""text-align: center;"">₪64
                                                <br>50%</p>
                  <p id=""wtp"" style=""text-align:center; margin-top: 0px; margin-bottom: 0px; font-size: 40px"";>מוכנים לשלם: <span id=""c_p_y""></span></p>","39","evaluation","28","25","1B,3B,4A","50","64","39","","","","","","","","","","","","","","","","",""
"","","","","","html-keyboard-response","206","1203221","0.0-21.0-2.30","3952a5d5-ec13-4328-b604-6958480e84d8","null","<p style=""text-align: center;"">+</p>","null","fixation","","","","","","","","","","","","","","","","","","","","","","",""
"","","","","","html-keyboard-response","207","1204236","0.0-22.0","3952a5d5-ec13-4328-b604-6958480e84d8","null","<p style=""text-align: center;"">+</p>","null","fixation","","","","","","","","","","","","","","","","","","","","","","",""
"","","","","","html-keyboard-response","208","1206382","0.0-23.0","3952a5d5-ec13-4328-b604-6958480e84d8","2146","<p>הפסקה.
          <br>לחצו כדי להמשיך.</p>"," ","scan_wait","","","","","","","","","","","","","","","","","","","","","","",""
"","","","","","html-keyboard-response","209","1207396","0.0-24.0","3952a5d5-ec13-4328-b604-6958480e84d8","null","<p style=""text-align: center;"">+</p>","null","fixation","","","","","","","","","","","","","","","","","","","","","","",""
"","","","","","html-slider-response","210","1208411","0.0-25.0-0.0","3952a5d5-ec13-4328-b604-6958480e84d8","1000","
                  <p style=""text-align: center;"">₪11
                                                <br>45%</p>
                  <p id=""wtp"" style=""text-align:center; margin-top: 0px; margin-bottom: 0px; font-size: 40px"";>&ensp;</p>","-","viewing","0","6","14B,21C,25C","","","","","","","","","","","","","","","","","","","",""
"","","","","","html-slider-response","211","1210526","0.0-25.0-1.0","3952a5d5-ec13-4328-b604-6958480e84d8","2114","
                  <p style=""text-align: center;"">₪11
                                                <br>45%</p>
                  <p id=""wtp"" style=""text-align:center; margin-top: 0px; margin-bottom: 0px; font-size: 40px"";>מוכנים לשלם: <span id=""c_p_y""></span></p>","11","evaluation","78","6","14B,21C,25C","45","11","11","","","","","","","","","","","","","","","","",""
"","","","","","html-keyboard-response","212","1211534","0.0-25.0-2.0","3952a5d5-ec13-4328-b604-6958480e84d8","null","<p style=""text-align: center;"">+</p>","null","fixation","","","","","","","","","","","","","","","","","","","","","","",""
"","","","","","html-slider-response","213","1212537","0.0-25.0-0.1","3952a5d5-ec13-4328-b604-6958480e84d8","1000","
                  <p style=""text-align: center;"">₪43
                                                <br>75%</p>
                  <p id=""wtp"" style=""text-align:center; margin-top: 0px; margin-bottom: 0px; font-size: 40px"";>&ensp;</p>","-","viewing","0","18","11B,19B,24A,26A","","","","","","","","","","","","","","","","","","","",""
"","","","","","html-slider-response","214","1213974","0.0-25.0-1.1","3952a5d5-ec13-4328-b604-6958480e84d8","1436","
                  <p style=""text-align: center;"">₪43
                                                <br>75%</p>
                  <p id=""wtp"" style=""text-align:center; margin-top: 0px; margin-bottom: 0px; font-size: 40px"";>מוכנים לשלם: <span id=""c_p_y""></span></p>","38","evaluation","4","18","11B,19B,24A,26A","75","43","38","","","","","","","","","","","","","","","","",""
"","","","","","html-keyboard-response","215","1215253","0.0-25.0-2.1","3952a5d5-ec13-4328-b604-6958480e84d8","null","<p style=""text-align: center;"">+</p>","null","fixation","","","","","","","","","","","","","","","","","","","","","","",""
"","","","","","html-slider-response","216","1216268","0.0-25.0-0.2","3952a5d5-ec13-4328-b604-6958480e84d8","1000","
                  <p style=""text-align: center;"">₪79
                                                <br>65%</p>
                  <p id=""wtp"" style=""text-align:center; margin-top: 0px; margin-bottom: 0px; font-size: 40px"";>&ensp;</p>","-","viewing","0","31","8A","","","","","","","","","","","","","","","","","","","",""
"","","","","","html-slider-response","217","1218334","0.0-25.0-1.2","3952a5d5-ec13-4328-b604-6958480e84d8","2065","
                  <p style=""text-align: center;"">₪79
                                                <br>65%</p>
                  <p id=""wtp"" style=""text-align:center; margin-top: 0px; margin-bottom: 0px; font-size: 40px"";>מוכנים לשלם: <span id=""c_p_y""></span></p>","62","evaluation","43","31","8A","65","79","62","","","","","","","","","","","","","","","","",""
"","","","","","html-keyboard-response","218","1219672","0.0-25.0-2.2","3952a5d5-ec13-4328-b604-6958480e84d8","null","<p style=""text-align: center;"">+</p>","null","fixation","","","","","","","","","","","","","","","","","","","","","","",""
"","","","","","html-slider-response","219","1220674","0.0-25.0-0.3","3952a5d5-ec13-4328-b604-6958480e84d8","1000","
                  <p style=""text-align: center;"">₪76
                                                <br>65%</p>
                  <p id=""wtp"" style=""text-align:center; margin-top: 0px; margin-bottom: 0px; font-size: 40px"";>&ensp;</p>","-","viewing","0","29","8C,19A,24B","","","","","","","","","","","","","","","","","","","",""
"","","","","","html-slider-response","220","1223718","0.0-25.0-1.3","3952a5d5-ec13-4328-b604-6958480e84d8","3042","
                  <p style=""text-align: center;"">₪76
                                                <br>65%</p>
                  <p id=""wtp"" style=""text-align:center; margin-top: 0px; margin-bottom: 0px; font-size: 40px"";>מוכנים לשלם: <span id=""c_p_y""></span></p>","27","evaluation","78","29","8C,19A,24B","65","76","27","","","","","","","","","","","","","","","","",""
"","","","","","html-keyboard-response","221","1224387","0.0-25.0-2.3","3952a5d5-ec13-4328-b604-6958480e84d8","null","<p style=""text-align: center;"">+</p>","null","fixation","","","","","","","","","","","","","","","","","","","","","","",""
"","","","","","html-slider-response","222","1225398","0.0-25.0-0.4","3952a5d5-ec13-4328-b604-6958480e84d8","1000","
                  <p style=""text-align: center;"">₪58
                                                <br>40%</p>
                  <p id=""wtp"" style=""text-align:center; margin-top: 0px; margin-bottom: 0px; font-size: 40px"";>&ensp;</p>","-","viewing","0","20","10C,13A,19C,21B","","","","","","","","","","","","","","","","","","","",""
"","","","","","html-slider-response","223","1227430","0.0-25.0-1.4","3952a5d5-ec13-4328-b604-6958480e84d8","2031","
                  <p style=""text-align: center;"">₪58
                                                <br>40%</p>
                  <p id=""wtp"" style=""text-align:center; margin-top: 0px; margin-bottom: 0px; font-size: 40px"";>מוכנים לשלם: <span id=""c_p_y""></span></p>","21","evaluation","41","20","10C,13A,19C,21B","40","58","21","","","","","","","","","","","","","","","","",""
"","","","","","html-keyboard-response","224","1228467","0.0-25.0-2.4","3952a5d5-ec13-4328-b604-6958480e84d8","null","<p style=""text-align: center;"">+</p>","null","fixation","","","","","","","","","","","","","","","","","","","","","","",""
"","","","","","html-slider-response","225","1229470","0.0-25.0-0.5","3952a5d5-ec13-4328-b604-6958480e84d8","1000","
                  <p style=""text-align: center;"">₪11
                                                <br>25%</p>
                  <p id=""wtp"" style=""text-align:center; margin-top: 0px; margin-bottom: 0px; font-size: 40px"";>&ensp;</p>","-","viewing","0","5","12A,27B,28B,30B","","","","","","","","","","","","","","","","","","","",""
"","","","","","html-slider-response","226","1232638","0.0-25.0-1.5","3952a5d5-ec13-4328-b604-6958480e84d8","3167","
                  <p style=""text-align: center;"">₪11
                                                <br>25%</p>
                  <p id=""wtp"" style=""text-align:center; margin-top: 0px; margin-bottom: 0px; font-size: 40px"";>מוכנים לשלם: <span id=""c_p_y""></span></p>","20","evaluation","11","5","12A,27B,28B,30B","25","11","20","","","","","","","","","","","","","","","","",""
"","","","","","html-keyboard-response","227","1233453","0.0-25.0-2.5","3952a5d5-ec13-4328-b604-6958480e84d8","null","<p style=""text-align: center;"">+</p>","null","fixation","","","","","","","","","","","","","","","","","","","","","","",""
"","","","","","html-slider-response","228","1234459","0.0-25.0-0.6","3952a5d5-ec13-4328-b604-6958480e84d8","1000","
                  <p style=""text-align: center;"">₪79
                                                <br>40%</p>
                  <p id=""wtp"" style=""text-align:center; margin-top: 0px; margin-bottom: 0px; font-size: 40px"";>&ensp;</p>","-","viewing","0","30","9B","","","","","","","","","","","","","","","","","","","",""
"","","","","","html-slider-response","229","1237342","0.0-25.0-1.6","3952a5d5-ec13-4328-b604-6958480e84d8","2881","
                  <p style=""text-align: center;"">₪79
                                                <br>40%</p>
                  <p id=""wtp"" style=""text-align:center; margin-top: 0px; margin-bottom: 0px; font-size: 40px"";>מוכנים לשלם: <span id=""c_p_y""></span></p>","29","evaluation","38","30","9B","40","79","29","","","","","","","","","","","","","","","","",""
"","","","","","html-keyboard-response","230","1237955","0.0-25.0-2.6","3952a5d5-ec13-4328-b604-6958480e84d8","null","<p style=""text-align: center;"">+</p>","null","fixation","","","","","","","","","","","","","","","","","","","","","","",""
"","","","","","html-slider-response","231","1238970","0.0-25.0-0.7","3952a5d5-ec13-4328-b604-6958480e84d8","1000","
                  <p style=""text-align: center;"">₪16
                                                <br>20%</p>
                  <p id=""wtp"" style=""text-align:center; margin-top: 0px; margin-bottom: 0px; font-size: 40px"";>&ensp;</p>","-","viewing","0","8","14C,17A,20C,27A","","","","","","","","","","","","","","","","","","","",""
"","","","","","html-slider-response","232","1242062","0.0-25.0-1.7","3952a5d5-ec13-4328-b604-6958480e84d8","3090","
                  <p style=""text-align: center;"">₪16
                                                <br>20%</p>
                  <p id=""wtp"" style=""text-align:center; margin-top: 0px; margin-bottom: 0px; font-size: 40px"";>מוכנים לשלם: <span id=""c_p_y""></span></p>","7","evaluation","43","8","14C,17A,20C,27A","20","16","7","","","","","","","","","","","","","","","","",""
"","","","","","html-keyboard-response","233","1243306","0.0-25.0-2.7","3952a5d5-ec13-4328-b604-6958480e84d8","null","<p style=""text-align: center;"">+</p>","null","fixation","","","","","","","","","","","","","","","","","","","","","","",""
"","","","","","html-slider-response","234","1244324","0.0-25.0-0.8","3952a5d5-ec13-4328-b604-6958480e84d8","1000","
                  <p style=""text-align: center;"">₪71
                                                <br>75%</p>
                  <p id=""wtp"" style=""text-align:center; margin-top: 0px; margin-bottom: 0px; font-size: 40px"";>&ensp;</p>","-","viewing","0","28","8B","","","","","","","","","","","","","","","","","","","",""
"","","","","","html-slider-response","235","1246902","0.0-25.0-1.8","3952a5d5-ec13-4328-b604-6958480e84d8","2578","
                  <p style=""text-align: center;"">₪71
                                                <br>75%</p>
                  <p id=""wtp"" style=""text-align:center; margin-top: 0px; margin-bottom: 0px; font-size: 40px"";>מוכנים לשלם: <span id=""c_p_y""></span></p>","51","evaluation","73","28","8B","75","71","51","","","","","","","","","","","","","","","","",""
"","","","","","html-keyboard-response","236","1248358","0.0-25.0-2.8","3952a5d5-ec13-4328-b604-6958480e84d8","null","<p style=""text-align: center;"">+</p>","null","fixation","","","","","","","","","","","","","","","","","","","","","","",""
"","","","","","html-slider-response","237","1249367","0.0-25.0-0.9","3952a5d5-ec13-4328-b604-6958480e84d8","1000","
                  <p style=""text-align: center;"">₪71
                                                <br>45%</p>
                  <p id=""wtp"" style=""text-align:center; margin-top: 0px; margin-bottom: 0px; font-size: 40px"";>&ensp;</p>","-","viewing","0","26","2B,16A","","","","","","","","","","","","","","","","","","","",""
"","","","","","html-slider-response","238","1251414","0.0-25.0-1.9","3952a5d5-ec13-4328-b604-6958480e84d8","2046","
                  <p style=""text-align: center;"">₪71
                                                <br>45%</p>
                  <p id=""wtp"" style=""text-align:center; margin-top: 0px; margin-bottom: 0px; font-size: 40px"";>מוכנים לשלם: <span id=""c_p_y""></span></p>","38","evaluation","47","26","2B,16A","45","71","38","","","","","","","","","","","","","","","","",""
"","","","","","html-keyboard-response","239","1252863","0.0-25.0-2.9","3952a5d5-ec13-4328-b604-6958480e84d8","null","<p style=""text-align: center;"">+</p>","null","fixation","","","","","","","","","","","","","","","","","","","","","","",""
"","","","","","html-slider-response","240","1253877","0.0-25.0-0.10","3952a5d5-ec13-4328-b604-6958480e84d8","1000","
                  <p style=""text-align: center;"">₪43
                                                <br>60%</p>
                  <p id=""wtp"" style=""text-align:center; margin-top: 0px; margin-bottom: 0px; font-size: 40px"";>&ensp;</p>","-","viewing","0","17","2A,7A,9A,15B","","","","","","","","","","","","","","","","","","","",""
"","","","","","html-slider-response","241","1257118","0.0-25.0-1.10","3952a5d5-ec13-4328-b604-6958480e84d8","3240","
                  <p style=""text-align: center;"">₪43
                                                <br>60%</p>
                  <p id=""wtp"" style=""text-align:center; margin-top: 0px; margin-bottom: 0px; font-size: 40px"";>מוכנים לשלם: <span id=""c_p_y""></span></p>","32","evaluation","14","17","2A,7A,9A,15B","60","43","32","","","","","","","","","","","","","","","","",""
"","","","","","html-keyboard-response","242","1258303","0.0-25.0-2.10","3952a5d5-ec13-4328-b604-6958480e84d8","null","<p style=""text-align: center;"">+</p>","null","fixation","","","","","","","","","","","","","","","","","","","","","","",""
"","","","","","html-slider-response","243","1259317","0.0-25.0-0.11","3952a5d5-ec13-4328-b604-6958480e84d8","1000","
                  <p style=""text-align: center;"">₪39
                                                <br>65%</p>
                  <p id=""wtp"" style=""text-align:center; margin-top: 0px; margin-bottom: 0px; font-size: 40px"";>&ensp;</p>","-","viewing","0","16","1A,15A,26C","","","","","","","","","","","","","","","","","","","",""
"","","","","","html-slider-response","244","1261262","0.0-25.0-1.11","3952a5d5-ec13-4328-b604-6958480e84d8","1944","
                  <p style=""text-align: center;"">₪39
                                                <br>65%</p>
                  <p id=""wtp"" style=""text-align:center; margin-top: 0px; margin-bottom: 0px; font-size: 40px"";>מוכנים לשלם: <span id=""c_p_y""></span></p>","30","evaluation","37","16","1A,15A,26C","65","39","30","","","","","","","","","","","","","","","","",""
"","","","","","html-keyboard-response","245","1262164","0.0-25.0-2.11","3952a5d5-ec13-4328-b604-6958480e84d8","null","<p style=""text-align: center;"">+</p>","null","fixation","","","","","","","","","","","","","","","","","","","","","","",""
"","","","","","html-slider-response","246","1263171","0.0-25.0-0.12","3952a5d5-ec13-4328-b604-6958480e84d8","1000","
                  <p style=""text-align: center;"">₪61
                                                <br>55%</p>
                  <p id=""wtp"" style=""text-align:center; margin-top: 0px; margin-bottom: 0px; font-size: 40px"";>&ensp;</p>","-","viewing","0","23","7B,26B","","","","","","","","","","","","","","","","","","","",""
"","","","","","html-slider-response","247","1264894","0.0-25.0-1.12","3952a5d5-ec13-4328-b604-6958480e84d8","1723","
                  <p style=""text-align: center;"">₪61
                                                <br>55%</p>
                  <p id=""wtp"" style=""text-align:center; margin-top: 0px; margin-bottom: 0px; font-size: 40px"";>מוכנים לשלם: <span id=""c_p_y""></span></p>","30","evaluation","45","23","7B,26B","55","61","30","","","","","","","","","","","","","","","","",""
"","","","","","html-keyboard-response","248","1265828","0.0-25.0-2.12","3952a5d5-ec13-4328-b604-6958480e84d8","null","<p style=""text-align: center;"">+</p>","null","fixation","","","","","","","","","","","","","","","","","","","","","","",""
"","","","","","html-slider-response","249","1266840","0.0-25.0-0.13","3952a5d5-ec13-4328-b604-6958480e84d8","1000","
                  <p style=""text-align: center;"">₪4
