"success","timeout","failed_images","failed_audio","failed_video","trial_type","trial_index","time_elapsed","internal_node_id","subject_id","rt","stimulus","response","part","slider_start","ID","set_ID","prob","amount","last_location","actual_choice","actual_EV","binary_id","trinary_id","catch","direction","A_key","S_key","D_key","choice_prob","choice_amount","potential_prize_prob","potential_prize_amount","won_prize","total_prize","remaining_budget","accuracy"
"true","false","[]","[]","[]","preload","0","13","0.0-0.0","0534ba2f-a6e8-421a-b7b8-32def9eab26b","","","","","","","","","","","","","","","","","","","","","","","","","","",""
"","","","","","html-keyboard-response","1","16023","0.0-1.0","0534ba2f-a6e8-421a-b7b8-32def9eab26b","null","
          <h1>שלום וברוכים הבאים!</h1>
          <p>לפניכם ניסוי בקבלת החלטות עם שני חלקים.
          <br><br>לחצו על העכבר כדי להמשיך.</p>","0","example","","","","","","","","","","","","","","","","","","","","","","",""
"","","","","","html-keyboard-response","2","31671","0.0-2.0","0534ba2f-a6e8-421a-b7b8-32def9eab26b","null","
        <h1>חלק 1</h1>
        <p>בקרוב יוצגו בפניכם הגרלות.
        <br>עליכם לבחור את המחיר המירבי שתהיו מוכנים לשלם כדי להשתתף בהגרלה שתוצג.
        <br>יש לכם תקציב של ₪80 לכל הגרלה. 
        <br>נסו להעריך כל הגרלה בנפרד ולחשוב כמה היא שווה עבורכם, ₪80 זמינים לכל הגרלה בנפרד.
        <br><br>לחצו על העכבר כדי להמשיך.</p>","1","instructions","","","","","","","","","","","","","","","","","","","","","","",""
"","","","","","html-keyboard-response","3","39607","0.0-3.0","0534ba2f-a6e8-421a-b7b8-32def9eab26b","null","
        <p>בסוף הניסוי, המחשב יבחר את אחת ההגרלות ויקבע מחיר לכרטיס עבורה. 
        <br>במידה והמחיר שבחרתם נמוך מהמחיר שנבחר על ידי המחשב, לא תשתתפו בהגרלה ותשארו עם מלוא התקציב.
        <br>במידה והמחיר שבחרתם גבוה מהמחיר שנבחר על ידי המחשב, תשלמו את המחיר שנקבע ותשתתפו בהגרלה.
        <br><br>לחצו על העכבר כדי להמשיך.</p>","1","instructions","","","","","","","","","","","","","","","","","","","","","","",""
"","","","","","html-slider-response","4","42895","0.0-4.0","0534ba2f-a6e8-421a-b7b8-32def9eab26b","3179","
        <p style=""font-size: 42px;"">נתחיל עם דוגמא: 
        <br>ההגרלה מטה מציעה 65% סיכוי לזכות ב-₪40 
        <br>&emsp;&emsp;&emsp;&emsp;&emsp;&emsp;&emsp;&emsp;&ensp;35% סיכוי לזכות ב-₪0.
        <br><br>מה המחיר המירבי שתהיו מוכנים לשלם על כרטיס להגרלה זו בין 0 ל-₪80?
        <br>הזיזו את העכבר על פני המלבן ולחצו כדי לבצע בחירה.</p>
        
        <p style=""text-align: center;"">₪40<br>65%</p>

        <p id=""wtp"" style=""text-align:center; margin-top: 0px; margin-bottom: 0px; font-size: 40px"";>מוכנים לשלם: <span id=""c_p_y""></span></p>","33","example","49","","","","","","","","","","","","","","","","","","","","","",""
"","","","","","html-keyboard-response","5","57151","0.0-5.0","0534ba2f-a6e8-421a-b7b8-32def9eab26b","null","<p>יפה מאוד!
                <br> בחרתם שתהיו מוכנים לשלם ₪33 כדי להשתתף בהגרלה:
                <br><p style=""text-align: center;"">₪40<br>65%</p>
                <p>נשמע נכון?
                <br>נניח שהגרלה זו נבחרה בסוף הניסוי.
                <br>כעת המחשב יקבע מחיר עבורה באקראי.
                <br>לחצו על העכבר להמשך.</p>","1","example","","","","","","","","","","","","","","","","","","","","","","",""
"","","","","","html-keyboard-response","6","63368","0.0-6.0","0534ba2f-a6e8-421a-b7b8-32def9eab26b","null","<p>המחשב קבע מחיר: ₪55
                <br>ואתם בחרתם לשלם לכל היותר: ₪33
                <br><br>מכיוון שהמחיר שבחרתם נמוך מהמחיר שנקבע, לא תתשתתפו בהגרלה.
                <br>במקרה כזה, בסוף הניסוי תקבלו את כל התקציב ההתחלתי של ₪80.
                <br><br>לחצו על העכבר להמשך.</p>","1","example","","","","","","","","","","","","","","","","","","","","","","",""
"","","","","","html-slider-response","7","89408","0.0-7.0","0534ba2f-a6e8-421a-b7b8-32def9eab26b","25779","<p style=""font-size: 42px;"">הנה עוד דוגמא:
                <br>ההגרלה מטה מציעה 35% סיכוי לזכות ב-₪18 
                <br>&emsp;&emsp;&emsp;&emsp;&emsp;&emsp;&emsp;&emsp;&ensp;65% סיכוי לזכות ב-₪0.</p>
        
                <p style=""text-align: center;"">₪18<br>35%</p>
                <p id=""wtp"" style=""text-align:center; margin-top: 0px; margin-bottom: 0px; font-size: 40px"";>מוכנים לשלם: <span id=""c_p_y""></span></p>","19","example","28","","","","","","","","","","","","","","","","","","","","","",""
"","","","","","html-keyboard-response","8","91944","0.0-8.0","0534ba2f-a6e8-421a-b7b8-32def9eab26b","null","<p>הייתם מוכנים לשלם  ₪19 כדי להשתתף בהגרלה:
                <p style=""text-align: center;"">₪18<br>35%</p>
                <p>כעת נניח שהמחשב בחר את ההגרלה הזו בסוף הניסוי, וקבע עבורה מחיר.
                <br><br>לחצו על העכבר כדי להמשיך.</p>","1","instructions","","","","","","","","","","","","","","","","","","","","","","",""
"","","","","","html-keyboard-response","9","108560","0.0-9.0","0534ba2f-a6e8-421a-b7b8-32def9eab26b","null","<p>המחשב קבע מחיר להגרלה: ₪6<br>ואתם בחרתם לשלם לכל היותר: ₪19
                <br><br>כעת המחיר שנקבע נמוך מזה שבחרתם, אז תשלמו את המחיר שקבע המחשב (₪6) ותשתתפו בהגרלה.
                <br>במקרה כזה, תסיימו את הניסוי עם תקציב של ₪74 ועם סיכוי לזכות ב-₪18 נוספים מההגרלה.
                <br>כלומר, תוכלו לקבל ₪74 אם לא תזכו בהגרלה, או ₪92 אם תזכו בהגרלה.
                <br><br>לחצו על העכבר להמשך.</p>","1","example","","","","","","","","","","","","","","","","","","","","","","",""
"","","","","","html-keyboard-response","10","122328","0.0-10.0","0534ba2f-a6e8-421a-b7b8-32def9eab26b","null","<p>במהלך הניסוי, קודם תראו את ההגרלה ורק לאחר מכן תוכלו לבחור.
                <p>כמו כן, יהיו לכם מספר שניות מוגבל להגיב.
                <p>בואו ננסה זאת עם ההגרלה הקודמת.
                <br>לחצו על העכבר כדי להמשיך.</p>","1","instructions","","","","","","","","","","","","","","","","","","","","","","",""
"","","","","","html-slider-response","11","123592","0.0-11.0","0534ba2f-a6e8-421a-b7b8-32def9eab26b","1000","
                    <p style=""text-align: center;"">₪18<br>35%</p>
                    <p id=""wtp"" style=""text-align:center; margin-top: 0px; margin-bottom: 0px; font-size: 40px"";>&ensp;</p>","39","instructions","0","","","","","","","","","","","","","","","","","","","","","",""
"","","","","","html-slider-response","12","125504","0.0-12.0","0534ba2f-a6e8-421a-b7b8-32def9eab26b","1656","
                    <p style=""text-align: center;"">₪18<br>35%</p>
                    <p id=""wtp"" style=""text-align:center; margin-top: 0px; margin-bottom: 0px; font-size: 40px"";>מוכנים לשלם: <span id=""c_p_y""></span></p>","17","instructions","8","","","","","","","","","","","","","","","","","","","","","",""
"","","","","","html-keyboard-response","13","128464","0.0-13.0","0534ba2f-a6e8-421a-b7b8-32def9eab26b","null","<p>יפה. הפעם בחרתם לשלם לכל היותר ₪17.
                <br><br>לחצו על העכבר כדי להמשיך.</p>","1","instructions","","","","","","","","","","","","","","","","","","","","","","",""
"","","","","","html-keyboard-response","14","135280","0.0-15.0","0534ba2f-a6e8-421a-b7b8-32def9eab26b","null","<p>כעת נתחיל את הניסוי.
                <br><br>אתם תראו הגרלות ותתבקשו לבחור כמה תהיו מוכנים לשלם כדי להשתתף בהן.
                <br>יש לכם תקציב של ₪80 עבור כל הגרלה.
                <br>בסוף הניסוי הגרלה אחת תבחר באקראי ותשוחק.
                <br><br>לחצו על העכבר כדי להתחיל את הניסוי.</p>","1","instructions","","","","","","","","","","","","","","","","","","","","","","",""
"","","","","","html-keyboard-response","15","136542","0.0-16.0","0534ba2f-a6e8-421a-b7b8-32def9eab26b","null","<p style=""text-align: center;"">+</p>","null","fixation","","","","","","","","","","","","","","","","","","","","","","",""
"","","","","","html-slider-response","16","137553","0.0-17.0-0.0","0534ba2f-a6e8-421a-b7b8-32def9eab26b","1000","
                  <p style=""text-align: center;"">₪11
                                                <br>25%</p>
                  <p id=""wtp"" style=""text-align:center; margin-top: 0px; margin-bottom: 0px; font-size: 40px"";>&ensp;</p>","-","viewing","0","5","12A,27B,28B,30B","","","","","","","","","","","","","","","","","","","",""
"","","","","","html-slider-response","17","138872","0.0-17.0-1.0","0534ba2f-a6e8-421a-b7b8-32def9eab26b","1317","
                  <p style=""text-align: center;"">₪11
                                                <br>25%</p>
                  <p id=""wtp"" style=""text-align:center; margin-top: 0px; margin-bottom: 0px; font-size: 40px"";>מוכנים לשלם: <span id=""c_p_y""></span></p>","8","evaluation","55","5","12A,27B,28B,30B","25","11","8","","","","","","","","","","","","","","","","",""
"","","","","","html-keyboard-response","18","139844","0.0-17.0-2.0","0534ba2f-a6e8-421a-b7b8-32def9eab26b","null","<p style=""text-align: center;"">+</p>","null","fixation","","","","","","","","","","","","","","","","","","","","","","",""
"","","","","","html-slider-response","19","140846","0.0-17.0-0.1","0534ba2f-a6e8-421a-b7b8-32def9eab26b","1000","
                  <p style=""text-align: center;"">₪4
                                                <br>25%</p>
                  <p id=""wtp"" style=""text-align:center; margin-top: 0px; margin-bottom: 0px; font-size: 40px"";>&ensp;</p>","-","viewing","0","1","6C,29B,30C","","","","","","","","","","","","","","","","","","","",""
"","","","","","html-slider-response","20","142432","0.0-17.0-1.1","0534ba2f-a6e8-421a-b7b8-32def9eab26b","1584","
                  <p style=""text-align: center;"">₪4
                                                <br>25%</p>
                  <p id=""wtp"" style=""text-align:center; margin-top: 0px; margin-bottom: 0px; font-size: 40px"";>מוכנים לשלם: <span id=""c_p_y""></span></p>","16","evaluation","43","1","6C,29B,30C","25","4","17","","","","","","","","","","","","","","","","",""
"","","","","","html-keyboard-response","21","143434","0.0-17.0-2.1","0534ba2f-a6e8-421a-b7b8-32def9eab26b","null","<p style=""text-align: center;"">+</p>","null","fixation","","","","","","","","","","","","","","","","","","","","","","",""
"","","","","","html-slider-response","22","144436","0.0-17.0-0.2","0534ba2f-a6e8-421a-b7b8-32def9eab26b","1000","
                  <p style=""text-align: center;"">₪58
                                                <br>40%</p>
                  <p id=""wtp"" style=""text-align:center; margin-top: 0px; margin-bottom: 0px; font-size: 40px"";>&ensp;</p>","-","viewing","0","20","10C,13A,19C,21B","","","","","","","","","","","","","","","","","","","",""
"","","","","","html-slider-response","23","146119","0.0-17.0-1.2","0534ba2f-a6e8-421a-b7b8-32def9eab26b","1682","
                  <p style=""text-align: center;"">₪58
                                                <br>40%</p>
                  <p id=""wtp"" style=""text-align:center; margin-top: 0px; margin-bottom: 0px; font-size: 40px"";>מוכנים לשלם: <span id=""c_p_y""></span></p>","52","evaluation","58","20","10C,13A,19C,21B","40","58","52","","","","","","","","","","","","","","","","",""
"","","","","","html-keyboard-response","24","147527","0.0-17.0-2.2","0534ba2f-a6e8-421a-b7b8-32def9eab26b","null","<p style=""text-align: center;"">+</p>","null","fixation","","","","","","","","","","","","","","","","","","","","","","",""
"","","","","","html-slider-response","25","148529","0.0-17.0-0.3","0534ba2f-a6e8-421a-b7b8-32def9eab26b","1000","
                  <p style=""text-align: center;"">₪61
                                                <br>45%</p>
                  <p id=""wtp"" style=""text-align:center; margin-top: 0px; margin-bottom: 0px; font-size: 40px"";>&ensp;</p>","-","viewing","0","22","10A,11A","","","","","","","","","","","","","","","","","","","",""
"","","","","","html-slider-response","26","150656","0.0-17.0-1.3","0534ba2f-a6e8-421a-b7b8-32def9eab26b","2125","
                  <p style=""text-align: center;"">₪61
                                                <br>45%</p>
                  <p id=""wtp"" style=""text-align:center; margin-top: 0px; margin-bottom: 0px; font-size: 40px"";>מוכנים לשלם: <span id=""c_p_y""></span></p>","64","evaluation","34","22","10A,11A","45","61","64","","","","","","","","","","","","","","","","",""
"","","","","","html-keyboard-response","27","151325","0.0-17.0-2.3","0534ba2f-a6e8-421a-b7b8-32def9eab26b","null","<p style=""text-align: center;"">+</p>","null","fixation","","","","","","","","","","","","","","","","","","","","","","",""
"","","","","","html-slider-response","28","152334","0.0-17.0-0.4","0534ba2f-a6e8-421a-b7b8-32def9eab26b","1000","
                  <p style=""text-align: center;"">₪4
                                                <br>75%</p>
                  <p id=""wtp"" style=""text-align:center; margin-top: 0px; margin-bottom: 0px; font-size: 40px"";>&ensp;</p>","-","viewing","0","3","12B,20B,23B,27C,29C","","","","","","","","","","","","","","","","","","","",""
"","","","","","html-slider-response","29","155128","0.0-17.0-1.4","0534ba2f-a6e8-421a-b7b8-32def9eab26b","2793","
                  <p style=""text-align: center;"">₪4
                                                <br>75%</p>
                  <p id=""wtp"" style=""text-align:center; margin-top: 0px; margin-bottom: 0px; font-size: 40px"";>מוכנים לשלם: <span id=""c_p_y""></span></p>","3","evaluation","67","3","12B,20B,23B,27C,29C","75","4","4","","","","","","","","","","","","","","","","",""
"","","","","","html-keyboard-response","30","156368","0.0-17.0-2.4","0534ba2f-a6e8-421a-b7b8-32def9eab26b","null","<p style=""text-align: center;"">+</p>","null","fixation","","","","","","","","","","","","","","","","","","","","","","",""
"","","","","","html-slider-response","31","157376","0.0-17.0-0.5","0534ba2f-a6e8-421a-b7b8-32def9eab26b","1000","
                  <p style=""text-align: center;"">₪43
                                                <br>75%</p>
                  <p id=""wtp"" style=""text-align:center; margin-top: 0px; margin-bottom: 0px; font-size: 40px"";>&ensp;</p>","-","viewing","0","18","11B,19B,24A,26A","","","","","","","","","","","","","","","","","","","",""
"","","","","","html-slider-response","32","159136","0.0-17.0-1.5","0534ba2f-a6e8-421a-b7b8-32def9eab26b","1760","
                  <p style=""text-align: center;"">₪43
                                                <br>75%</p>
                  <p id=""wtp"" style=""text-align:center; margin-top: 0px; margin-bottom: 0px; font-size: 40px"";>מוכנים לשלם: <span id=""c_p_y""></span></p>","44","evaluation","13","18","11B,19B,24A,26A","75","43","44","","","","","","","","","","","","","","","","",""
"","","","","","html-keyboard-response","33","160115","0.0-17.0-2.5","0534ba2f-a6e8-421a-b7b8-32def9eab26b","null","<p style=""text-align: center;"">+</p>","null","fixation","","","","","","","","","","","","","","","","","","","","","","",""
"","","","","","html-slider-response","34","161125","0.0-17.0-0.6","0534ba2f-a6e8-421a-b7b8-32def9eab26b","1000","
                  <p style=""text-align: center;"">₪64
                                                <br>25%</p>
                  <p id=""wtp"" style=""text-align:center; margin-top: 0px; margin-bottom: 0px; font-size: 40px"";>&ensp;</p>","-","viewing","0","24","6A,21A","","","","","","","","","","","","","","","","","","","",""
"","","","","","html-slider-response","35","163448","0.0-17.0-1.6","0534ba2f-a6e8-421a-b7b8-32def9eab26b","2322","
                  <p style=""text-align: center;"">₪64
                                                <br>25%</p>
                  <p id=""wtp"" style=""text-align:center; margin-top: 0px; margin-bottom: 0px; font-size: 40px"";>מוכנים לשלם: <span id=""c_p_y""></span></p>","64","evaluation","36","24","6A,21A","25","64","64","","","","","","","","","","","","","","","","",""
"","","","","","html-keyboard-response","36","164113","0.0-17.0-2.6","0534ba2f-a6e8-421a-b7b8-32def9eab26b","null","<p style=""text-align: center;"">+</p>","null","fixation","","","","","","","","","","","","","","","","","","","","","","",""
"","","","","","html-slider-response","37","165116","0.0-17.0-0.7","0534ba2f-a6e8-421a-b7b8-32def9eab26b","1000","
                  <p style=""text-align: center;"">₪36
                                                <br>30%</p>
                  <p id=""wtp"" style=""text-align:center; margin-top: 0px; margin-bottom: 0px; font-size: 40px"";>&ensp;</p>","-","viewing","0","11","3C,20A,22A","","","","","","","","","","","","","","","","","","","",""
"","","","","","html-slider-response","38","167168","0.0-17.0-1.7","0534ba2f-a6e8-421a-b7b8-32def9eab26b","2050","
                  <p style=""text-align: center;"">₪36
                                                <br>30%</p>
                  <p id=""wtp"" style=""text-align:center; margin-top: 0px; margin-bottom: 0px; font-size: 40px"";>מוכנים לשלם: <span id=""c_p_y""></span></p>","35","evaluation","44","11","3C,20A,22A","30","36","35","","","","","","","","","","","","","","","","",""
"","","","","","html-keyboard-response","39","168346","0.0-17.0-2.7","0534ba2f-a6e8-421a-b7b8-32def9eab26b","null","<p style=""text-align: center;"">+</p>","null","fixation","","","","","","","","","","","","","","","","","","","","","","",""
"","","","","","html-slider-response","40","169362","0.0-17.0-0.8","0534ba2f-a6e8-421a-b7b8-32def9eab26b","1000","
                  <p style=""text-align: center;"">₪71
                                                <br>75%</p>
                  <p id=""wtp"" style=""text-align:center; margin-top: 0px; margin-bottom: 0px; font-size: 40px"";>&ensp;</p>","-","viewing","0","28","8B","","","","","","","","","","","","","","","","","","","",""
"","","","","","html-slider-response","41","172232","0.0-17.0-1.8","0534ba2f-a6e8-421a-b7b8-32def9eab26b","2868","
                  <p style=""text-align: center;"">₪71
                                                <br>75%</p>
                  <p id=""wtp"" style=""text-align:center; margin-top: 0px; margin-bottom: 0px; font-size: 40px"";>מוכנים לשלם: <span id=""c_p_y""></span></p>","72","evaluation","46","28","8B","75","71","72","","","","","","","","","","","","","","","","",""
"","","","","","html-keyboard-response","42","172905","0.0-17.0-2.8","0534ba2f-a6e8-421a-b7b8-32def9eab26b","null","<p style=""text-align: center;"">+</p>","null","fixation","","","","","","","","","","","","","","","","","","","","","","",""
"","","","","","html-slider-response","43","173911","0.0-17.0-0.9","0534ba2f-a6e8-421a-b7b8-32def9eab26b","1000","
                  <p style=""text-align: center;"">₪76
                                                <br>65%</p>
                  <p id=""wtp"" style=""text-align:center; margin-top: 0px; margin-bottom: 0px; font-size: 40px"";>&ensp;</p>","-","viewing","0","29","8C,19A,24B","","","","","","","","","","","","","","","","","","","",""
"","","","","","html-slider-response","44","177080","0.0-17.0-1.9","0534ba2f-a6e8-421a-b7b8-32def9eab26b","3168","
                  <p style=""text-align: center;"">₪76
                                                <br>65%</p>
                  <p id=""wtp"" style=""text-align:center; margin-top: 0px; margin-bottom: 0px; font-size: 40px"";>מוכנים לשלם: <span id=""c_p_y""></span></p>","75","evaluation","5","29","8C,19A,24B","65","76","75","","","","","","","","","","","","","","","","",""
"","","","","","html-keyboard-response","45","177603","0.0-17.0-2.9","0534ba2f-a6e8-421a-b7b8-32def9eab26b","null","<p style=""text-align: center;"">+</p>","null","fixation","","","","","","","","","","","","","","","","","","","","","","",""
"","","","","","html-slider-response","46","178606","0.0-17.0-0.10","0534ba2f-a6e8-421a-b7b8-32def9eab26b","1000","
                  <p style=""text-align: center;"">₪18
                                                <br>25%</p>
                  <p id=""wtp"" style=""text-align:center; margin-top: 0px; margin-bottom: 0px; font-size: 40px"";>&ensp;</p>","-","viewing","0","9","14A,23A","","","","","","","","","","","","","","","","","","","",""
"","","","","","html-slider-response","47","180792","0.0-17.0-1.10","0534ba2f-a6e8-421a-b7b8-32def9eab26b","2185","
                  <p style=""text-align: center;"">₪18
                                                <br>25%</p>
                  <p id=""wtp"" style=""text-align:center; margin-top: 0px; margin-bottom: 0px; font-size: 40px"";>מוכנים לשלם: <span id=""c_p_y""></span></p>","23","evaluation","56","9","14A,23A","25","18","23","","","","","","","","","","","","","","","","",""
"","","","","","html-keyboard-response","48","182129","0.0-17.0-2.10","0534ba2f-a6e8-421a-b7b8-32def9eab26b","null","<p style=""text-align: center;"">+</p>","null","fixation","","","","","","","","","","","","","","","","","","","","","","",""
"","","","","","html-slider-response","49","183136","0.0-17.0-0.11","0534ba2f-a6e8-421a-b7b8-32def9eab26b","1000","
                  <p style=""text-align: center;"">₪79
                                                <br>40%</p>
                  <p id=""wtp"" style=""text-align:center; margin-top: 0px; margin-bottom: 0px; font-size: 40px"";>&ensp;</p>","-","viewing","0","30","9B","","","","","","","","","","","","","","","","","","","",""
"","","","","","html-slider-response","50","185192","0.0-17.0-1.11","0534ba2f-a6e8-421a-b7b8-32def9eab26b","2054","
                  <p style=""text-align: center;"">₪79
                                                <br>40%</p>
                  <p id=""wtp"" style=""text-align:center; margin-top: 0px; margin-bottom: 0px; font-size: 40px"";>מוכנים לשלם: <span id=""c_p_y""></span></p>","80","evaluation","73","30","9B","40","79","80","","","","","","","","","","","","","","","","",""
"","","","","","html-keyboard-response","51","186668","0.0-17.0-2.11","0534ba2f-a6e8-421a-b7b8-32def9eab26b","null","<p style=""text-align: center;"">+</p>","null","fixation","","","","","","","","","","","","","","","","","","","","","","",""
"","","","","","html-slider-response","52","187670","0.0-17.0-0.12","0534ba2f-a6e8-421a-b7b8-32def9eab26b","1000","
                  <p style=""text-align: center;"">₪16
                                                <br>20%</p>
                  <p id=""wtp"" style=""text-align:center; margin-top: 0px; margin-bottom: 0px; font-size: 40px"";>&ensp;</p>","-","viewing","0","8","14C,17A,20C,27A","","","","","","","","","","","","","","","","","","","",""
"","","","","","html-slider-response","53","189672","0.0-17.0-1.12","0534ba2f-a6e8-421a-b7b8-32def9eab26b","2000","
                  <p style=""text-align: center;"">₪16
                                                <br>20%</p>
                  <p id=""wtp"" style=""text-align:center; margin-top: 0px; margin-bottom: 0px; font-size: 40px"";>מוכנים לשלם: <span id=""c_p_y""></span></p>","16","evaluation","36","8","14C,17A,20C,27A","20","16","16","","","","","","","","","","","","","","","","",""
"","","","","","html-keyboard-response","54","191173","0.0-17.0-2.12","0534ba2f-a6e8-421a-b7b8-32def9eab26b","null","<p style=""text-align: center;"">+</p>","null","fixation","","","","","","","","","","","","","","","","","","","","","","",""
"","","","","","html-slider-response","55","192176","0.0-17.0-0.13","0534ba2f-a6e8-421a-b7b8-32def9eab26b","1000","
                  <p style=""text-align: center;"">₪61
                                                <br>55%</p>
                  <p id=""wtp"" style=""text-align:center; margin-top: 0px; margin-bottom: 0px; font-size: 40px"";>&ensp;</p>","-","viewing","0","23","7B,26B","","","","","","","","","","","","","","","","","","","",""
"","","","","","html-slider-response","56","194120","0.0-17.0-1.13","0534ba2f-a6e8-421a-b7b8-32def9eab26b","1944","
                  <p style=""text-align: center;"">₪61
                                                <br>55%</p>
                  <p id=""wtp"" style=""text-align:center; margin-top: 0px; margin-bottom: 0px; font-size: 40px"";>מוכנים לשלם: <span id=""c_p_y""></span></p>","62","evaluation","70","23","7B,26B","55","61","62","","","","","","","","","","","","","","","","",""
"","","","","","html-keyboard-response","57","195058","0.0-17.0-2.13","0534ba2f-a6e8-421a-b7b8-32def9eab26b","null","<p style=""text-align: center;"">+</p>","null","fixation","","","","","","","","","","","","","","","","","","","","","","",""
"","","","","","html-slider-response","58","196063","0.0-17.0-0.14","0534ba2f-a6e8-421a-b7b8-32def9eab26b","1000","
                  <p style=""text-align: center;"">₪79
                                                <br>65%</p>
                  <p id=""wtp"" style=""text-align:center; margin-top: 0px; margin-bottom: 0px; font-size: 40px"";>&ensp;</p>","-","viewing","0","31","8A","","","","","","","","","","","","","","","","","","","",""
"","","","","","html-slider-response","59","198584","0.0-17.0-1.14","0534ba2f-a6e8-421a-b7b8-32def9eab26b","2520","
                  <p style=""text-align: center;"">₪79
                                                <br>65%</p>
                  <p id=""wtp"" style=""text-align:center; margin-top: 0px; margin-bottom: 0px; font-size: 40px"";>מוכנים לשלם: <span id=""c_p_y""></span></p>","80","evaluation","19","31","8A","65","79","80","","","","","","","","","","","","","","","","",""
"","","","","","html-keyboard-response","60","199271","0.0-17.0-2.14","0534ba2f-a6e8-421a-b7b8-32def9eab26b","null","<p style=""text-align: center;"">+</p>","null","fixation","","","","","","","","","","","","","","","","","","","","","","",""
"","","","","","html-slider-response","61","200273","0.0-17.0-0.15","0534ba2f-a6e8-421a-b7b8-32def9eab26b","1000","
                  <p style=""text-align: center;"">₪4
                                                <br>50%</p>
                  <p id=""wtp"" style=""text-align:center; margin-top: 0px; margin-bottom: 0px; font-size: 40px"";>&ensp;</p>","-","viewing","0","2","4C,17B","","","","","","","","","","","","","","","","","","","",""
"","","","","","html-slider-response","62","202168","0.0-17.0-1.15","0534ba2f-a6e8-421a-b7b8-32def9eab26b","1894","
                  <p style=""text-align: center;"">₪4
                                                <br>50%</p>
                  <p id=""wtp"" style=""text-align:center; margin-top: 0px; margin-bottom: 0px; font-size: 40px"";>מוכנים לשלם: <span id=""c_p_y""></span></p>","3","evaluation","57","2","4C,17B","50","4","3","","","","","","","","","","","","","","","","",""
"","","","","","html-keyboard-response","63","203603","0.0-17.0-2.15","0534ba2f-a6e8-421a-b7b8-32def9eab26b","null","<p style=""text-align: center;"">+</p>","null","fixation","","","","","","","","","","","","","","","","","","","","","","",""
"","","","","","html-slider-response","64","204608","0.0-17.0-0.16","0534ba2f-a6e8-421a-b7b8-32def9eab26b","1000","
                  <p style=""text-align: center;"">₪36
                                                <br>60%</p>
                  <p id=""wtp"" style=""text-align:center; margin-top: 0px; margin-bottom: 0px; font-size: 40px"";>&ensp;</p>","-","viewing","0","12","1C,7C,15C","","","","","","","","","","","","","","","","","","","",""
"","","","","","html-slider-response","65","207544","0.0-17.0-1.16","0534ba2f-a6e8-421a-b7b8-32def9eab26b","2934","
                  <p style=""text-align: center;"">₪36
                                                <br>60%</p>
                  <p id=""wtp"" style=""text-align:center; margin-top: 0px; margin-bottom: 0px; font-size: 40px"";>מוכנים לשלם: <span id=""c_p_y""></span></p>","39","evaluation","31","12","1C,7C,15C","60","36","39","","","","","","","","","","","","","","","","",""
"","","","","","html-keyboard-response","66","208858","0.0-17.0-2.16","0534ba2f-a6e8-421a-b7b8-32def9eab26b","null","<p style=""text-align: center;"">+</p>","null","fixation","","","","","","","","","","","","","","","","","","","","","","",""
"","","","","","html-slider-response","67","209876","0.0-17.0-0.17","0534ba2f-a6e8-421a-b7b8-32def9eab26b","1000","
                  <p style=""text-align: center;"">₪18
                                                <br>50%</p>
                  <p id=""wtp"" style=""text-align:center; margin-top: 0px; margin-bottom: 0px; font-size: 40px"";>&ensp;</p>","-","viewing","0","10","2C,16C,22B,28A","","","","","","","","","","","","","","","","","","","",""
"","","","","","html-slider-response","68","211200","0.0-17.0-1.17","0534ba2f-a6e8-421a-b7b8-32def9eab26b","1322","
                  <p style=""text-align: center;"">₪18
                                                <br>50%</p>
                  <p id=""wtp"" style=""text-align:center; margin-top: 0px; margin-bottom: 0px; font-size: 40px"";>מוכנים לשלם: <span id=""c_p_y""></span></p>","44","evaluation","52","10","2C,16C,22B,28A","50","18","44","","","","","","","","","","","","","","","","",""
"","","","","","html-keyboard-response","69","212657","0.0-17.0-2.17","0534ba2f-a6e8-421a-b7b8-32def9eab26b","null","<p style=""text-align: center;"">+</p>","null","fixation","","","","","","","","","","","","","","","","","","","","","","",""
"","","","","","html-slider-response","70","213660","0.0-17.0-0.18","0534ba2f-a6e8-421a-b7b8-32def9eab26b","1000","
                  <p style=""text-align: center;"">₪11
                                                <br>45%</p>
                  <p id=""wtp"" style=""text-align:center; margin-top: 0px; margin-bottom: 0px; font-size: 40px"";>&ensp;</p>","-","viewing","0","6","14B,21C,25C","","","","","","","","","","","","","","","","","","","",""
"","","","","","html-slider-response","71","215936","0.0-17.0-1.18","0534ba2f-a6e8-421a-b7b8-32def9eab26b","2275","
                  <p style=""text-align: center;"">₪11
                                                <br>45%</p>
                  <p id=""wtp"" style=""text-align:center; margin-top: 0px; margin-bottom: 0px; font-size: 40px"";>מוכנים לשלם: <span id=""c_p_y""></span></p>","16","evaluation","16","6","14B,21C,25C","45","11","16","","","","","","","","","","","","","","","","",""
"","","","","","html-keyboard-response","72","217170","0.0-17.0-2.18","0534ba2f-a6e8-421a-b7b8-32def9eab26b","null","<p style=""text-align: center;"">+</p>","null","fixation","","","","","","","","","","","","","","","","","","","","","","",""
"","","","","","html-slider-response","73","218173","0.0-17.0-0.19","0534ba2f-a6e8-421a-b7b8-32def9eab26b","1000","
                  <p style=""text-align: center;"">₪71
                                                <br>55%</p>
                  <p id=""wtp"" style=""text-align:center; margin-top: 0px; margin-bottom: 0px; font-size: 40px"";>&ensp;</p>","-","viewing","0","27","5B,18A","","","","","","","","","","","","","","","","","","","",""
"","","","","","html-slider-response","74","220176","0.0-17.0-1.19","0534ba2f-a6e8-421a-b7b8-32def9eab26b","2002","
                  <p style=""text-align: center;"">₪71
                                                <br>55%</p>
                  <p id=""wtp"" style=""text-align:center; margin-top: 0px; margin-bottom: 0px; font-size: 40px"";>מוכנים לשלם: <span id=""c_p_y""></span></p>","77","evaluation","73","27","5B,18A","55","71","77","","","","","","","","","","","","","","","","",""
"","","","","","html-keyboard-response","75","221401","0.0-17.0-2.19","0534ba2f-a6e8-421a-b7b8-32def9eab26b","null","<p style=""text-align: center;"">+</p>","null","fixation","","","","","","","","","","","","","","","","","","","","","","",""
"","","","","","html-slider-response","76","222404","0.0-17.0-0.20","0534ba2f-a6e8-421a-b7b8-32def9eab26b","1000","
                  <p style=""text-align: center;"">₪64
                                                <br>50%</p>
                  <p id=""wtp"" style=""text-align:center; margin-top: 0px; margin-bottom: 0px; font-size: 40px"";>&ensp;</p>","-","viewing","0","25","1B,3B,4A","","","","","","","","","","","","","","","","","","","",""
"","","","","","html-slider-response","77","224640","0.0-17.0-1.20","0534ba2f-a6e8-421a-b7b8-32def9eab26b","2234","
                  <p style=""text-align: center;"">₪64
                                                <br>50%</p>
                  <p id=""wtp"" style=""text-align:center; margin-top: 0px; margin-bottom: 0px; font-size: 40px"";>מוכנים לשלם: <span id=""c_p_y""></span></p>","62","evaluation","0","25","1B,3B,4A","50","64","62","","","","","","","","","","","","","","","","",""
"","","","","","html-keyboard-response","78","225346","0.0-17.0-2.20","0534ba2f-a6e8-421a-b7b8-32def9eab26b","null","<p style=""text-align: center;"">+</p>","null","fixation","","","","","","","","","","","","","","","","","","","","","","",""
"","","","","","html-slider-response","79","226353","0.0-17.0-0.21","0534ba2f-a6e8-421a-b7b8-32def9eab26b","1000","
                  <p style=""text-align: center;"">₪71
                                                <br>45%</p>
                  <p id=""wtp"" style=""text-align:center; margin-top: 0px; margin-bottom: 0px; font-size: 40px"";>&ensp;</p>","-","viewing","0","26","2B,16A","","","","","","","","","","","","","","","","","","","",""
"","","","","","html-slider-response","80","228688","0.0-17.0-1.21","0534ba2f-a6e8-421a-b7b8-32def9eab26b","2335","
                  <p style=""text-align: center;"">₪71
                                                <br>45%</p>
                  <p id=""wtp"" style=""text-align:center; margin-top: 0px; margin-bottom: 0px; font-size: 40px"";>מוכנים לשלם: <span id=""c_p_y""></span></p>","80","evaluation","54","26","2B,16A","45","71","79","","","","","","","","","","","","","","","","",""
"","","","","","html-keyboard-response","81","230172","0.0-17.0-2.21","0534ba2f-a6e8-421a-b7b8-32def9eab26b","null","<p style=""text-align: center;"">+</p>","null","fixation","","","","","","","","","","","","","","","","","","","","","","",""
"","","","","","html-slider-response","82","231173","0.0-17.0-0.22","0534ba2f-a6e8-421a-b7b8-32def9eab26b","1000","
                  <p style=""text-align: center;"">₪39
                                                <br>65%</p>
                  <p id=""wtp"" style=""text-align:center; margin-top: 0px; margin-bottom: 0px; font-size: 40px"";>&ensp;</p>","-","viewing","0","16","1A,15A,26C","","","","","","","","","","","","","","","","","","","",""
"","","","","","html-slider-response","83","233584","0.0-17.0-1.22","0534ba2f-a6e8-421a-b7b8-32def9eab26b","2410","
                  <p style=""text-align: center;"">₪39
                                                <br>65%</p>
                  <p id=""wtp"" style=""text-align:center; margin-top: 0px; margin-bottom: 0px; font-size: 40px"";>מוכנים לשלם: <span id=""c_p_y""></span></p>","55","evaluation","36","16","1A,15A,26C","65","39","54","","","","","","","","","","","","","","","","",""
"","","","","","html-keyboard-response","84","234767","0.0-17.0-2.22","0534ba2f-a6e8-421a-b7b8-32def9eab26b","null","<p style=""text-align: center;"">+</p>","null","fixation","","","","","","","","","","","","","","","","","","","","","","",""
"","","","","","html-slider-response","85","235783","0.0-17.0-0.23","0534ba2f-a6e8-421a-b7b8-32def9eab26b","1000","
                  <p style=""text-align: center;"">₪11
                                                <br>20%</p>
                  <p id=""wtp"" style=""text-align:center; margin-top: 0px; margin-bottom: 0px; font-size: 40px"";>&ensp;</p>","-","viewing","0","4","12C,17C,23C,28C","","","","","","","","","","","","","","","","","","","",""
"","","","","","html-slider-response","86","238296","0.0-17.0-1.23","0534ba2f-a6e8-421a-b7b8-32def9eab26b","2512","
                  <p style=""text-align: center;"">₪11
                                                <br>20%</p>
                  <p id=""wtp"" style=""text-align:center; margin-top: 0px; margin-bottom: 0px; font-size: 40px"";>מוכנים לשלם: <span id=""c_p_y""></span></p>","48","evaluation","55","4","12C,17C,23C,28C","20","11","48","","","","","","","","","","","","","","","","",""
"","","","","","html-keyboard-response","87","238920","0.0-17.0-2.23","0534ba2f-a6e8-421a-b7b8-32def9eab26b","null","<p style=""text-align: center;"">+</p>","null","fixation","","","","","","","","","","","","","","","","","","","","","","",""
"","","","","","html-slider-response","88","239923","0.0-17.0-0.24","0534ba2f-a6e8-421a-b7b8-32def9eab26b","1000","
                  <p style=""text-align: center;"">₪58
                                                <br>30%</p>
                  <p id=""wtp"" style=""text-align:center; margin-top: 0px; margin-bottom: 0px; font-size: 40px"";>&ensp;</p>","-","viewing","0","19","13C,30A","","","","","","","","","","","","","","","","","","","",""
"","","","","","html-slider-response","89","241872","0.0-17.0-1.24","0534ba2f-a6e8-421a-b7b8-32def9eab26b","1947","
                  <p style=""text-align: center;"">₪58
                                                <br>30%</p>
                  <p id=""wtp"" style=""text-align:center; margin-top: 0px; margin-bottom: 0px; font-size: 40px"";>מוכנים לשלם: <span id=""c_p_y""></span></p>","55","evaluation","65","19","13C,30A","30","58","55","","","","","","","","","","","","","","","","",""
"","","","","","html-keyboard-response","90","242399","0.0-17.0-2.24","0534ba2f-a6e8-421a-b7b8-32def9eab26b","null","<p style=""text-align: center;"">+</p>","null","fixation","","","","","","","","","","","","","","","","","","","","","","",""
"","","","","","html-slider-response","91","243404","0.0-17.0-0.25","0534ba2f-a6e8-421a-b7b8-32def9eab26b","1000","
                  <p style=""text-align: center;"">₪43
                                                <br>60%</p>
                  <p id=""wtp"" style=""text-align:center; margin-top: 0px; margin-bottom: 0px; font-size: 40px"";>&ensp;</p>","-","viewing","0","17","2A,7A,9A,15B","","","","","","","","","","","","","","","","","","","",""
"","","","","","html-slider-response","92","244751","0.0-17.0-1.25","0534ba2f-a6e8-421a-b7b8-32def9eab26b","1347","
                  <p style=""text-align: center;"">₪43
                                                <br>60%</p>
                  <p id=""wtp"" style=""text-align:center; margin-top: 0px; margin-bottom: 0px; font-size: 40px"";>מוכנים לשלם: <span id=""c_p_y""></span></p>","46","evaluation","60","17","2A,7A,9A,15B","60","43","46","","","","","","","","","","","","","","","","",""
"","","","","","html-keyboard-response","93","245755","0.0-17.0-2.25","0534ba2f-a6e8-421a-b7b8-32def9eab26b","null","<p style=""text-align: center;"">+</p>","null","fixation","","","","","","","","","","","","","","","","","","","","","","",""
"","","","","","html-slider-response","94","246769","0.0-17.0-0.26","0534ba2f-a6e8-421a-b7b8-32def9eab26b","1000","
                  <p style=""text-align: center;"">₪39
                                                <br>60%</p>
                  <p id=""wtp"" style=""text-align:center; margin-top: 0px; margin-bottom: 0px; font-size: 40px"";>&ensp;</p>","-","viewing","0","15","9C,25B","","","","","","","","","","","","","","","","","","","",""
"","","","","","html-slider-response","95","249688","0.0-17.0-1.26","0534ba2f-a6e8-421a-b7b8-32def9eab26b","2917","
                  <p style=""text-align: center;"">₪39
                                                <br>60%</p>
                  <p id=""wtp"" style=""text-align:center; margin-top: 0px; margin-bottom: 0px; font-size: 40px"";>מוכנים לשלם: <span id=""c_p_y""></span></p>","38","evaluation","48","15","9C,25B","60","39","38","","","","","","","","","","","","","","","","",""
"","","","","","html-keyboard-response","96","251132","0.0-17.0-2.26","0534ba2f-a6e8-421a-b7b8-32def9eab26b","null","<p style=""text-align: center;"">+</p>","null","fixation","","","","","","","","","","","","","","","","","","","","","","",""
"","","","","","html-slider-response","97","252142","0.0-17.0-0.27","0534ba2f-a6e8-421a-b7b8-32def9eab26b","1000","
                  <p style=""text-align: center;"">₪58
                                                <br>45%</p>
                  <p id=""wtp"" style=""text-align:center; margin-top: 0px; margin-bottom: 0px; font-size: 40px"";>&ensp;</p>","-","viewing","0","21","11C,18C,25A","","","","","","","","","","","","","","","","","","","",""
"","","","","","html-slider-response","98","253408","0.0-17.0-1.27","0534ba2f-a6e8-421a-b7b8-32def9eab26b","1264","
                  <p style=""text-align: center;"">₪58
                                                <br>45%</p>
                  <p id=""wtp"" style=""text-align:center; margin-top: 0px; margin-bottom: 0px; font-size: 40px"";>מוכנים לשלם: <span id=""c_p_y""></span></p>","61","evaluation","30","21","11C,18C,25A","45","58","61","","","","","","","","","","","","","","","","",""
"","","","","","html-keyboard-response","99","254633","0.0-17.0-2.27","0534ba2f-a6e8-421a-b7b8-32def9eab26b","null","<p style=""text-align: center;"">+</p>","null","fixation","","","","","","","","","","","","","","","","","","","","","","",""
"","","","","","html-slider-response","100","255642","0.0-17.0-0.28","0534ba2f-a6e8-421a-b7b8-32def9eab26b","1000","
                  <p style=""text-align: center;"">₪36
                                                <br>75%</p>
                  <p id=""wtp"" style=""text-align:center; margin-top: 0px; margin-bottom: 0px; font-size: 40px"";>&ensp;</p>","-","viewing","0","14","4B,5A,13B,16B","","","","","","","","","","","","","","","","","","","",""
"","","","","","html-slider-response","101","258008","0.0-17.0-1.28","0534ba2f-a6e8-421a-b7b8-32def9eab26b","2364","
                  <p style=""text-align: center;"">₪36
                                                <br>75%</p>
                  <p id=""wtp"" style=""text-align:center; margin-top: 0px; margin-bottom: 0px; font-size: 40px"";>מוכנים לשלם: <span id=""c_p_y""></span></p>","51","evaluation","44","14","4B,5A,13B,16B","75","36","51","","","","","","","","","","","","","","","","",""
"","","","","","html-keyboard-response","102","259323","0.0-17.0-2.28","0534ba2f-a6e8-421a-b7b8-32def9eab26b","null","<p style=""text-align: center;"">+</p>","null","fixation","","","","","","","","","","","","","","","","","","","","","","",""
"","","","","","html-slider-response","103","260326","0.0-17.0-0.29","0534ba2f-a6e8-421a-b7b8-32def9eab26b","1000","
                  <p style=""text-align: center;"">₪11
                                                <br>75%</p>
                  <p id=""wtp"" style=""text-align:center; margin-top: 0px; margin-bottom: 0px; font-size: 40px"";>&ensp;</p>","-","viewing","0","7","6B,18B,22C,24C,29A","","","","","","","","","","","","","","","","","","","",""
"","","","","","html-slider-response","104","262088","0.0-17.0-1.29","0534ba2f-a6e8-421a-b7b8-32def9eab26b","1761","
                  <p style=""text-align: center;"">₪11
                                                <br>75%</p>
                  <p id=""wtp"" style=""text-align:center; margin-top: 0px; margin-bottom: 0px; font-size: 40px"";>מוכנים לשלם: <span id=""c_p_y""></span></p>","23","evaluation","58","7","6B,18B,22C,24C,29A","75","11","23","","","","","","","","","","","","","","","","",""
"","","","","","html-keyboard-response","105","262652","0.0-17.0-2.29","0534ba2f-a6e8-421a-b7b8-32def9eab26b","null","<p style=""text-align: center;"">+</p>","null","fixation","","","","","","","","","","","","","","","","","","","","","","",""
"","","","","","html-slider-response","106","263659","0.0-17.0-0.30","0534ba2f-a6e8-421a-b7b8-32def9eab26b","1000","
                  <p style=""text-align: center;"">₪36
                                                <br>70%</p>
                  <p id=""wtp"" style=""text-align:center; margin-top: 0px; margin-bottom: 0px; font-size: 40px"";>&ensp;</p>","-","viewing","0","13","3A,5C,10B","","","","","","","","","","","","","","","","","","","",""
"","","","","","html-slider-response","107","265456","0.0-17.0-1.30","0534ba2f-a6e8-421a-b7b8-32def9eab26b","1796","
                  <p style=""text-align: center;"">₪36
                                                <br>70%</p>
                  <p id=""wtp"" style=""text-align:center; margin-top: 0px; margin-bottom: 0px; font-size: 40px"";>מוכנים לשלם: <span id=""c_p_y""></span></p>","40","evaluation","30","13","3A,5C,10B","70","36","40","","","","","","","","","","","","","","","","",""
"","","","","","html-keyboard-response","108","266413","0.0-17.0-2.30","0534ba2f-a6e8-421a-b7b8-32def9eab26b","null","<p style=""text-align: center;"">+</p>","null","fixation","","","","","","","","","","","","","","","","","","","","","","",""
"","","","","","html-keyboard-response","109","267421","0.0-18.0","0534ba2f-a6e8-421a-b7b8-32def9eab26b","null","<p style=""text-align: center;"">+</p>","null","fixation","","","","","","","","","","","","","","","","","","","","","","",""
"","","","","","html-keyboard-response","110","272368","0.0-19.0","0534ba2f-a6e8-421a-b7b8-32def9eab26b","null","<p>הפסקה.
          <br>לחצו כדי להמשיך.</p>","1","scan_wait","","","","","","","","","","","","","","","","","","","","","","",""
"","","","","","html-keyboard-response","111","273383","0.0-20.0","0534ba2f-a6e8-421a-b7b8-32def9eab26b","null","<p style=""text-align: center;"">+</p>","null","fixation","","","","","","","","","","","","","","","","","","","","","","",""
"","","","","","html-slider-response","112","274394","0.0-21.0-0.0","0534ba2f-a6e8-421a-b7b8-32def9eab26b","1000","
                  <p style=""text-align: center;"">₪61
                                                <br>45%</p>
                  <p id=""wtp"" style=""text-align:center; margin-top: 0px; margin-bottom: 0px; font-size: 40px"";>&ensp;</p>","-","viewing","0","22","10A,11A","","","","","","","","","","","","","","","","","","","",""
"","","","","","html-slider-response","113","275960","0.0-21.0-1.0","0534ba2f-a6e8-421a-b7b8-32def9eab26b","1564","
                  <p style=""text-align: center;"">₪61
                                                <br>45%</p>
                  <p id=""wtp"" style=""text-align:center; margin-top: 0px; margin-bottom: 0px; font-size: 40px"";>מוכנים לשלם: <span id=""c_p_y""></span></p>","74","evaluation","12","22","10A,11A","45","61","74","","","","","","","","","","","","","","","","",""
"","","","","","html-keyboard-response","114","276798","0.0-21.0-2.0","0534ba2f-a6e8-421a-b7b8-32def9eab26b","null","<p style=""text-align: center;"">+</p>","null","fixation","","","","","","","","","","","","","","","","","","","","","","",""
"","","","","","html-slider-response","115","277812","0.0-21.0-0.1","0534ba2f-a6e8-421a-b7b8-32def9eab26b","1000","
                  <p style=""text-align: center;"">₪4
                                                <br>75%</p>
                  <p id=""wtp"" style=""text-align:center; margin-top: 0px; margin-bottom: 0px; font-size: 40px"";>&ensp;</p>","-","viewing","0","3","12B,20B,23B,27C,29C","","","","","","","","","","","","","","","","","","","",""
"","","","","","html-slider-response","116","279576","0.0-21.0-1.1","0534ba2f-a6e8-421a-b7b8-32def9eab26b","1762","
                  <p style=""text-align: center;"">₪4
                                                <br>75%</p>
                  <p id=""wtp"" style=""text-align:center; margin-top: 0px; margin-bottom: 0px; font-size: 40px"";>מוכנים לשלם: <span id=""c_p_y""></span></p>","14","evaluation","33","3","12B,20B,23B,27C,29C","75","4","15","","","","","","","","","","","","","","","","",""
"","","","","","html-keyboard-response","117","280916","0.0-21.0-2.1","0534ba2f-a6e8-421a-b7b8-32def9eab26b","null","<p style=""text-align: center;"">+</p>","null","fixation","","","","","","","","","","","","","","","","","","","","","","",""
"","","","","","html-slider-response","118","281918","0.0-21.0-0.2","0534ba2f-a6e8-421a-b7b8-32def9eab26b","1000","
                  <p style=""text-align: center;"">₪16
                                                <br>20%</p>
                  <p id=""wtp"" style=""text-align:center; margin-top: 0px; margin-bottom: 0px; font-size: 40px"";>&ensp;</p>","-","viewing","0","8","14C,17A,20C,27A","","","","","","","","","","","","","","","","","","","",""
"","","","","","html-slider-response","119","283976","0.0-21.0-1.2","0534ba2f-a6e8-421a-b7b8-32def9eab26b","2056","
                  <p style=""text-align: center;"">₪16
                                                <br>20%</p>
                  <p id=""wtp"" style=""text-align:center; margin-top: 0px; margin-bottom: 0px; font-size: 40px"";>מוכנים לשלם: <span id=""c_p_y""></span></p>","29","evaluation","42","8","14C,17A,20C,27A","20","16","29","","","","","","","","","","","","","","","","",""
"","","","","","html-keyboard-response","120","285055","0.0-21.0-2.2","0534ba2f-a6e8-421a-b7b8-32def9eab26b","null","<p style=""text-align: center;"">+</p>","null","fixation","","","","","","","","","","","","","","","","","","","","","","",""
"","","","","","html-slider-response","121","286060","0.0-21.0-0.3","0534ba2f-a6e8-421a-b7b8-32def9eab26b","1000","
                  <p style=""text-align: center;"">₪58
                                                <br>40%</p>
                  <p id=""wtp"" style=""text-align:center; margin-top: 0px; margin-bottom: 0px; font-size: 40px"";>&ensp;</p>","-","viewing","0","20","10C,13A,19C,21B","","","","","","","","","","","","","","","","","","","",""
"","","","","","html-slider-response","122","288807","0.0-21.0-1.3","0534ba2f-a6e8-421a-b7b8-32def9eab26b","2746","
                  <p style=""text-align: center;"">₪58
                                                <br>40%</p>
                  <p id=""wtp"" style=""text-align:center; margin-top: 0px; margin-bottom: 0px; font-size: 40px"";>מוכנים לשלם: <span id=""c_p_y""></span></p>","69","evaluation","14","20","10C,13A,19C,21B","40","58","69","","","","","","","","","","","","","","","","",""
"","","","","","html-keyboard-response","123","289629","0.0-21.0-2.3","0534ba2f-a6e8-421a-b7b8-32def9eab26b","null","<p style=""text-align: center;"">+</p>","null","fixation","","","","","","","","","","","","","","","","","","","","","","",""
"","","","","","html-slider-response","124","290634","0.0-21.0-0.4","0534ba2f-a6e8-421a-b7b8-32def9eab26b","1000","
                  <p style=""text-align: center;"">₪36
                                                <br>30%</p>
                  <p id=""wtp"" style=""text-align:center; margin-top: 0px; margin-bottom: 0px; font-size: 40px"";>&ensp;</p>","-","viewing","0","11","3C,20A,22A","","","","","","","","","","","","","","","","","","","",""
"","","","","","html-slider-response","125","292072","0.0-21.0-1.4","0534ba2f-a6e8-421a-b7b8-32def9eab26b","1436","
                  <p style=""text-align: center;"">₪36
                                                <br>30%</p>
                  <p id=""wtp"" style=""text-align:center; margin-top: 0px; margin-bottom: 0px; font-size: 40px"";>מוכנים לשלם: <span id=""c_p_y""></span></p>","43","evaluation","41","11","3C,20A,22A","30","36","43","","","","","","","","","","","","","","","","",""
"","","","","","html-keyboard-response","126","293575","0.0-21.0-2.4","0534ba2f-a6e8-421a-b7b8-32def9eab26b","null","<p style=""text-align: center;"">+</p>","null","fixation","","","","","","","","","","","","","","","","","","","","","","",""
"","","","","","html-slider-response","127","294582","0.0-21.0-0.5","0534ba2f-a6e8-421a-b7b8-32def9eab26b","1000","
                  <p style=""text-align: center;"">₪64
                                                <br>50%</p>
                  <p id=""wtp"" style=""text-align:center; margin-top: 0px; margin-bottom: 0px; font-size: 40px"";>&ensp;</p>","-","viewing","0","25","1B,3B,4A","","","","","","","","","","","","","","","","","","","",""
"","","","","","html-slider-response","128","296544","0.0-21.0-1.5","0534ba2f-a6e8-421a-b7b8-32def9eab26b","1961","
                  <p style=""text-align: center;"">₪64
                                                <br>50%</p>
                  <p id=""wtp"" style=""text-align:center; margin-top: 0px; margin-bottom: 0px; font-size: 40px"";>מוכנים לשלם: <span id=""c_p_y""></span></p>","68","evaluation","2","25","1B,3B,4A","50","64","67","","","","","","","","","","","","","","","","",""
"","","","","","html-keyboard-response","129","297898","0.0-21.0-2.5","0534ba2f-a6e8-421a-b7b8-32def9eab26b","null","<p style=""text-align: center;"">+</p>","null","fixation","","","","","","","","","","","","","","","","","","","","","","",""
"","","","","","html-slider-response","130","298903","0.0-21.0-0.6","0534ba2f-a6e8-421a-b7b8-32def9eab26b","1000","
                  <p style=""text-align: center;"">₪36
                                                <br>75%</p>
                  <p id=""wtp"" style=""text-align:center; margin-top: 0px; margin-bottom: 0px; font-size: 40px"";>&ensp;</p>","-","viewing","0","14","4B,5A,13B,16B","","","","","","","","","","","","","","","","","","","",""
"","","","","","html-slider-response","131","301239","0.0-21.0-1.6","0534ba2f-a6e8-421a-b7b8-32def9eab26b","2335","
                  <p style=""text-align: center;"">₪36
                                                <br>75%</p>
                  <p id=""wtp"" style=""text-align:center; margin-top: 0px; margin-bottom: 0px; font-size: 40px"";>מוכנים לשלם: <span id=""c_p_y""></span></p>","66","evaluation","1","14","4B,5A,13B,16B","75","36","66","","","","","","","","","","","","","","","","",""
"","","","","","html-keyboard-response","132","302166","0.0-21.0-2.6","0534ba2f-a6e8-421a-b7b8-32def9eab26b","null","<p style=""text-align: center;"">+</p>","null","fixation","","","","","","","","","","","","","","","","","","","","","","",""
"","","","","","html-slider-response","133","303172","0.0-21.0-0.7","0534ba2f-a6e8-421a-b7b8-32def9eab26b","1000","
                  <p style=""text-align: center;"">₪39
                                                <br>65%</p>
                  <p id=""wtp"" style=""text-align:center; margin-top: 0px; margin-bottom: 0px; font-size: 40px"";>&ensp;</p>","-","viewing","0","16","1A,15A,26C","","","","","","","","","","","","","","","","","","","",""
"","","","","","html-slider-response","134","304704","0.0-21.0-1.7","0534ba2f-a6e8-421a-b7b8-32def9eab26b","1531","
                  <p style=""text-align: center;"">₪39
                                                <br>65%</p>
                  <p id=""wtp"" style=""text-align:center; margin-top: 0px; margin-bottom: 0px; font-size: 40px"";>מוכנים לשלם: <span id=""c_p_y""></span></p>","46","evaluation","52","16","1A,15A,26C","65","39","46","","","","","","","","","","","","","","","","",""
"","","","","","html-keyboard-response","135","305548","0.0-21.0-2.7","0534ba2f-a6e8-421a-b7b8-32def9eab26b","null","<p style=""text-align: center;"">+</p>","null","fixation","","","","","","","","","","","","","","","","","","","","","","",""
"","","","","","html-slider-response","136","306550","0.0-21.0-0.8","0534ba2f-a6e8-421a-b7b8-32def9eab26b","1000","
                  <p style=""text-align: center;"">₪36
                                                <br>60%</p>
                  <p id=""wtp"" style=""text-align:center; margin-top: 0px; margin-bottom: 0px; font-size: 40px"";>&ensp;</p>","-","viewing","0","12","1C,7C,15C","","","","","","","","","","","","","","","","","","","",""
"","","","","","html-slider-response","137","308120","0.0-21.0-1.8","0534ba2f-a6e8-421a-b7b8-32def9eab26b","1569","
                  <p style=""text-align: center;"">₪36
                                                <br>60%</p>
                  <p id=""wtp"" style=""text-align:center; margin-top: 0px; margin-bottom: 0px; font-size: 40px"";>מוכנים לשלם: <span id=""c_p_y""></span></p>","44","evaluation","67","12","1C,7C,15C","60","36","44","","","","","","","","","","","","","","","","",""
"","","","","","html-keyboard-response","138","308906","0.0-21.0-2.8","0534ba2f-a6e8-421a-b7b8-32def9eab26b","null","<p style=""text-align: center;"">+</p>","null","fixation","","","","","","","","","","","","","","","","","","","","","","",""
"","","","","","html-slider-response","139","309914","0.0-21.0-0.9","0534ba2f-a6e8-421a-b7b8-32def9eab26b","1000","
                  <p style=""text-align: center;"">₪18
                                                <br>50%</p>
                  <p id=""wtp"" style=""text-align:center; margin-top: 0px; margin-bottom: 0px; font-size: 40px"";>&ensp;</p>","-","viewing","0","10","2C,16C,22B,28A","","","","","","","","","","","","","","","","","","","",""
"","","","","","html-slider-response","140","312400","0.0-21.0-1.9","0534ba2f-a6e8-421a-b7b8-32def9eab26b","2485","
                  <p style=""text-align: center;"">₪18
                                                <br>50%</p>
                  <p id=""wtp"" style=""text-align:center; margin-top: 0px; margin-bottom: 0px; font-size: 40px"";>מוכנים לשלם: <span id=""c_p_y""></span></p>","35","evaluation","52","10","2C,16C,22B,28A","50","18","35","","","","","","","","","","","","","","","","",""
"","","","","","html-keyboard-response","141","313309","0.0-21.0-2.9","0534ba2f-a6e8-421a-b7b8-32def9eab26b","null","<p style=""text-align: center;"">+</p>","null","fixation","","","","","","","","","","","","","","","","","","","","","","",""
"","","","","","html-slider-response","142","314313","0.0-21.0-0.10","0534ba2f-a6e8-421a-b7b8-32def9eab26b","1000","
                  <p style=""text-align: center;"">₪39
                                                <br>60%</p>
                  <p id=""wtp"" style=""text-align:center; margin-top: 0px; margin-bottom: 0px; font-size: 40px"";>&ensp;</p>","-","viewing","0","15","9C,25B","","","","","","","","","","","","","","","","","","","",""
"","","","","","html-slider-response","143","316448","0.0-21.0-1.10","0534ba2f-a6e8-421a-b7b8-32def9eab26b","2134","
                  <p style=""text-align: center;"">₪39
                                                <br>60%</p>
                  <p id=""wtp"" style=""text-align:center; margin-top: 0px; margin-bottom: 0px; font-size: 40px"";>מוכנים לשלם: <span id=""c_p_y""></span></p>","54","evaluation","45","15","9C,25B","60","39","53","","","","","","","","","","","","","","","","",""
"","","","","","html-keyboard-response","144","317568","0.0-21.0-2.10","0534ba2f-a6e8-421a-b7b8-32def9eab26b","null","<p style=""text-align: center;"">+</p>","null","fixation","","","","","","","","","","","","","","","","","","","","","","",""
"","","","","","html-slider-response","145","318579","0.0-21.0-0.11","0534ba2f-a6e8-421a-b7b8-32def9eab26b","1000","
                  <p style=""text-align: center;"">₪61
                                                <br>55%</p>
                  <p id=""wtp"" style=""text-align:center; margin-top: 0px; margin-bottom: 0px; font-size: 40px"";>&ensp;</p>","-","viewing","0","23","7B,26B","","","","","","","","","","","","","","","","","","","",""
"","","","","","html-slider-response","146","321424","0.0-21.0-1.11","0534ba2f-a6e8-421a-b7b8-32def9eab26b","2843","
                  <p style=""text-align: center;"">₪61
                                                <br>55%</p>
                  <p id=""wtp"" style=""text-align:center; margin-top: 0px; margin-bottom: 0px; font-size: 40px"";>מוכנים לשלם: <span id=""c_p_y""></span></p>","58","evaluation","7","23","7B,26B","55","61","58","","","","","","","","","","","","","","","","",""
"","","","","","html-keyboard-response","147","322568","0.0-21.0-2.11","0534ba2f-a6e8-421a-b7b8-32def9eab26b","null","<p style=""text-align: center;"">+</p>","null","fixation","","","","","","","","","","","","","","","","","","","","","","",""
"","","","","","html-slider-response","148","323574","0.0-21.0-0.12","0534ba2f-a6e8-421a-b7b8-32def9eab26b","1000","
                  <p style=""text-align: center;"">₪36
                                                <br>70%</p>
                  <p id=""wtp"" style=""text-align:center; margin-top: 0px; margin-bottom: 0px; font-size: 40px"";>&ensp;</p>","-","viewing","0","13","3A,5C,10B","","","","","","","","","","","","","","","","","","","",""
"","","","","","html-slider-response","149","325096","0.0-21.0-1.12","0534ba2f-a6e8-421a-b7b8-32def9eab26b","1521","
                  <p style=""text-align: center;"">₪36
                                                <br>70%</p>
                  <p id=""wtp"" style=""text-align:center; margin-top: 0px; margin-bottom: 0px; font-size: 40px"";>מוכנים לשלם: <span id=""c_p_y""></span></p>","27","evaluation","56","13","3A,5C,10B","70","36","27","","","","","","","","","","","","","","","","",""
"","","","","","html-keyboard-response","150","326330","0.0-21.0-2.12","0534ba2f-a6e8-421a-b7b8-32def9eab26b","null","<p style=""text-align: center;"">+</p>","null","fixation","","","","","","","","","","","","","","","","","","","","","","",""
"","","","","","html-slider-response","151","327333","0.0-21.0-0.13","0534ba2f-a6e8-421a-b7b8-32def9eab26b","1000","
                  <p style=""text-align: center;"">₪11
                                                <br>75%</p>
                  <p id=""wtp"" style=""text-align:center; margin-top: 0px; margin-bottom: 0px; font-size: 40px"";>&ensp;</p>","-","viewing","0","7","6B,18B,22C,24C,29A","","","","","","","","","","","","","","","","","","","",""
"","","","","","html-slider-response","152","329240","0.0-21.0-1.13","0534ba2f-a6e8-421a-b7b8-32def9eab26b","1906","
                  <p style=""text-align: center;"">₪11
                                                <br>75%</p>
                  <p id=""wtp"" style=""text-align:center; margin-top: 0px; margin-bottom: 0px; font-size: 40px"";>מוכנים לשלם: <span id=""c_p_y""></span></p>","8","evaluation","76","7","6B,18B,22C,24C,29A","75","11","8","","","","","","","","","","","","","","","","",""
"","","","","","html-keyboard-response","153","330701","0.0-21.0-2.13","0534ba2f-a6e8-421a-b7b8-32def9eab26b","null","<p style=""text-align: center;"">+</p>","null","fixation","","","","","","","","","","","","","","","","","","","","","","",""
"","","","","","html-slider-response","154","331711","0.0-21.0-0.14","0534ba2f-a6e8-421a-b7b8-32def9eab26b","1000","
                  <p style=""text-align: center;"">₪79
                                                <br>65%</p>
                  <p id=""wtp"" style=""text-align:center; margin-top: 0px; margin-bottom: 0px; font-size: 40px"";>&ensp;</p>","-","viewing","0","31","8A","","","","","","","","","","","","","","","","","","","",""
"","","","","","html-slider-response","155","333936","0.0-21.0-1.14","0534ba2f-a6e8-421a-b7b8-32def9eab26b","2224","
                  <p style=""text-align: center;"">₪79
                                                <br>65%</p>
                  <p id=""wtp"" style=""text-align:center; margin-top: 0px; margin-bottom: 0px; font-size: 40px"";>מוכנים לשלם: <span id=""c_p_y""></span></p>","70","evaluation","63","31","8A","65","79","70","","","","","","","","","","","","","","","","",""
"","","","","","html-keyboard-response","156","335295","0.0-21.0-2.14","0534ba2f-a6e8-421a-b7b8-32def9eab26b","null","<p style=""text-align: center;"">+</p>","null","fixation","","","","","","","","","","","","","","","","","","","","","","",""
"","","","","","html-slider-response","157","336309","0.0-21.0-0.15","0534ba2f-a6e8-421a-b7b8-32def9eab26b","1000","
                  <p style=""text-align: center;"">₪71
                                                <br>55%</p>
                  <p id=""wtp"" style=""text-align:center; margin-top: 0px; margin-bottom: 0px; font-size: 40px"";>&ensp;</p>","-","viewing","0","27","5B,18A","","","","","","","","","","","","","","","","","","","",""
"","","","","","html-slider-response","158","338616","0.0-21.0-1.15","0534ba2f-a6e8-421a-b7b8-32def9eab26b","2306","
                  <p style=""text-align: center;"">₪71
                                                <br>55%</p>
                  <p id=""wtp"" style=""text-align:center; margin-top: 0px; margin-bottom: 0px; font-size: 40px"";>מוכנים לשלם: <span id=""c_p_y""></span></p>","80","evaluation","79","27","5B,18A","55","71","80","","","","","","","","","","","","","","","","",""
"","","","","","html-keyboard-response","159","340067","0.0-21.0-2.15","0534ba2f-a6e8-421a-b7b8-32def9eab26b","null","<p style=""text-align: center;"">+</p>","null","fixation","","","","","","","","","","","","","","","","","","","","","","",""
"","","","","","html-slider-response","160","341081","0.0-21.0-0.16","0534ba2f-a6e8-421a-b7b8-32def9eab26b","1000","
                  <p style=""text-align: center;"">₪43
                                                <br>75%</p>
                  <p id=""wtp"" style=""text-align:center; margin-top: 0px; margin-bottom: 0px; font-size: 40px"";>&ensp;</p>","-","viewing","0","18","11B,19B,24A,26A","","","","","","","","","","","","","","","","","","","",""
"","","","","","html-slider-response","161","343072","0.0-21.0-1.16","0534ba2f-a6e8-421a-b7b8-32def9eab26b","1989","
                  <p style=""text-align: center;"">₪43
                                                <br>75%</p>
                  <p id=""wtp"" style=""text-align:center; margin-top: 0px; margin-bottom: 0px; font-size: 40px"";>מוכנים לשלם: <span id=""c_p_y""></span></p>","52","evaluation","61","18","11B,19B,24A,26A","75","43","52","","","","","","","","","","","","","","","","",""
"","","","","","html-keyboard-response","162","344553","0.0-21.0-2.16","0534ba2f-a6e8-421a-b7b8-32def9eab26b","null","<p style=""text-align: center;"">+</p>","null","fixation","","","","","","","","","","","","","","","","","","","","","","",""
"","","","","","html-slider-response","163","345555","0.0-21.0-0.17","0534ba2f-a6e8-421a-b7b8-32def9eab26b","1000","
                  <p style=""text-align: center;"">₪71
                                                <br>75%</p>
                  <p id=""wtp"" style=""text-align:center; margin-top: 0px; margin-bottom: 0px; font-size: 40px"";>&ensp;</p>","-","viewing","0","28","8B","","","","","","","","","","","","","","","","","","","",""
"","","","","","html-slider-response","164","346832","0.0-21.0-1.17","0534ba2f-a6e8-421a-b7b8-32def9eab26b","1275","
                  <p style=""text-align: center;"">₪71
                                                <br>75%</p>
                  <p id=""wtp"" style=""text-align:center; margin-top: 0px; margin-bottom: 0px; font-size: 40px"";>מוכנים לשלם: <span id=""c_p_y""></span></p>","26","evaluation","1","28","8B","75","71","26","","","","","","","","","","","","","","","","",""
"","","","","","html-keyboard-response","165","347687","0.0-21.0-2.17","0534ba2f-a6e8-421a-b7b8-32def9eab26b","null","<p style=""text-align: center;"">+</p>","null","fixation","","","","","","","","","","","","","","","","","","","","","","",""
"","","","","","html-slider-response","166","348699","0.0-21.0-0.18","0534ba2f-a6e8-421a-b7b8-32def9eab26b","1000","
                  <p style=""text-align: center;"">₪71
                                                <br>45%</p>
                  <p id=""wtp"" style=""text-align:center; margin-top: 0px; margin-bottom: 0px; font-size: 40px"";>&ensp;</p>","-","viewing","0","26","2B,16A","","","","","","","","","","","","","","","","","","","",""
"","","","","","html-slider-response","167","350456","0.0-21.0-1.18","0534ba2f-a6e8-421a-b7b8-32def9eab26b","1756","
                  <p style=""text-align: center;"">₪71
                                                <br>45%</p>
                  <p id=""wtp"" style=""text-align:center; margin-top: 0px; margin-bottom: 0px; font-size: 40px"";>מוכנים לשלם: <span id=""c_p_y""></span></p>","70","evaluation","12","26","2B,16A","45","71","69","","","","","","","","","","","","","","","","",""
"","","","","","html-keyboard-response","168","351764","0.0-21.0-2.18","0534ba2f-a6e8-421a-b7b8-32def9eab26b","null","<p style=""text-align: center;"">+</p>","null","fixation","","","","","","","","","","","","","","","","","","","","","","",""
"","","","","","html-slider-response","169","352767","0.0-21.0-0.19","0534ba2f-a6e8-421a-b7b8-32def9eab26b","1000","
                  <p style=""text-align: center;"">₪11
                                                <br>20%</p>
                  <p id=""wtp"" style=""text-align:center; margin-top: 0px; margin-bottom: 0px; font-size: 40px"";>&ensp;</p>","-","viewing","0","4","12C,17C,23C,28C","","","","","","","","","","","","","","","","","","","",""
"","","","","","html-slider-response","170","353408","0.0-21.0-1.19","0534ba2f-a6e8-421a-b7b8-32def9eab26b","640","
                  <p style=""text-align: center;"">₪11
                                                <br>20%</p>
                  <p id=""wtp"" style=""text-align:center; margin-top: 0px; margin-bottom: 0px; font-size: 40px"";>מוכנים לשלם: <span id=""c_p_y""></span></p>","40","evaluation","28","4","12C,17C,23C,28C","20","11","40","","","","","","","","","","","","","","","","",""
"","","","","","html-keyboard-response","171","354196","0.0-21.0-2.19","0534ba2f-a6e8-421a-b7b8-32def9eab26b","null","<p style=""text-align: center;"">+</p>","null","fixation","","","","","","","","","","","","","","","","","","","","","","",""
"","","","","","html-slider-response","172","355207","0.0-21.0-0.20","0534ba2f-a6e8-421a-b7b8-32def9eab26b","1000","
                  <p style=""text-align: center;"">₪76
                                                <br>65%</p>
                  <p id=""wtp"" style=""text-align:center; margin-top: 0px; margin-bottom: 0px; font-size: 40px"";>&ensp;</p>","-","viewing","0","29","8C,19A,24B","","","","","","","","","","","","","","","","","","","",""
"","","","","","html-slider-response","173","356520","0.0-21.0-1.20","0534ba2f-a6e8-421a-b7b8-32def9eab26b","1311","
                  <p style=""text-align: center;"">₪76
                                                <br>65%</p>
                  <p id=""wtp"" style=""text-align:center; margin-top: 0px; margin-bottom: 0px; font-size: 40px"";>מוכנים לשלם: <span id=""c_p_y""></span></p>","78","evaluation","14","29","8C,19A,24B","65","76","77","","","","","","","","","","","","","","","","",""
"","","","","","html-keyboard-response","174","358006","0.0-21.0-2.20","0534ba2f-a6e8-421a-b7b8-32def9eab26b","null","<p style=""text-align: center;"">+</p>","null","fixation","","","","","","","","","","","","","","","","","","","","","","",""
"","","","","","html-slider-response","175","359019","0.0-21.0-0.21","0534ba2f-a6e8-421a-b7b8-32def9eab26b","1000","
                  <p style=""text-align: center;"">₪79
                                                <br>40%</p>
                  <p id=""wtp"" style=""text-align:center; margin-top: 0px; margin-bottom: 0px; font-size: 40px"";>&ensp;</p>","-","viewing","0","30","9B","","","","","","","","","","","","","","","","","","","",""
"","","","","","html-slider-response","176","359888","0.0-21.0-1.21","0534ba2f-a6e8-421a-b7b8-32def9eab26b","868","
                  <p style=""text-align: center;"">₪79
                                                <br>40%</p>
                  <p id=""wtp"" style=""text-align:center; margin-top: 0px; margin-bottom: 0px; font-size: 40px"";>מוכנים לשלם: <span id=""c_p_y""></span></p>","38","evaluation","70","30","9B","40","79","38","","","","","","","","","","","","","","","","",""
"","","","","","html-keyboard-response","177","360711","0.0-21.0-2.21","0534ba2f-a6e8-421a-b7b8-32def9eab26b","null","<p style=""text-align: center;"">+</p>","null","fixation","","","","","","","","","","","","","","","","","","","","","","",""
"","","","","","html-slider-response","178","361715","0.0-21.0-0.22","0534ba2f-a6e8-421a-b7b8-32def9eab26b","1000","
                  <p style=""text-align: center;"">₪4
                                                <br>25%</p>
                  <p id=""wtp"" style=""text-align:center; margin-top: 0px; margin-bottom: 0px; font-size: 40px"";>&ensp;</p>","-","viewing","0","1","6C,29B,30C","","","","","","","","","","","","","","","","","","","",""
"","","","","","html-slider-response","179","364352","0.0-21.0-1.22","0534ba2f-a6e8-421a-b7b8-32def9eab26b","2635","
                  <p style=""text-align: center;"">₪4
                                                <br>25%</p>
                  <p id=""wtp"" style=""text-align:center; margin-top: 0px; margin-bottom: 0px; font-size: 40px"";>מוכנים לשלם: <span id=""c_p_y""></span></p>","26","evaluation","57","1","6C,29B,30C","25","4","26","","","","","","","","","","","","","","","","",""
"","","","","","html-keyboard-response","180","365524","0.0-21.0-2.22","0534ba2f-a6e8-421a-b7b8-32def9eab26b","null","<p style=""text-align: center;"">+</p>","null","fixation","","","","","","","","","","","","","","","","","","","","","","",""
"","","","","","html-slider-response","181","366528","0.0-21.0-0.23","0534ba2f-a6e8-421a-b7b8-32def9eab26b","1000","
                  <p style=""text-align: center;"">₪58
                                                <br>30%</p>
                  <p id=""wtp"" style=""text-align:center; margin-top: 0px; margin-bottom: 0px; font-size: 40px"";>&ensp;</p>","-","viewing","0","19","13C,30A","","","","","","","","","","","","","","","","","","","",""
"","","","","","html-slider-response","182","368768","0.0-21.0-1.23","0534ba2f-a6e8-421a-b7b8-32def9eab26b","2238","
                  <p style=""text-align: center;"">₪58
                                                <br>30%</p>
                  <p id=""wtp"" style=""text-align:center; margin-top: 0px; margin-bottom: 0px; font-size: 40px"";>מוכנים לשלם: <span id=""c_p_y""></span></p>","12","evaluation","31","19","13C,30A","30","58","12","","","","","","","","","","","","","","","","",""
"","","","","","html-keyboard-response","183","369655","0.0-21.0-2.23","0534ba2f-a6e8-421a-b7b8-32def9eab26b","null","<p style=""text-align: center;"">+</p>","null","fixation","","","","","","","","","","","","","","","","","","","","","","",""
"","","","","","html-slider-response","184","370660","0.0-21.0-0.24","0534ba2f-a6e8-421a-b7b8-32def9eab26b","1000","
                  <p style=""text-align: center;"">₪58
                                                <br>45%</p>
                  <p id=""wtp"" style=""text-align:center; margin-top: 0px; margin-bottom: 0px; font-size: 40px"";>&ensp;</p>","-","viewing","0","21","11C,18C,25A","","","","","","","","","","","","","","","","","","","",""
"","","","","","html-slider-response","185","372200","0.0-21.0-1.24","0534ba2f-a6e8-421a-b7b8-32def9eab26b","1538","
                  <p style=""text-align: center;"">₪58
                                                <br>45%</p>
                  <p id=""wtp"" style=""text-align:center; margin-top: 0px; margin-bottom: 0px; font-size: 40px"";>מוכנים לשלם: <span id=""c_p_y""></span></p>","59","evaluation","41","21","11C,18C,25A","45","58","59","","","","","","","","","","","","","","","","",""
"","","","","","html-keyboard-response","186","373494","0.0-21.0-2.24","0534ba2f-a6e8-421a-b7b8-32def9eab26b","null","<p style=""text-align: center;"">+</p>","null","fixation","","","","","","","","","","","","","","","","","","","","","","",""
"","","","","","html-slider-response","187","374498","0.0-21.0-0.25","0534ba2f-a6e8-421a-b7b8-32def9eab26b","1000","
                  <p style=""text-align: center;"">₪18
                                                <br>25%</p>
                  <p id=""wtp"" style=""text-align:center; margin-top: 0px; margin-bottom: 0px; font-size: 40px"";>&ensp;</p>","-","viewing","0","9","14A,23A","","","","","","","","","","","","","","","","","","","",""
"","","","","","html-slider-response","188","375304","0.0-21.0-1.25","0534ba2f-a6e8-421a-b7b8-32def9eab26b","804","
                  <p style=""text-align: center;"">₪18
                                                <br>25%</p>
                  <p id=""wtp"" style=""text-align:center; margin-top: 0px; margin-bottom: 0px; font-size: 40px"";>מוכנים לשלם: <span id=""c_p_y""></span></p>","14","evaluation","61","9","14A,23A","25","18","14","","","","","","","","","","","","","","","","",""
"","","","","","html-keyboard-response","189","375839","0.0-21.0-2.25","0534ba2f-a6e8-421a-b7b8-32def9eab26b","null","<p style=""text-align: center;"">+</p>","null","fixation","","","","","","","","","","","","","","","","","","","","","","",""
"","","","","","html-slider-response","190","376853","0.0-21.0-0.26","0534ba2f-a6e8-421a-b7b8-32def9eab26b","1000","
                  <p style=""text-align: center;"">₪4
                                                <br>50%</p>
                  <p id=""wtp"" style=""text-align:center; margin-top: 0px; margin-bottom: 0px; font-size: 40px"";>&ensp;</p>","-","viewing","0","2","4C,17B","","","","","","","","","","","","","","","","","","","",""
"","","","","","html-slider-response","191","377872","0.0-21.0-1.26","0534ba2f-a6e8-421a-b7b8-32def9eab26b","1017","
                  <p style=""text-align: center;"">₪4
                                                <br>50%</p>
                  <p id=""wtp"" style=""text-align:center; margin-top: 0px; margin-bottom: 0px; font-size: 40px"";>מוכנים לשלם: <span id=""c_p_y""></span></p>","3","evaluation","46","2","4C,17B","50","4","3","","","","","","","","","","","","","","","","",""
"","","","","","html-keyboard-response","192","379326","0.0-21.0-2.26","0534ba2f-a6e8-421a-b7b8-32def9eab26b","null","<p style=""text-align: center;"">+</p>","null","fixation","","","","","","","","","","","","","","","","","","","","","","",""
"","","","","","html-slider-response","193","380330","0.0-21.0-0.27","0534ba2f-a6e8-421a-b7b8-32def9eab26b","1000","
                  <p style=""text-align: center;"">₪11
                                                <br>25%</p>
                  <p id=""wtp"" style=""text-align:center; margin-top: 0px; margin-bottom: 0px; font-size: 40px"";>&ensp;</p>","-","viewing","0","5","12A,27B,28B,30B","","","","","","","","","","","","","","","","","","","",""
"","","","","","html-slider-response","194","381079","0.0-21.0-1.27","0534ba2f-a6e8-421a-b7b8-32def9eab26b","748","
                  <p style=""text-align: center;"">₪11
                                                <br>25%</p>
                  <p id=""wtp"" style=""text-align:center; margin-top: 0px; margin-bottom: 0px; font-size: 40px"";>מוכנים לשלם: <span id=""c_p_y""></span></p>","33","evaluation","36","5","12A,27B,28B,30B","25","11","33","","","","","","","","","","","","","","","","",""
"","","","","","html-keyboard-response","195","382397","0.0-21.0-2.27","0534ba2f-a6e8-421a-b7b8-32def9eab26b","null","<p style=""text-align: center;"">+</p>","null","fixation","","","","","","","","","","","","","","","","","","","","","","",""
"","","","","","html-slider-response","196","383410","0.0-21.0-0.28","0534ba2f-a6e8-421a-b7b8-32def9eab26b","1000","
                  <p style=""text-align: center;"">₪11
                                                <br>45%</p>
                  <p id=""wtp"" style=""text-align:center; margin-top: 0px; margin-bottom: 0px; font-size: 40px"";>&ensp;</p>","-","viewing","0","6","14B,21C,25C","","","","","","","","","","","","","","","","","","","",""
"","","","","","html-slider-response","197","385280","0.0-21.0-1.28","0534ba2f-a6e8-421a-b7b8-32def9eab26b","1868","
                  <p style=""text-align: center;"">₪11
                                                <br>45%</p>
                  <p id=""wtp"" style=""text-align:center; margin-top: 0px; margin-bottom: 0px; font-size: 40px"";>מוכנים לשלם: <span id=""c_p_y""></span></p>","66","evaluation","73","6","14B,21C,25C","45","11","66","","","","","","","","","","","","","","","","",""
"","","","","","html-keyboard-response","198","386516","0.0-21.0-2.28","0534ba2f-a6e8-421a-b7b8-32def9eab26b","null","<p style=""text-align: center;"">+</p>","null","fixation","","","","","","","","","","","","","","","","","","","","","","",""
"","","","","","html-slider-response","199","387529","0.0-21.0-0.29","0534ba2f-a6e8-421a-b7b8-32def9eab26b","1000","
                  <p style=""text-align: center;"">₪64
                                                <br>25%</p>
                  <p id=""wtp"" style=""text-align:center; margin-top: 0px; margin-bottom: 0px; font-size: 40px"";>&ensp;</p>","-","viewing","0","24","6A,21A","","","","","","","","","","","","","","","","","","","",""
"","","","","","html-slider-response","200","389712","0.0-21.0-1.29","0534ba2f-a6e8-421a-b7b8-32def9eab26b","2181","
                  <p style=""text-align: center;"">₪64
                                                <br>25%</p>
                  <p id=""wtp"" style=""text-align:center; margin-top: 0px; margin-bottom: 0px; font-size: 40px"";>מוכנים לשלם: <span id=""c_p_y""></span></p>","73","evaluation","27","24","6A,21A","25","64","73","","","","","","","","","","","","","","","","",""
"","","","","","html-keyboard-response","201","390665","0.0-21.0-2.29","0534ba2f-a6e8-421a-b7b8-32def9eab26b","null","<p style=""text-align: center;"">+</p>","null","fixation","","","","","","","","","","","","","","","","","","","","","","",""
"","","","","","html-slider-response","202","391667","0.0-21.0-0.30","0534ba2f-a6e8-421a-b7b8-32def9eab26b","1000","
                  <p style=""text-align: center;"">₪43
                                                <br>60%</p>
                  <p id=""wtp"" style=""text-align:center; margin-top: 0px; margin-bottom: 0px; font-size: 40px"";>&ensp;</p>","-","viewing","0","17","2A,7A,9A,15B","","","","","","","","","","","","","","","","","","","",""
"","","","","","html-slider-response","203","393616","0.0-21.0-1.30","0534ba2f-a6e8-421a-b7b8-32def9eab26b","1948","
                  <p style=""text-align: center;"">₪43
                                                <br>60%</p>
                  <p id=""wtp"" style=""text-align:center; margin-top: 0px; margin-bottom: 0px; font-size: 40px"";>מוכנים לשלם: <span id=""c_p_y""></span></p>","64","evaluation","3","17","2A,7A,9A,15B","60","43","64","","","","","","","","","","","","","","","","",""
"","","","","","html-keyboard-response","204","394298","0.0-21.0-2.30","0534ba2f-a6e8-421a-b7b8-32def9eab26b","null","<p style=""text-align: center;"">+</p>","null","fixation","","","","","","","","","","","","","","","","","","","","","","",""
"","","","","","html-keyboard-response","205","395300","0.0-22.0","0534ba2f-a6e8-421a-b7b8-32def9eab26b","null","<p style=""text-align: center;"">+</p>","null","fixation","","","","","","","","","","","","","","","","","","","","","","",""
"","","","","","html-keyboard-response","206","404415","0.0-23.0","0534ba2f-a6e8-421a-b7b8-32def9eab26b","null","<p>הפסקה.
          <br>לחצו כדי להמשיך.</p>","1","scan_wait","","","","","","","","","","","","","","","","","","","","","","",""
"","","","","","html-keyboard-response","207","405428","0.0-24.0","0534ba2f-a6e8-421a-b7b8-32def9eab26b","null","<p style=""text-align: center;"">+</p>","null","fixation","","","","","","","","","","","","","","","","","","","","","","",""
"","","","","","html-slider-response","208","406444","0.0-25.0-0.0","0534ba2f-a6e8-421a-b7b8-32def9eab26b","1000","
                  <p style=""text-align: center;"">₪61
                                                <br>45%</p>
                  <p id=""wtp"" style=""text-align:center; margin-top: 0px; margin-bottom: 0px; font-size: 40px"";>&ensp;</p>","-","viewing","0","22","10A,11A","","","","","","","","","","","","","","","","","","","",""
"","","","","","html-slider-response","209","407040","0.0-25.0-1.0","0534ba2f-a6e8-421a-b7b8-32def9eab26b","594","
                  <p style=""text-align: center;"">₪61
                                                <br>45%</p>
                  <p id=""wtp"" style=""text-align:center; margin-top: 0px; margin-bottom: 0px; font-size: 40px"";>מוכנים לשלם: <span id=""c_p_y""></span></p>","57","evaluation","1","22","10A,11A","45","61","57","","","","","","","","","","","","","","","","",""
"","","","","","html-keyboard-response","210","407961","0.0-25.0-2.0","0534ba2f-a6e8-421a-b7b8-32def9eab26b","null","<p style=""text-align: center;"">+</p>","null","fixation","","","","","","","","","","","","","","","","","","","","","","",""
"","","","","","html-slider-response","211","408967","0.0-25.0-0.1","0534ba2f-a6e8-421a-b7b8-32def9eab26b","1000","
                  <p style=""text-align: center;"">₪71
                                                <br>75%</p>
                  <p id=""wtp"" style=""text-align:center; margin-top: 0px; margin-bottom: 0px; font-size: 40px"";>&ensp;</p>","-","viewing","0","28","8B","","","","","","","","","","","","","","","","","","","",""
"","","","","","html-slider-response","212","410208","0.0-25.0-1.1","0534ba2f-a6e8-421a-b7b8-32def9eab26b","1238","
                  <p style=""text-align: center;"">₪71
                                                <br>75%</p>
                  <p id=""wtp"" style=""text-align:center; margin-top: 0px; margin-bottom: 0px; font-size: 40px"";>מוכנים לשלם: <span id=""c_p_y""></span></p>","78","evaluation","59","28","8B","75","71","78","","","","","","","","","","","","","","","","",""
"","","","","","html-keyboard-response","213","410832","0.0-25.0-2.1","0534ba2f-a6e8-421a-b7b8-32def9eab26b","null","<p style=""text-align: center;"">+</p>","null","fixation","","","","","","","","","","","","","","","","","","","","","","",""
"","","","","","html-slider-response","214","411834","0.0-25.0-0.2","0534ba2f-a6e8-421a-b7b8-32def9eab26b","1000","
                  <p style=""text-align: center;"">₪11
                                                <br>25%</p>
                  <p id=""wtp"" style=""text-align:center; margin-top: 0px; margin-bottom: 0px; font-size: 40px"";>&ensp;</p>","-","viewing","0","5","12A,27B,28B,30B","","","","","","","","","","","","","","","","","","","",""
"","","","","","html-slider-response","215","412871","0.0-25.0-1.2","0534ba2f-a6e8-421a-b7b8-32def9eab26b","1035","
                  <p style=""text-align: center;"">₪11
                                                <br>25%</p>
                  <p id=""wtp"" style=""text-align:center; margin-top: 0px; margin-bottom: 0px; font-size: 40px"";>מוכנים לשלם: <span id=""c_p_y""></span></p>","13","evaluation","67","5","12A,27B,28B,30B","25","11","13","","","","","","","","","","","","","","","","",""
"","","","","","html-keyboard-response","216","414051","0.0-25.0-2.2","0534ba2f-a6e8-421a-b7b8-32def9eab26b","null","<p style=""text-align: center;"">+</p>","null","fixation","","","","","","","","","","","","","","","","","","","","","","",""
"","","","","","html-slider-response","217","415062","0.0-25.0-0.3","0534ba2f-a6e8-421a-b7b8-32def9eab26b","1000","
                  <p style=""text-align: center;"">₪64
                                                <br>25%</p>
                  <p id=""wtp"" style=""text-align:center; margin-top: 0px; margin-bottom: 0px; font-size: 40px"";>&ensp;</p>","-","viewing","0","24","6A,21A","","","","","","","","","","","","","","","","","","","",""
"","","","","","html-slider-response","218","415911","0.0-25.0-1.3","0534ba2f-a6e8-421a-b7b8-32def9eab26b","848","
                  <p style=""text-align: center;"">₪64
                                                <br>25%</p>
                  <p id=""wtp"" style=""text-align:center; margin-top: 0px; margin-bottom: 0px; font-size: 40px"";>מוכנים לשלם: <span id=""c_p_y""></span></p>","36","evaluation","78","24","6A,21A","25","64","36","","","","","","","","","","","","","","","","",""
"","","","","","html-keyboard-response","219","417097","0.0-25.0-2.3","0534ba2f-a6e8-421a-b7b8-32def9eab26b","null","<p style=""text-align: center;"">+</p>","null","fixation","","","","","","","","","","","","","","","","","","","","","","",""
"","","","","","html-slider-response","220","418113","0.0-25.0-0.4","0534ba2f-a6e8-421a-b7b8-32def9eab26b","1000","
                  <p style=""text-align: center;"">₪43
                                                <br>60%</p>
                  <p id=""wtp"" style=""text-align:center; margin-top: 0px; margin-bottom: 0px; font-size: 40px"";>&ensp;</p>","-","viewing","0","17","2A,7A,9A,15B","","","","","","","","","","","","","","","","","","","",""
"","","","","","html-slider-response","221","420376","0.0-25.0-1.4","0534ba2f-a6e8-421a-b7b8-32def9eab26b","2262","
                  <p style=""text-align: center;"">₪43
                                                <br>60%</p>
                  <p id=""wtp"" style=""text-align:center; margin-top: 0px; margin-bottom: 0px; font-size: 40px"";>מוכנים לשלם: <span id=""c_p_y""></span></p>","60","evaluation","33","17","2A,7A,9A,15B","60","43","60","","","","","","","","","","","","","","","","",""
"","","","","","html-keyboard-response","222","421443","0.0-25.0-2.4","0534ba2f-a6e8-421a-b7b8-32def9eab26b","null","<p style=""text-align: center;"">+</p>","null","fixation","","","","","","","","","","","","","","","","","","","","","","",""
"","","","","","html-slider-response","223","422454","0.0-25.0-0.5","0534ba2f-a6e8-421a-b7b8-32def9eab26b","1000","
                  <p style=""text-align: center;"">₪4
                                                <br>75%</p>
                  <p id=""wtp"" style=""text-align:center; margin-top: 0px; margin-bottom: 0px; font-size: 40px"";>&ensp;</p>","-","viewing","0","3","12B,20B,23B,27C,29C","","","","","","","","","","","","","","","","","","","",""
"","","","","","html-slider-response","224","423392","0.0-25.0-1.5","0534ba2f-a6e8-421a-b7b8-32def9eab26b","936","
                  <p style=""text-align: center;"">₪4
                                                <br>75%</p>
                  <p id=""wtp"" style=""text-align:center; margin-top: 0px; margin-bottom: 0px; font-size: 40px"";>מוכנים לשלם: <span id=""c_p_y""></span></p>","65","evaluation","11","3","12B,20B,23B,27C,29C","75","4","65","","","","","","","","","","","","","","","","",""
"","","","","","html-keyboard-response","225","424084","0.0-25.0-2.5","0534ba2f-a6e8-421a-b7b8-32def9eab26b","null","<p style=""text-align: center;"">+</p>","null","fixation","","","","","","","","","","","","","","","","","","","","","","",""
"","","","","","html-slider-response","226","425089","0.0-25.0-0.6","0534ba2f-a6e8-421a-b7b8-32def9eab26b","1000","
                  <p style=""text-align: center;"">₪4
                                                <br>50%</p>
                  <p id=""wtp"" style=""text-align:center; margin-top: 0px; margin-bottom: 0px; font-size: 40px"";>&ensp;</p>","-","viewing","0","2","4C,17B","","","","","","","","","","","","","","","","","","","",""
"","","","","","html-slider-response","227","425640","0.0-25.0-1.6","0534ba2f-a6e8-421a-b7b8-32def9eab26b","549","
                  <p style=""text-align: center;"">₪4
                                                <br>50%</p>
                  <p id=""wtp"" style=""text-align:center; margin-top: 0px; margin-bottom: 0px; font-size: 40px"";>מוכנים לשלם: <span id=""c_p_y""></span></p>","41","evaluation","58","2","4C,17B","50","4","41","","","","","","","","","","","","","","","","",""
"","","","","","html-keyboard-response","228","426165","0.0-25.0-2.6","0534ba2f-a6e8-421a-b7b8-32def9eab26b","null","<p style=""text-align: center;"">+</p>","null","fixation","","","","","","","","","","","","","","","","","","","","","","",""
"","","","","","html-slider-response","229","427182","0.0-25.0-0.7","0534ba2f-a6e8-421a-b7b8-32def9eab26b","1000","
                  <p style=""text-align: center;"">₪71
                                                <br>45%</p>
                  <p id=""wtp"" style=""text-align:center; margin-top: 0px; margin-bottom: 0px; font-size: 40px"";>&ensp;</p>","-","viewing","0","26","2B,16A","","","","","","","","","","","","","","","","","","","",""
"","","","","","html-slider-response","230","428031","0.0-25.0-1.7","0534ba2f-a6e8-421a-b7b8-32def9eab26b","848","
                  <p style=""text-align: center;"">₪71
                                                <br>45%</p>
                  <p id=""wtp"" style=""text-align:center; margin-top: 0px; margin-bottom: 0px; font-size: 40px"";>מוכנים לשלם: <span id=""c_p_y""></span></p>","70","evaluation","32","26","2B,16A","45","71","70","","","","","","","","","","","","","","","","",""
"","","","","","html-keyboard-response","231","428581","0.0-25.0-2.7","0534ba2f-a6e8-421a-b7b8-32def9eab26b","null","<p style=""text-align: center;"">+</p>","null","fixation","","","","","","","","","","","","","","","","","","","","","","",""
"","","","","","html-slider-response","232","429582","0.0-25.0-0.8","0534ba2f-a6e8-421a-b7b8-32def9eab26b","1000","
                  <p style=""text-align: center;"">₪79
                                                <br>65%</p>
                  <p id=""wtp"" style=""text-align:center; margin-top: 0px; margin-bottom: 0px; font-size: 40px"";>&ensp;</p>","-","viewing","0","31","8A","","","","","","","","","","","","","","","","","","","",""
"","","","","","html-slider-response","233","430415","0.0-25.0-1.8","0534ba2f-a6e8-421a-b7b8-32def9eab26b","832","
                  <p style=""text-align: center;"">₪79
                                                <br>65%</p>
                  <p id=""wtp"" style=""text-align:center; margin-top: 0px; margin-bottom: 0px; font-size: 40px"";>מוכנים לשלם: <span id=""c_p_y""></span></p>","38","evaluation","0","31","8A","65","79","38","","","","","","","","","","","","","","","","",""
"","","","","","html-keyboard-response","234","430961","0.0-25.0-2.8","0534ba2f-a6e8-421a-b7b8-32def9eab26b","null","<p style=""text-align: center;"">+</p>","null","fixation","","","","","","","","","","","","","","","","","","","","","","",""
"","","","","","html-slider-response","235","431970","0.0-25.0-0.9","0534ba2f-a6e8-421a-b7b8-32def9eab26b","1000","
                  <p style=""text-align: center;"">₪18
                                                <br>50%</p>
                  <p id=""wtp"" style=""text-align:center; margin-top: 0px; margin-bottom: 0px; font-size: 40px"";>&ensp;</p>","-","viewing","0","10","2C,16C,22B,28A","","","","","","","","","","","","","","","","","","","",""
"","","","","","html-slider-response","236","433040","0.0-25.0-1.9","0534ba2f-a6e8-421a-b7b8-32def9eab26b","1068","
                  <p style=""text-align: center;"">₪18
                                                <br>50%</p>
                  <p id=""wtp"" style=""text-align:center; margin-top: 0px; margin-bottom: 0px; font-size: 40px"";>מוכנים לשלם: <span id=""c_p_y""></span></p>","32","evaluation","42","10","2C,16C,22B,28A","50","18","32","","","","","","","","","","","","","","","","",""
"","","","","","html-keyboard-response","237","433835","0.0-25.0-2.9","0534ba2f-a6e8-421a-b7b8-32def9eab26b","null","<p style=""text-align: center;"">+</p>","null","fixation","","","","","","","","","","","","","","","","","","","","","","",""
"","","","","","html-slider-response","238","434847","0.0-25.0-0.10","0534ba2f-a6e8-421a-b7b8-32def9eab26b","1000","
                  <p style=""text-align: center;"">₪39
                                                <br>65%</p>
                  <p id=""wtp"" style=""text-align:center; margin-top: 0px; margin-bottom: 0px; font-size: 40px"";>&ensp;</p>","-","viewing","0","16","1A,15A,26C","","","","","","","","","","","","","","","","","","","",""
"","","","","","html-slider-response","239","435784","0.0-25.0-1.10","0534ba2f-a6e8-421a-b7b8-32def9eab26b","936","
                  <p style=""text-align: center;"">₪39
                                                <br>65%</p>
                  <p id=""wtp"" style=""text-align:center; margin-top: 0px; margin-bottom: 0px; font-size: 40px"";>מוכנים לשלם: <span id=""c_p_y""></span></p>","42","evaluation","2","16","1A,15A,26C","65","39","42","","","","","","","","","","","","","","","","",""
"","","","","","html-keyboard-response","240","436681","0.0-25.0-2.10","0534ba2f-a6e8-421a-b7b8-32def9eab26b","null","<p style=""text-align: center;"">+</p>","null","fixation","","","","","","","","","","","","","","","","","","","","","","",""
"","","","","","html-slider-response","241","437682","0.0-25.0-0.11","0534ba2f-a6e8-421a-b7b8-32def9eab26b","1000","
                  <p style=""text-align: center;"">₪64
                                                <br>50%</p>
                  <p id=""wtp"" style=""text-align:center; margin-top: 0px; margin-bottom: 0px; font-size: 40px"";>&ensp;</p>","-","viewing","0","25","1B,3B,4A","","","","","","","","","","","","","","","","","","","",""
"","","","","","html-slider-response","242","438416","0.0-25.0-1.11","0534ba2f-a6e8-421a-b7b8-32def9eab26b","732","
                  <p style=""text-align: center;"">₪64
                                                <br>50%</p>
                  <p id=""wtp"" style=""text-align:center; margin-top: 0px; margin-bottom: 0px; font-size: 40px"";>מוכנים לשלם: <span id=""c_p_y""></span></p>","25","evaluation","54","25","1B,3B,4A","50","64","25","","","","","","","","","","","","","","","","",""
"","","","","","html-keyboard-response","243","439104","0.0-25.0-2.11","0534ba2f-a6e8-421a-b7b8-32def9eab26b","null","<p style=""text-align: center;"">+</p>","null","fixation","","","","","","","","","","","","","","","","","","","","","","",""
"","","","","","html-slider-response","244","440111","0.0-25.0-0.12","0534ba2f-a6e8-421a-b7b8-32def9eab26b","1000","
                  <p style=""text-align: center;"">₪11
                                                <br>20%</p>
                  <p id=""wtp"" style=""text-align:center; margin-top: 0px; margin-bottom: 0px; font-size: 40px"";>&ensp;</p>","-","viewing","0","4","12C,17C,23C,28C","","","","","","","","","","","","","","","","","","","",""
"","","","","","html-slider-response","245","441912","0.0-25.0-1.12","0534ba2f-a6e8-421a-b7b8-32def9eab26b","1799","
                  <p style=""text-align: center;"">₪11
                                                <br>20%</p>
                  <p id=""wtp"" style=""text-align:center; margin-top: 0px; margin-bottom: 0px; font-size: 40px"";>מוכנים לשלם: <span id=""c_p_y""></span></p>","25","evaluation","48","4","12C,17C,23C,28C","20","11","25","","","","","","","","","","","","","","","","",""
"","","","","","html-keyboard-response","246","442746","0.0-25.0-2.12","0534ba2f-a6e8-421a-b7b8-32def9eab26b","null","<p style=""text-align: center;"">+</p>","null","fixation","","","","","","","","","","","","","","","","","","","","","","",""
"","","","","","html-slider-response","247","443751","0.0-25.0-0.13","0534ba2f-a6e8-421a-b7b8-32def9eab26b","1000","
                  <p style=""text-align: center;"">₪43
                                                <br>75%</p>
                  <p id=""wtp"" style=""text-align:center; margin-top: 0px; margin-bottom: 0px; font-size: 40px"";>&ensp;</p>","-","viewing","0","18","11B,19B,24A,26A","","","","","","","","","","","","","","","","","","","",""
"","","","","","html-slider-response","248","446536","0.0-25.0-1.13","0534ba2f-a6e8-421a-b7b8-32def9eab26b","2783","
                  <p style=""text-align: center;"">₪43
                                                <br>75%</p>
