"success","timeout","failed_images","failed_audio","failed_video","trial_type","trial_index","time_elapsed","internal_node_id","subject_id","rt","stimulus","response","part","slider_start","ID","set_ID","prob","amount","last_location","actual_choice","actual_EV","binary_id","trinary_id","catch","direction","A_key","S_key","D_key","choice_prob","choice_amount","won_prize","potential_prize_amount","potential_prize_prob","total_prize","accuracy"
"true","false","[]","[]","[]","preload","0","13","0.0-0.0","c0030ba8-6aa7-41eb-ac56-36bbce26411d","","","","","","","","","","","","","","","","","","","","","","","","","",""
"","","","","","html-keyboard-response","1","9634","0.0-1.0","c0030ba8-6aa7-41eb-ac56-36bbce26411d","null","
          <h1>שלום וברוכים הבאים!</h1>
          <p>לפניכם ניסוי בקבלת החלטות עם שני חלקים.
          <br><br>לחצו על העכבר כדי להמשיך.</p>","0","example","","","","","","","","","","","","","","","","","","","","","",""
"","","","","","html-keyboard-response","2","14362","0.0-2.0","c0030ba8-6aa7-41eb-ac56-36bbce26411d","null","
        <h1>חלק 1</h1>
        <p>בקרוב יוצגו בפניכם הגרלות.
        <br>עליכם לבחור את המחיר המירבי שתהיו מוכנים לשלם כדי להשתתף בהגרלה שתוצג.
        <br>יש לכם תקציב של ₪80 לכל הגרלה. 
        <br>נסו להעריך כל הגרלה בנפרד ולחשוב כמה היא שווה עבורכם, ₪80 זמינים לכל הגרלה בנפרד.
        <br><br>לחצו על העכבר כדי להמשיך.</p>","1","instructions","","","","","","","","","","","","","","","","","","","","","",""
"","","","","","html-keyboard-response","3","16099","0.0-3.0","c0030ba8-6aa7-41eb-ac56-36bbce26411d","null","
        <p>בסוף הניסוי, המחשב יבחר את אחת ההגרלות ויקבע מחיר לכרטיס עבורה. 
        <br>במידה והמחיר שבחרתם נמוך מהמחיר שנבחר על ידי המחשב, לא תשתתפו בהגרלה ותשארו עם מלוא התקציב.
        <br>במידה והמחיר שבחרתם גבוה מהמחיר שנבחר על ידי המחשב, תשלמו את המחיר שנקבע ותשתתפו בהגרלה.
        <br><br>לחצו על העכבר כדי להמשיך.</p>","1","instructions","","","","","","","","","","","","","","","","","","","","","",""
"","","","","","html-slider-response","4","25955","0.0-4.0","c0030ba8-6aa7-41eb-ac56-36bbce26411d","9744","
        <p style=""font-size: 42px;"">נתחיל עם דוגמא: 
        <br>ההגרלה מטה מציעה 65% סיכוי לזכות ב-₪40 
        <br>&emsp;&emsp;&emsp;&emsp;&emsp;&emsp;&emsp;&emsp;&ensp;35% סיכוי לזכות ב-₪0.
        <br><br>מה המחיר המירבי שתהיו מוכנים לשלם על כרטיס להגרלה זו בין 0 ל-₪80?
        <br>הזיזו את העכבר על פני המלבן ולחצו כדי לבצע בחירה.</p>
        
        <p style=""text-align: center;"">₪40<br>65%</p>

        <p id=""wtp"" style=""text-align:center; margin-top: 0px; margin-bottom: 0px; font-size: 40px"";>מוכנים לשלם: <span id=""c_p_y""></span></p>","10","example","9","","","","","","","","","","","","","","","","","","","","",""
"","","","","","html-keyboard-response","5","35779","0.0-5.0","c0030ba8-6aa7-41eb-ac56-36bbce26411d","null","<p>יפה מאוד!
                <br> בחרתם שתהיו מוכנים לשלם ₪10 כדי להשתתף בהגרלה:
                <br><p style=""text-align: center;"">₪40<br>65%</p>
                <p>נשמע נכון?
                <br>נניח שהגרלה זו נבחרה בסוף הניסוי.
                <br>כעת המחשב יקבע מחיר עבורה באקראי.
                <br>לחצו על העכבר להמשך.</p>","1","example","","","","","","","","","","","","","","","","","","","","","",""
"","","","","","html-keyboard-response","6","44507","0.0-6.0","c0030ba8-6aa7-41eb-ac56-36bbce26411d","null","<p>המחשב קבע מחיר: ₪74
                <br>ואתם בחרתם לשלם לכל היותר: ₪10
                <br><br>מכיוון שהמחיר שבחרתם נמוך מהמחיר שנקבע, לא תתשתתפו בהגרלה.
                <br>במקרה כזה, בסוף הניסוי תקבלו את כל התקציב ההתחלתי של ₪80.
                <br><br>לחצו על העכבר להמשך.</p>","1","example","","","","","","","","","","","","","","","","","","","","","",""
"","","","","","html-slider-response","7","47099","0.0-7.0","c0030ba8-6aa7-41eb-ac56-36bbce26411d","2326","<p style=""font-size: 42px;"">הנה עוד דוגמא:
                <br>ההגרלה מטה מציעה 35% סיכוי לזכות ב-₪18 
                <br>&emsp;&emsp;&emsp;&emsp;&emsp;&emsp;&emsp;&emsp;&ensp;65% סיכוי לזכות ב-₪0.</p>
        
                <p style=""text-align: center;"">₪18<br>35%</p>
                <p id=""wtp"" style=""text-align:center; margin-top: 0px; margin-bottom: 0px; font-size: 40px"";>מוכנים לשלם: <span id=""c_p_y""></span></p>","7","example","62","","","","","","","","","","","","","","","","","","","","",""
"","","","","","html-keyboard-response","8","47779","0.0-8.0","c0030ba8-6aa7-41eb-ac56-36bbce26411d","null","<p>הייתם מוכנים לשלם  ₪7 כדי להשתתף בהגרלה:
                <p style=""text-align: center;"">₪18<br>35%</p>
                <p>כעת נניח שהמחשב בחר את ההגרלה הזו בסוף הניסוי, וקבע עבורה מחיר.
                <br><br>לחצו על העכבר כדי להמשיך.</p>","1","instructions","","","","","","","","","","","","","","","","","","","","","",""
"","","","","","html-keyboard-response","9","48555","0.0-9.0","c0030ba8-6aa7-41eb-ac56-36bbce26411d","null","<p>המחשב קבע מחיר להגרלה: ₪3<br>ואתם בחרתם לשלם לכל היותר: ₪7
                <br><br>כעת המחיר שנקבע נמוך מזה שבחרתם, אז תשלמו את המחיר שקבע המחשב (₪3) ותשתתפו בהגרלה.
                <br>במקרה כזה, תסיימו את הניסוי עם תקציב של ₪77 ועם סיכוי לזכות ב-₪18 נוספים מההגרלה.
                <br>כלומר, תוכלו לקבל ₪77 אם לא תזכו בהגרלה, או ₪95 אם תזכו בהגרלה.
                <br><br>לחצו על העכבר להמשך.</p>","1","example","","","","","","","","","","","","","","","","","","","","","",""
"","","","","","html-keyboard-response","10","49235","0.0-10.0","c0030ba8-6aa7-41eb-ac56-36bbce26411d","null","<p>במהלך הניסוי, קודם תראו את ההגרלה ורק לאחר מכן תוכלו לבחור.
                <p>כמו כן, יהיו לכם מספר שניות מוגבל להגיב.
                <p>בואו ננסה זאת עם ההגרלה הקודמת.
                <br>לחצו על העכבר כדי להמשיך.</p>","1","instructions","","","","","","","","","","","","","","","","","","","","","",""
"","","","","","html-slider-response","11","50505","0.0-11.0","c0030ba8-6aa7-41eb-ac56-36bbce26411d","1000","
                    <p style=""text-align: center;"">₪18<br>35%</p>
                    <p id=""wtp"" style=""text-align:center; margin-top: 0px; margin-bottom: 0px; font-size: 40px"";>&ensp;</p>","4","instructions","0","","","","","","","","","","","","","","","","","","","","",""
"","","","","","html-slider-response","12","54758","0.0-12.0","c0030ba8-6aa7-41eb-ac56-36bbce26411d","null","
                    <p style=""text-align: center;"">₪18<br>35%</p>
                    <p id=""wtp"" style=""text-align:center; margin-top: 0px; margin-bottom: 0px; font-size: 40px"";>מוכנים לשלם: <span id=""c_p_y""></span></p>","null","instructions","78","","","","","","","","","","","","","","","","","","","","",""
"","","","","","html-keyboard-response","13","57987","0.0-13.0","c0030ba8-6aa7-41eb-ac56-36bbce26411d","null","<p>לא הגבתם בזמן המוקצב לתגובה. 
                <br>נסו להגיב מהר יותר בפעם הבאה.
                <br><br>לחצו על העכבר כדי להמשיך.</p>","1","instructions","","","","","","","","","","","","","","","","","","","","","",""
"","","","","","html-slider-response","14","60619","0.0-14.0-0.0","c0030ba8-6aa7-41eb-ac56-36bbce26411d","2370","
                    <p style=""text-align: center;"">₪40<br>65%</p>
                    <p id=""wtp"" style=""text-align:center; margin-top: 0px; margin-bottom: 0px; font-size: 40px"";>מוכנים לשלם: <span id=""c_p_y""></span></p>","25","instructions","58","","","","","","","","","","","","","","","","","","","","",""
"","","","","","html-keyboard-response","15","62867","0.0-14.0-1.0","c0030ba8-6aa7-41eb-ac56-36bbce26411d","null","<p>יפה. הפעם בחרתם לשלם לכל היותר ₪25.
                <br><br>לחצו על העכבר כדי להמשיך.</p>","1","instructions","","","","","","","","","","","","","","","","","","","","","",""
"","","","","","html-keyboard-response","16","67843","0.0-15.0","c0030ba8-6aa7-41eb-ac56-36bbce26411d","null","<p>כעת נתחיל את הניסוי.
                <br><br>אתם תראו הגרלות ותתבקשו לבחור כמה תהיו מוכנים לשלם כדי להשתתף בהן.
                <br>יש לכם תקציב של ₪80 עבור כל הגרלה.
                <br>בסוף הניסוי הגרלה אחת תבחר באקראי ותשוחק.
                <br><br>לחצו על העכבר כדי להתחיל את הניסוי.</p>","1","instructions","","","","","","","","","","","","","","","","","","","","","",""
"","","","","","html-keyboard-response","17","69110","0.0-16.0","c0030ba8-6aa7-41eb-ac56-36bbce26411d","null","<p style=""text-align: center;"">+</p>","null","fixation","","","","","","","","","","","","","","","","","","","","","",""
"","","","","","html-slider-response","18","70112","0.0-17.0-0.0","c0030ba8-6aa7-41eb-ac56-36bbce26411d","1000","
                  <p style=""text-align: center;"">₪43
                                                <br>75%</p>
                  <p id=""wtp"" style=""text-align:center; margin-top: 0px; margin-bottom: 0px; font-size: 40px"";>&ensp;</p>","-","viewing","0","18","11B,19B,24A,26A","","","","","","","","","","","","","","","","","","",""
"","","","","","html-slider-response","19","72675","0.0-17.0-1.0","c0030ba8-6aa7-41eb-ac56-36bbce26411d","2561","
                  <p style=""text-align: center;"">₪43
                                                <br>75%</p>
                  <p id=""wtp"" style=""text-align:center; margin-top: 0px; margin-bottom: 0px; font-size: 40px"";>מוכנים לשלם: <span id=""c_p_y""></span></p>","40","evaluation","75","18","11B,19B,24A,26A","75","43","40","","","","","","","","","","","","","","","",""
"","","","","","html-keyboard-response","20","74136","0.0-17.0-2.0","c0030ba8-6aa7-41eb-ac56-36bbce26411d","null","<p style=""text-align: center;"">+</p>","null","fixation","","","","","","","","","","","","","","","","","","","","","",""
"","","","","","html-slider-response","21","75139","0.0-17.0-0.1","c0030ba8-6aa7-41eb-ac56-36bbce26411d","1000","
                  <p style=""text-align: center;"">₪58
                                                <br>40%</p>
                  <p id=""wtp"" style=""text-align:center; margin-top: 0px; margin-bottom: 0px; font-size: 40px"";>&ensp;</p>","-","viewing","0","20","10C,13A,19C,21B","","","","","","","","","","","","","","","","","","",""
"","","","","","html-slider-response","22","77723","0.0-17.0-1.1","c0030ba8-6aa7-41eb-ac56-36bbce26411d","2583","
                  <p style=""text-align: center;"">₪58
                                                <br>40%</p>
                  <p id=""wtp"" style=""text-align:center; margin-top: 0px; margin-bottom: 0px; font-size: 40px"";>מוכנים לשלם: <span id=""c_p_y""></span></p>","20","evaluation","49","20","10C,13A,19C,21B","40","58","20","","","","","","","","","","","","","","","",""
"","","","","","html-keyboard-response","23","78999","0.0-17.0-2.1","c0030ba8-6aa7-41eb-ac56-36bbce26411d","null","<p style=""text-align: center;"">+</p>","null","fixation","","","","","","","","","","","","","","","","","","","","","",""
"","","","","","html-slider-response","24","80006","0.0-17.0-0.2","c0030ba8-6aa7-41eb-ac56-36bbce26411d","1000","
                  <p style=""text-align: center;"">₪11
                                                <br>75%</p>
                  <p id=""wtp"" style=""text-align:center; margin-top: 0px; margin-bottom: 0px; font-size: 40px"";>&ensp;</p>","-","viewing","0","7","6B,18B,22C,24C,29A","","","","","","","","","","","","","","","","","","",""
"","","","","","html-slider-response","25","84003","0.0-17.0-1.2","c0030ba8-6aa7-41eb-ac56-36bbce26411d","3996","
                  <p style=""text-align: center;"">₪11
                                                <br>75%</p>
                  <p id=""wtp"" style=""text-align:center; margin-top: 0px; margin-bottom: 0px; font-size: 40px"";>מוכנים לשלם: <span id=""c_p_y""></span></p>","5","evaluation","9","7","6B,18B,22C,24C,29A","75","11","6","","","","","","","","","","","","","","","",""
"","","","","","html-keyboard-response","26","84695","0.0-17.0-2.2","c0030ba8-6aa7-41eb-ac56-36bbce26411d","null","<p style=""text-align: center;"">+</p>","null","fixation","","","","","","","","","","","","","","","","","","","","","",""
"","","","","","html-slider-response","27","85698","0.0-17.0-0.3","c0030ba8-6aa7-41eb-ac56-36bbce26411d","1000","
                  <p style=""text-align: center;"">₪18
                                                <br>25%</p>
                  <p id=""wtp"" style=""text-align:center; margin-top: 0px; margin-bottom: 0px; font-size: 40px"";>&ensp;</p>","-","viewing","0","9","14A,23A","","","","","","","","","","","","","","","","","","",""
"","","","","","html-slider-response","28","89703","0.0-17.0-1.3","c0030ba8-6aa7-41eb-ac56-36bbce26411d","null","
                  <p style=""text-align: center;"">₪18
                                                <br>25%</p>
                  <p id=""wtp"" style=""text-align:center; margin-top: 0px; margin-bottom: 0px; font-size: 40px"";>מוכנים לשלם: <span id=""c_p_y""></span></p>","null","evaluation","65","9","14A,23A","25","18","2","","","","","","","","","","","","","","","",""
"","","","","","html-keyboard-response","29","90863","0.0-17.0-2.3","c0030ba8-6aa7-41eb-ac56-36bbce26411d","null","<p style=""text-align: center;"">+</p>","null","fixation","","","","","","","","","","","","","","","","","","","","","",""
"","","","","","html-slider-response","30","91865","0.0-17.0-0.4","c0030ba8-6aa7-41eb-ac56-36bbce26411d","1000","
                  <p style=""text-align: center;"">₪4
                                                <br>50%</p>
                  <p id=""wtp"" style=""text-align:center; margin-top: 0px; margin-bottom: 0px; font-size: 40px"";>&ensp;</p>","-","viewing","0","2","4C,17B","","","","","","","","","","","","","","","","","","",""
"","","","","","html-slider-response","31","93267","0.0-17.0-1.4","c0030ba8-6aa7-41eb-ac56-36bbce26411d","1401","
                  <p style=""text-align: center;"">₪4
                                                <br>50%</p>
                  <p id=""wtp"" style=""text-align:center; margin-top: 0px; margin-bottom: 0px; font-size: 40px"";>מוכנים לשלם: <span id=""c_p_y""></span></p>","0","evaluation","78","2","4C,17B","50","4","0","","","","","","","","","","","","","","","",""
"","","","","","html-keyboard-response","32","93982","0.0-17.0-2.4","c0030ba8-6aa7-41eb-ac56-36bbce26411d","null","<p style=""text-align: center;"">+</p>","null","fixation","","","","","","","","","","","","","","","","","","","","","",""
"","","","","","html-slider-response","33","94987","0.0-17.0-0.5","c0030ba8-6aa7-41eb-ac56-36bbce26411d","1000","
                  <p style=""text-align: center;"">₪11
                                                <br>25%</p>
                  <p id=""wtp"" style=""text-align:center; margin-top: 0px; margin-bottom: 0px; font-size: 40px"";>&ensp;</p>","-","viewing","0","5","12A,27B,28B,30B","","","","","","","","","","","","","","","","","","",""
"","","","","","html-slider-response","34","97195","0.0-17.0-1.5","c0030ba8-6aa7-41eb-ac56-36bbce26411d","2206","
                  <p style=""text-align: center;"">₪11
                                                <br>25%</p>
                  <p id=""wtp"" style=""text-align:center; margin-top: 0px; margin-bottom: 0px; font-size: 40px"";>מוכנים לשלם: <span id=""c_p_y""></span></p>","0","evaluation","12","5","12A,27B,28B,30B","25","11","1","","","","","","","","","","","","","","","",""
"","","","","","html-keyboard-response","35","98644","0.0-17.0-2.5","c0030ba8-6aa7-41eb-ac56-36bbce26411d","null","<p style=""text-align: center;"">+</p>","null","fixation","","","","","","","","","","","","","","","","","","","","","",""
"","","","","","html-slider-response","36","99660","0.0-17.0-0.6","c0030ba8-6aa7-41eb-ac56-36bbce26411d","1000","
                  <p style=""text-align: center;"">₪4
                                                <br>25%</p>
                  <p id=""wtp"" style=""text-align:center; margin-top: 0px; margin-bottom: 0px; font-size: 40px"";>&ensp;</p>","-","viewing","0","1","6C,29B,30C","","","","","","","","","","","","","","","","","","",""
"","","","","","html-slider-response","37","102611","0.0-17.0-1.6","c0030ba8-6aa7-41eb-ac56-36bbce26411d","2950","
                  <p style=""text-align: center;"">₪4
                                                <br>25%</p>
                  <p id=""wtp"" style=""text-align:center; margin-top: 0px; margin-bottom: 0px; font-size: 40px"";>מוכנים לשלם: <span id=""c_p_y""></span></p>","0","evaluation","64","1","6C,29B,30C","25","4","1","","","","","","","","","","","","","","","",""
"","","","","","html-keyboard-response","38","103557","0.0-17.0-2.6","c0030ba8-6aa7-41eb-ac56-36bbce26411d","null","<p style=""text-align: center;"">+</p>","null","fixation","","","","","","","","","","","","","","","","","","","","","",""
"","","","","","html-slider-response","39","104558","0.0-17.0-0.7","c0030ba8-6aa7-41eb-ac56-36bbce26411d","1000","
                  <p style=""text-align: center;"">₪39
                                                <br>65%</p>
                  <p id=""wtp"" style=""text-align:center; margin-top: 0px; margin-bottom: 0px; font-size: 40px"";>&ensp;</p>","-","viewing","0","16","1A,15A,26C","","","","","","","","","","","","","","","","","","",""
"","","","","","html-slider-response","40","106987","0.0-17.0-1.7","c0030ba8-6aa7-41eb-ac56-36bbce26411d","2427","
                  <p style=""text-align: center;"">₪39
                                                <br>65%</p>
                  <p id=""wtp"" style=""text-align:center; margin-top: 0px; margin-bottom: 0px; font-size: 40px"";>מוכנים לשלם: <span id=""c_p_y""></span></p>","20","evaluation","71","16","1A,15A,26C","65","39","20","","","","","","","","","","","","","","","",""
"","","","","","html-keyboard-response","41","108020","0.0-17.0-2.7","c0030ba8-6aa7-41eb-ac56-36bbce26411d","null","<p style=""text-align: center;"">+</p>","null","fixation","","","","","","","","","","","","","","","","","","","","","",""
"","","","","","html-slider-response","42","109037","0.0-17.0-0.8","c0030ba8-6aa7-41eb-ac56-36bbce26411d","1000","
                  <p style=""text-align: center;"">₪79
                                                <br>40%</p>
                  <p id=""wtp"" style=""text-align:center; margin-top: 0px; margin-bottom: 0px; font-size: 40px"";>&ensp;</p>","-","viewing","0","30","9B","","","","","","","","","","","","","","","","","","",""
"","","","","","html-slider-response","43","113043","0.0-17.0-1.8","c0030ba8-6aa7-41eb-ac56-36bbce26411d","null","
                  <p style=""text-align: center;"">₪79
                                                <br>40%</p>
                  <p id=""wtp"" style=""text-align:center; margin-top: 0px; margin-bottom: 0px; font-size: 40px"";>מוכנים לשלם: <span id=""c_p_y""></span></p>","null","evaluation","11","30","9B","40","79","8","","","","","","","","","","","","","","","",""
"","","","","","html-keyboard-response","44","113667","0.0-17.0-2.8","c0030ba8-6aa7-41eb-ac56-36bbce26411d","null","<p style=""text-align: center;"">+</p>","null","fixation","","","","","","","","","","","","","","","","","","","","","",""
"","","","","","html-slider-response","45","114669","0.0-17.0-0.9","c0030ba8-6aa7-41eb-ac56-36bbce26411d","1000","
                  <p style=""text-align: center;"">₪18
                                                <br>50%</p>
                  <p id=""wtp"" style=""text-align:center; margin-top: 0px; margin-bottom: 0px; font-size: 40px"";>&ensp;</p>","-","viewing","0","10","2C,16C,22B,28A","","","","","","","","","","","","","","","","","","",""
"","","","","","html-slider-response","46","116667","0.0-17.0-1.9","c0030ba8-6aa7-41eb-ac56-36bbce26411d","1996","
                  <p style=""text-align: center;"">₪18
                                                <br>50%</p>
                  <p id=""wtp"" style=""text-align:center; margin-top: 0px; margin-bottom: 0px; font-size: 40px"";>מוכנים לשלם: <span id=""c_p_y""></span></p>","21","evaluation","9","10","2C,16C,22B,28A","50","18","21","","","","","","","","","","","","","","","",""
"","","","","","html-keyboard-response","47","117432","0.0-17.0-2.9","c0030ba8-6aa7-41eb-ac56-36bbce26411d","null","<p style=""text-align: center;"">+</p>","null","fixation","","","","","","","","","","","","","","","","","","","","","",""
"","","","","","html-slider-response","48","118434","0.0-17.0-0.10","c0030ba8-6aa7-41eb-ac56-36bbce26411d","1000","
                  <p style=""text-align: center;"">₪61
                                                <br>45%</p>
                  <p id=""wtp"" style=""text-align:center; margin-top: 0px; margin-bottom: 0px; font-size: 40px"";>&ensp;</p>","-","viewing","0","22","10A,11A","","","","","","","","","","","","","","","","","","",""
"","","","","","html-slider-response","49","120283","0.0-17.0-1.10","c0030ba8-6aa7-41eb-ac56-36bbce26411d","1848","
                  <p style=""text-align: center;"">₪61
                                                <br>45%</p>
                  <p id=""wtp"" style=""text-align:center; margin-top: 0px; margin-bottom: 0px; font-size: 40px"";>מוכנים לשלם: <span id=""c_p_y""></span></p>","26","evaluation","41","22","10A,11A","45","61","26","","","","","","","","","","","","","","","",""
"","","","","","html-keyboard-response","50","120956","0.0-17.0-2.10","c0030ba8-6aa7-41eb-ac56-36bbce26411d","null","<p style=""text-align: center;"">+</p>","null","fixation","","","","","","","","","","","","","","","","","","","","","",""
"","","","","","html-slider-response","51","121970","0.0-17.0-0.11","c0030ba8-6aa7-41eb-ac56-36bbce26411d","1000","
                  <p style=""text-align: center;"">₪11
                                                <br>20%</p>
                  <p id=""wtp"" style=""text-align:center; margin-top: 0px; margin-bottom: 0px; font-size: 40px"";>&ensp;</p>","-","viewing","0","4","12C,17C,23C,28C","","","","","","","","","","","","","","","","","","",""
"","","","","","html-slider-response","52","125972","0.0-17.0-1.11","c0030ba8-6aa7-41eb-ac56-36bbce26411d","null","
                  <p style=""text-align: center;"">₪11
                                                <br>20%</p>
                  <p id=""wtp"" style=""text-align:center; margin-top: 0px; margin-bottom: 0px; font-size: 40px"";>מוכנים לשלם: <span id=""c_p_y""></span></p>","null","evaluation","5","4","12C,17C,23C,28C","20","11","11","","","","","","","","","","","","","","","",""
"","","","","","html-keyboard-response","53","126630","0.0-17.0-2.11","c0030ba8-6aa7-41eb-ac56-36bbce26411d","null","<p style=""text-align: center;"">+</p>","null","fixation","","","","","","","","","","","","","","","","","","","","","",""
"","","","","","html-slider-response","54","127638","0.0-17.0-0.12","c0030ba8-6aa7-41eb-ac56-36bbce26411d","1000","
                  <p style=""text-align: center;"">₪71
                                                <br>75%</p>
                  <p id=""wtp"" style=""text-align:center; margin-top: 0px; margin-bottom: 0px; font-size: 40px"";>&ensp;</p>","-","viewing","0","28","8B","","","","","","","","","","","","","","","","","","",""
"","","","","","html-slider-response","55","128995","0.0-17.0-1.12","c0030ba8-6aa7-41eb-ac56-36bbce26411d","1356","
                  <p style=""text-align: center;"">₪71
                                                <br>75%</p>
                  <p id=""wtp"" style=""text-align:center; margin-top: 0px; margin-bottom: 0px; font-size: 40px"";>מוכנים לשלם: <span id=""c_p_y""></span></p>","77","evaluation","66","28","8B","75","71","76","","","","","","","","","","","","","","","",""
"","","","","","html-keyboard-response","56","129593","0.0-17.0-2.12","c0030ba8-6aa7-41eb-ac56-36bbce26411d","null","<p style=""text-align: center;"">+</p>","null","fixation","","","","","","","","","","","","","","","","","","","","","",""
"","","","","","html-slider-response","57","130595","0.0-17.0-0.13","c0030ba8-6aa7-41eb-ac56-36bbce26411d","1000","
                  <p style=""text-align: center;"">₪79
                                                <br>65%</p>
                  <p id=""wtp"" style=""text-align:center; margin-top: 0px; margin-bottom: 0px; font-size: 40px"";>&ensp;</p>","-","viewing","0","31","8A","","","","","","","","","","","","","","","","","","",""
"","","","","","html-slider-response","58","132116","0.0-17.0-1.13","c0030ba8-6aa7-41eb-ac56-36bbce26411d","1519","
                  <p style=""text-align: center;"">₪79
                                                <br>65%</p>
                  <p id=""wtp"" style=""text-align:center; margin-top: 0px; margin-bottom: 0px; font-size: 40px"";>מוכנים לשלם: <span id=""c_p_y""></span></p>","61","evaluation","66","31","8A","65","79","61","","","","","","","","","","","","","","","",""
"","","","","","html-keyboard-response","59","133522","0.0-17.0-2.13","c0030ba8-6aa7-41eb-ac56-36bbce26411d","null","<p style=""text-align: center;"">+</p>","null","fixation","","","","","","","","","","","","","","","","","","","","","",""
"","","","","","html-slider-response","60","134526","0.0-17.0-0.14","c0030ba8-6aa7-41eb-ac56-36bbce26411d","1000","
                  <p style=""text-align: center;"">₪39
                                                <br>60%</p>
                  <p id=""wtp"" style=""text-align:center; margin-top: 0px; margin-bottom: 0px; font-size: 40px"";>&ensp;</p>","-","viewing","0","15","9C,25B","","","","","","","","","","","","","","","","","","",""
"","","","","","html-slider-response","61","136692","0.0-17.0-1.14","c0030ba8-6aa7-41eb-ac56-36bbce26411d","2165","
                  <p style=""text-align: center;"">₪39
                                                <br>60%</p>
                  <p id=""wtp"" style=""text-align:center; margin-top: 0px; margin-bottom: 0px; font-size: 40px"";>מוכנים לשלם: <span id=""c_p_y""></span></p>","43","evaluation","8","15","9C,25B","60","39","43","","","","","","","","","","","","","","","",""
"","","","","","html-keyboard-response","62","138042","0.0-17.0-2.14","c0030ba8-6aa7-41eb-ac56-36bbce26411d","null","<p style=""text-align: center;"">+</p>","null","fixation","","","","","","","","","","","","","","","","","","","","","",""
"","","","","","html-slider-response","63","139044","0.0-17.0-0.15","c0030ba8-6aa7-41eb-ac56-36bbce26411d","1000","
                  <p style=""text-align: center;"">₪76
                                                <br>65%</p>
                  <p id=""wtp"" style=""text-align:center; margin-top: 0px; margin-bottom: 0px; font-size: 40px"";>&ensp;</p>","-","viewing","0","29","8C,19A,24B","","","","","","","","","","","","","","","","","","",""
"","","","","","html-slider-response","64","139883","0.0-17.0-1.15","c0030ba8-6aa7-41eb-ac56-36bbce26411d","838","
                  <p style=""text-align: center;"">₪76
                                                <br>65%</p>
                  <p id=""wtp"" style=""text-align:center; margin-top: 0px; margin-bottom: 0px; font-size: 40px"";>מוכנים לשלם: <span id=""c_p_y""></span></p>","61","evaluation","51","29","8C,19A,24B","65","76","61","","","","","","","","","","","","","","","",""
"","","","","","html-keyboard-response","65","141081","0.0-17.0-2.15","c0030ba8-6aa7-41eb-ac56-36bbce26411d","null","<p style=""text-align: center;"">+</p>","null","fixation","","","","","","","","","","","","","","","","","","","","","",""
"","","","","","html-slider-response","66","142090","0.0-17.0-0.16","c0030ba8-6aa7-41eb-ac56-36bbce26411d","1000","
                  <p style=""text-align: center;"">₪36
                                                <br>30%</p>
                  <p id=""wtp"" style=""text-align:center; margin-top: 0px; margin-bottom: 0px; font-size: 40px"";>&ensp;</p>","-","viewing","0","11","3C,20A,22A","","","","","","","","","","","","","","","","","","",""
"","","","","","html-slider-response","67","143452","0.0-17.0-1.16","c0030ba8-6aa7-41eb-ac56-36bbce26411d","1360","
                  <p style=""text-align: center;"">₪36
                                                <br>30%</p>
                  <p id=""wtp"" style=""text-align:center; margin-top: 0px; margin-bottom: 0px; font-size: 40px"";>מוכנים לשלם: <span id=""c_p_y""></span></p>","41","evaluation","67","11","3C,20A,22A","30","36","41","","","","","","","","","","","","","","","",""
"","","","","","html-keyboard-response","68","144069","0.0-17.0-2.16","c0030ba8-6aa7-41eb-ac56-36bbce26411d","null","<p style=""text-align: center;"">+</p>","null","fixation","","","","","","","","","","","","","","","","","","","","","",""
"","","","","","html-slider-response","69","145070","0.0-17.0-0.17","c0030ba8-6aa7-41eb-ac56-36bbce26411d","1000","
                  <p style=""text-align: center;"">₪58
                                                <br>45%</p>
                  <p id=""wtp"" style=""text-align:center; margin-top: 0px; margin-bottom: 0px; font-size: 40px"";>&ensp;</p>","-","viewing","0","21","11C,18C,25A","","","","","","","","","","","","","","","","","","",""
"","","","","","html-slider-response","70","146667","0.0-17.0-1.17","c0030ba8-6aa7-41eb-ac56-36bbce26411d","1596","
                  <p style=""text-align: center;"">₪58
                                                <br>45%</p>
                  <p id=""wtp"" style=""text-align:center; margin-top: 0px; margin-bottom: 0px; font-size: 40px"";>מוכנים לשלם: <span id=""c_p_y""></span></p>","40","evaluation","48","21","11C,18C,25A","45","58","40","","","","","","","","","","","","","","","",""
"","","","","","html-keyboard-response","71","147356","0.0-17.0-2.17","c0030ba8-6aa7-41eb-ac56-36bbce26411d","null","<p style=""text-align: center;"">+</p>","null","fixation","","","","","","","","","","","","","","","","","","","","","",""
"","","","","","html-slider-response","72","148363","0.0-17.0-0.18","c0030ba8-6aa7-41eb-ac56-36bbce26411d","1000","
                  <p style=""text-align: center;"">₪43
                                                <br>60%</p>
                  <p id=""wtp"" style=""text-align:center; margin-top: 0px; margin-bottom: 0px; font-size: 40px"";>&ensp;</p>","-","viewing","0","17","2A,7A,9A,15B","","","","","","","","","","","","","","","","","","",""
"","","","","","html-slider-response","73","149363","0.0-17.0-1.18","c0030ba8-6aa7-41eb-ac56-36bbce26411d","1000","
                  <p style=""text-align: center;"">₪43
                                                <br>60%</p>
                  <p id=""wtp"" style=""text-align:center; margin-top: 0px; margin-bottom: 0px; font-size: 40px"";>מוכנים לשלם: <span id=""c_p_y""></span></p>","51","evaluation","20","17","2A,7A,9A,15B","60","43","50","","","","","","","","","","","","","","","",""
"","","","","","html-keyboard-response","74","150197","0.0-17.0-2.18","c0030ba8-6aa7-41eb-ac56-36bbce26411d","null","<p style=""text-align: center;"">+</p>","null","fixation","","","","","","","","","","","","","","","","","","","","","",""
"","","","","","html-slider-response","75","151202","0.0-17.0-0.19","c0030ba8-6aa7-41eb-ac56-36bbce26411d","1000","
                  <p style=""text-align: center;"">₪36
                                                <br>75%</p>
                  <p id=""wtp"" style=""text-align:center; margin-top: 0px; margin-bottom: 0px; font-size: 40px"";>&ensp;</p>","-","viewing","0","14","4B,5A,13B,16B","","","","","","","","","","","","","","","","","","",""
"","","","","","html-slider-response","76","153308","0.0-17.0-1.19","c0030ba8-6aa7-41eb-ac56-36bbce26411d","2104","
                  <p style=""text-align: center;"">₪36
                                                <br>75%</p>
                  <p id=""wtp"" style=""text-align:center; margin-top: 0px; margin-bottom: 0px; font-size: 40px"";>מוכנים לשלם: <span id=""c_p_y""></span></p>","41","evaluation","65","14","4B,5A,13B,16B","75","36","41","","","","","","","","","","","","","","","",""
"","","","","","html-keyboard-response","77","154072","0.0-17.0-2.19","c0030ba8-6aa7-41eb-ac56-36bbce26411d","null","<p style=""text-align: center;"">+</p>","null","fixation","","","","","","","","","","","","","","","","","","","","","",""
"","","","","","html-slider-response","78","155074","0.0-17.0-0.20","c0030ba8-6aa7-41eb-ac56-36bbce26411d","1000","
                  <p style=""text-align: center;"">₪58
                                                <br>30%</p>
                  <p id=""wtp"" style=""text-align:center; margin-top: 0px; margin-bottom: 0px; font-size: 40px"";>&ensp;</p>","-","viewing","0","19","13C,30A","","","","","","","","","","","","","","","","","","",""
"","","","","","html-slider-response","79","156059","0.0-17.0-1.20","c0030ba8-6aa7-41eb-ac56-36bbce26411d","984","
                  <p style=""text-align: center;"">₪58
                                                <br>30%</p>
                  <p id=""wtp"" style=""text-align:center; margin-top: 0px; margin-bottom: 0px; font-size: 40px"";>מוכנים לשלם: <span id=""c_p_y""></span></p>","27","evaluation","34","19","13C,30A","30","58","27","","","","","","","","","","","","","","","",""
"","","","","","html-keyboard-response","80","156677","0.0-17.0-2.20","c0030ba8-6aa7-41eb-ac56-36bbce26411d","null","<p style=""text-align: center;"">+</p>","null","fixation","","","","","","","","","","","","","","","","","","","","","",""
"","","","","","html-slider-response","81","157679","0.0-17.0-0.21","c0030ba8-6aa7-41eb-ac56-36bbce26411d","1000","
                  <p style=""text-align: center;"">₪4
                                                <br>75%</p>
                  <p id=""wtp"" style=""text-align:center; margin-top: 0px; margin-bottom: 0px; font-size: 40px"";>&ensp;</p>","-","viewing","0","3","12B,20B,23B,27C,29C","","","","","","","","","","","","","","","","","","",""
"","","","","","html-slider-response","82","158995","0.0-17.0-1.21","c0030ba8-6aa7-41eb-ac56-36bbce26411d","1315","
                  <p style=""text-align: center;"">₪4
                                                <br>75%</p>
                  <p id=""wtp"" style=""text-align:center; margin-top: 0px; margin-bottom: 0px; font-size: 40px"";>מוכנים לשלם: <span id=""c_p_y""></span></p>","0","evaluation","23","3","12B,20B,23B,27C,29C","75","4","0","","","","","","","","","","","","","","","",""
"","","","","","html-keyboard-response","83","159636","0.0-17.0-2.21","c0030ba8-6aa7-41eb-ac56-36bbce26411d","null","<p style=""text-align: center;"">+</p>","null","fixation","","","","","","","","","","","","","","","","","","","","","",""
"","","","","","html-slider-response","84","160644","0.0-17.0-0.22","c0030ba8-6aa7-41eb-ac56-36bbce26411d","1000","
                  <p style=""text-align: center;"">₪61
                                                <br>55%</p>
                  <p id=""wtp"" style=""text-align:center; margin-top: 0px; margin-bottom: 0px; font-size: 40px"";>&ensp;</p>","-","viewing","0","23","7B,26B","","","","","","","","","","","","","","","","","","",""
"","","","","","html-slider-response","85","162275","0.0-17.0-1.22","c0030ba8-6aa7-41eb-ac56-36bbce26411d","1630","
                  <p style=""text-align: center;"">₪61
                                                <br>55%</p>
                  <p id=""wtp"" style=""text-align:center; margin-top: 0px; margin-bottom: 0px; font-size: 40px"";>מוכנים לשלם: <span id=""c_p_y""></span></p>","56","evaluation","61","23","7B,26B","55","61","56","","","","","","","","","","","","","","","",""
"","","","","","html-keyboard-response","86","163043","0.0-17.0-2.22","c0030ba8-6aa7-41eb-ac56-36bbce26411d","null","<p style=""text-align: center;"">+</p>","null","fixation","","","","","","","","","","","","","","","","","","","","","",""
"","","","","","html-slider-response","87","164045","0.0-17.0-0.23","c0030ba8-6aa7-41eb-ac56-36bbce26411d","1000","
                  <p style=""text-align: center;"">₪71
                                                <br>55%</p>
                  <p id=""wtp"" style=""text-align:center; margin-top: 0px; margin-bottom: 0px; font-size: 40px"";>&ensp;</p>","-","viewing","0","27","5B,18A","","","","","","","","","","","","","","","","","","",""
"","","","","","html-slider-response","88","164667","0.0-17.0-1.23","c0030ba8-6aa7-41eb-ac56-36bbce26411d","621","
                  <p style=""text-align: center;"">₪71
                                                <br>55%</p>
                  <p id=""wtp"" style=""text-align:center; margin-top: 0px; margin-bottom: 0px; font-size: 40px"";>מוכנים לשלם: <span id=""c_p_y""></span></p>","58","evaluation","62","27","5B,18A","55","71","58","","","","","","","","","","","","","","","",""
"","","","","","html-keyboard-response","89","165340","0.0-17.0-2.23","c0030ba8-6aa7-41eb-ac56-36bbce26411d","null","<p style=""text-align: center;"">+</p>","null","fixation","","","","","","","","","","","","","","","","","","","","","",""
"","","","","","html-slider-response","90","166349","0.0-17.0-0.24","c0030ba8-6aa7-41eb-ac56-36bbce26411d","1000","
                  <p style=""text-align: center;"">₪36
                                                <br>70%</p>
                  <p id=""wtp"" style=""text-align:center; margin-top: 0px; margin-bottom: 0px; font-size: 40px"";>&ensp;</p>","-","viewing","0","13","3A,5C,10B","","","","","","","","","","","","","","","","","","",""
"","","","","","html-slider-response","91","168308","0.0-17.0-1.24","c0030ba8-6aa7-41eb-ac56-36bbce26411d","1956","
                  <p style=""text-align: center;"">₪36
                                                <br>70%</p>
                  <p id=""wtp"" style=""text-align:center; margin-top: 0px; margin-bottom: 0px; font-size: 40px"";>מוכנים לשלם: <span id=""c_p_y""></span></p>","40","evaluation","41","13","3A,5C,10B","70","36","40","","","","","","","","","","","","","","","",""
"","","","","","html-keyboard-response","92","168817","0.0-17.0-2.24","c0030ba8-6aa7-41eb-ac56-36bbce26411d","null","<p style=""text-align: center;"">+</p>","null","fixation","","","","","","","","","","","","","","","","","","","","","",""
"","","","","","html-slider-response","93","169819","0.0-17.0-0.25","c0030ba8-6aa7-41eb-ac56-36bbce26411d","1000","
                  <p style=""text-align: center;"">₪71
                                                <br>45%</p>
                  <p id=""wtp"" style=""text-align:center; margin-top: 0px; margin-bottom: 0px; font-size: 40px"";>&ensp;</p>","-","viewing","0","26","2B,16A","","","","","","","","","","","","","","","","","","",""
"","","","","","html-slider-response","94","170947","0.0-17.0-1.25","c0030ba8-6aa7-41eb-ac56-36bbce26411d","1127","
                  <p style=""text-align: center;"">₪71
                                                <br>45%</p>
                  <p id=""wtp"" style=""text-align:center; margin-top: 0px; margin-bottom: 0px; font-size: 40px"";>מוכנים לשלם: <span id=""c_p_y""></span></p>","50","evaluation","73","26","2B,16A","45","71","49","","","","","","","","","","","","","","","",""
"","","","","","html-keyboard-response","95","171659","0.0-17.0-2.25","c0030ba8-6aa7-41eb-ac56-36bbce26411d","null","<p style=""text-align: center;"">+</p>","null","fixation","","","","","","","","","","","","","","","","","","","","","",""
"","","","","","html-slider-response","96","172668","0.0-17.0-0.26","c0030ba8-6aa7-41eb-ac56-36bbce26411d","1000","
                  <p style=""text-align: center;"">₪11
                                                <br>45%</p>
                  <p id=""wtp"" style=""text-align:center; margin-top: 0px; margin-bottom: 0px; font-size: 40px"";>&ensp;</p>","-","viewing","0","6","14B,21C,25C","","","","","","","","","","","","","","","","","","",""
"","","","","","html-slider-response","97","173644","0.0-17.0-1.26","c0030ba8-6aa7-41eb-ac56-36bbce26411d","975","
                  <p style=""text-align: center;"">₪11
                                                <br>45%</p>
                  <p id=""wtp"" style=""text-align:center; margin-top: 0px; margin-bottom: 0px; font-size: 40px"";>מוכנים לשלם: <span id=""c_p_y""></span></p>","39","evaluation","33","6","14B,21C,25C","45","11","39","","","","","","","","","","","","","","","",""
"","","","","","html-keyboard-response","98","174307","0.0-17.0-2.26","c0030ba8-6aa7-41eb-ac56-36bbce26411d","null","<p style=""text-align: center;"">+</p>","null","fixation","","","","","","","","","","","","","","","","","","","","","",""
"","","","","","html-slider-response","99","175317","0.0-17.0-0.27","c0030ba8-6aa7-41eb-ac56-36bbce26411d","1000","
                  <p style=""text-align: center;"">₪16
                                                <br>20%</p>
                  <p id=""wtp"" style=""text-align:center; margin-top: 0px; margin-bottom: 0px; font-size: 40px"";>&ensp;</p>","-","viewing","0","8","14C,17A,20C,27A","","","","","","","","","","","","","","","","","","",""
"","","","","","html-slider-response","100","177100","0.0-17.0-1.27","c0030ba8-6aa7-41eb-ac56-36bbce26411d","1782","
                  <p style=""text-align: center;"">₪16
                                                <br>20%</p>
                  <p id=""wtp"" style=""text-align:center; margin-top: 0px; margin-bottom: 0px; font-size: 40px"";>מוכנים לשלם: <span id=""c_p_y""></span></p>","20","evaluation","4","8","14C,17A,20C,27A","20","16","20","","","","","","","","","","","","","","","",""
"","","","","","html-keyboard-response","101","178024","0.0-17.0-2.27","c0030ba8-6aa7-41eb-ac56-36bbce26411d","null","<p style=""text-align: center;"">+</p>","null","fixation","","","","","","","","","","","","","","","","","","","","","",""
"","","","","","html-slider-response","102","179025","0.0-17.0-0.28","c0030ba8-6aa7-41eb-ac56-36bbce26411d","1000","
                  <p style=""text-align: center;"">₪64
                                                <br>50%</p>
                  <p id=""wtp"" style=""text-align:center; margin-top: 0px; margin-bottom: 0px; font-size: 40px"";>&ensp;</p>","-","viewing","0","25","1B,3B,4A","","","","","","","","","","","","","","","","","","",""
"","","","","","html-slider-response","103","180683","0.0-17.0-1.28","c0030ba8-6aa7-41eb-ac56-36bbce26411d","1656","
                  <p style=""text-align: center;"">₪64
                                                <br>50%</p>
                  <p id=""wtp"" style=""text-align:center; margin-top: 0px; margin-bottom: 0px; font-size: 40px"";>מוכנים לשלם: <span id=""c_p_y""></span></p>","53","evaluation","46","25","1B,3B,4A","50","64","53","","","","","","","","","","","","","","","",""
"","","","","","html-keyboard-response","104","182174","0.0-17.0-2.28","c0030ba8-6aa7-41eb-ac56-36bbce26411d","null","<p style=""text-align: center;"">+</p>","null","fixation","","","","","","","","","","","","","","","","","","","","","",""
"","","","","","html-slider-response","105","183183","0.0-17.0-0.29","c0030ba8-6aa7-41eb-ac56-36bbce26411d","1000","
                  <p style=""text-align: center;"">₪36
                                                <br>60%</p>
                  <p id=""wtp"" style=""text-align:center; margin-top: 0px; margin-bottom: 0px; font-size: 40px"";>&ensp;</p>","-","viewing","0","12","1C,7C,15C","","","","","","","","","","","","","","","","","","",""
"","","","","","html-slider-response","106","185099","0.0-17.0-1.29","c0030ba8-6aa7-41eb-ac56-36bbce26411d","1916","
                  <p style=""text-align: center;"">₪36
                                                <br>60%</p>
                  <p id=""wtp"" style=""text-align:center; margin-top: 0px; margin-bottom: 0px; font-size: 40px"";>מוכנים לשלם: <span id=""c_p_y""></span></p>","26","evaluation","68","12","1C,7C,15C","60","36","26","","","","","","","","","","","","","","","",""
"","","","","","html-keyboard-response","107","186115","0.0-17.0-2.29","c0030ba8-6aa7-41eb-ac56-36bbce26411d","null","<p style=""text-align: center;"">+</p>","null","fixation","","","","","","","","","","","","","","","","","","","","","",""
"","","","","","html-slider-response","108","187131","0.0-17.0-0.30","c0030ba8-6aa7-41eb-ac56-36bbce26411d","1000","
                  <p style=""text-align: center;"">₪64
                                                <br>25%</p>
                  <p id=""wtp"" style=""text-align:center; margin-top: 0px; margin-bottom: 0px; font-size: 40px"";>&ensp;</p>","-","viewing","0","24","6A,21A","","","","","","","","","","","","","","","","","","",""
"","","","","","html-slider-response","109","189259","0.0-17.0-1.30","c0030ba8-6aa7-41eb-ac56-36bbce26411d","2127","
                  <p style=""text-align: center;"">₪64
                                                <br>25%</p>
                  <p id=""wtp"" style=""text-align:center; margin-top: 0px; margin-bottom: 0px; font-size: 40px"";>מוכנים לשלם: <span id=""c_p_y""></span></p>","26","evaluation","78","24","6A,21A","25","64","26","","","","","","","","","","","","","","","",""
"","","","","","html-keyboard-response","110","190115","0.0-17.0-2.30","c0030ba8-6aa7-41eb-ac56-36bbce26411d","null","<p style=""text-align: center;"">+</p>","null","fixation","","","","","","","","","","","","","","","","","","","","","",""
"","","","","","html-keyboard-response","111","191116","0.0-18.0","c0030ba8-6aa7-41eb-ac56-36bbce26411d","null","<p style=""text-align: center;"">+</p>","null","fixation","","","","","","","","","","","","","","","","","","","","","",""
"","","","","","html-keyboard-response","112","192531","0.0-19.0","c0030ba8-6aa7-41eb-ac56-36bbce26411d","null","<p>הפסקה.
          <br>לחצו כדי להמשיך.</p>","1","scan_wait","","","","","","","","","","","","","","","","","","","","","",""
"","","","","","html-keyboard-response","113","193547","0.0-20.0","c0030ba8-6aa7-41eb-ac56-36bbce26411d","null","<p style=""text-align: center;"">+</p>","null","fixation","","","","","","","","","","","","","","","","","","","","","",""
"","","","","","html-slider-response","114","194550","0.0-21.0-0.0","c0030ba8-6aa7-41eb-ac56-36bbce26411d","1000","
                  <p style=""text-align: center;"">₪4
                                                <br>25%</p>
                  <p id=""wtp"" style=""text-align:center; margin-top: 0px; margin-bottom: 0px; font-size: 40px"";>&ensp;</p>","-","viewing","0","1","6C,29B,30C","","","","","","","","","","","","","","","","","","",""
"","","","","","html-slider-response","115","195659","0.0-21.0-1.0","c0030ba8-6aa7-41eb-ac56-36bbce26411d","1108","
                  <p style=""text-align: center;"">₪4
                                                <br>25%</p>
                  <p id=""wtp"" style=""text-align:center; margin-top: 0px; margin-bottom: 0px; font-size: 40px"";>מוכנים לשלם: <span id=""c_p_y""></span></p>","0","evaluation","43","1","6C,29B,30C","25","4","0","","","","","","","","","","","","","","","",""
"","","","","","html-keyboard-response","116","196933","0.0-21.0-2.0","c0030ba8-6aa7-41eb-ac56-36bbce26411d","null","<p style=""text-align: center;"">+</p>","null","fixation","","","","","","","","","","","","","","","","","","","","","",""
"","","","","","html-slider-response","117","197936","0.0-21.0-0.1","c0030ba8-6aa7-41eb-ac56-36bbce26411d","1000","
                  <p style=""text-align: center;"">₪39
                                                <br>60%</p>
                  <p id=""wtp"" style=""text-align:center; margin-top: 0px; margin-bottom: 0px; font-size: 40px"";>&ensp;</p>","-","viewing","0","15","9C,25B","","","","","","","","","","","","","","","","","","",""
"","","","","","html-slider-response","118","198755","0.0-21.0-1.1","c0030ba8-6aa7-41eb-ac56-36bbce26411d","818","
                  <p style=""text-align: center;"">₪39
                                                <br>60%</p>
                  <p id=""wtp"" style=""text-align:center; margin-top: 0px; margin-bottom: 0px; font-size: 40px"";>מוכנים לשלם: <span id=""c_p_y""></span></p>","34","evaluation","57","15","9C,25B","60","39","34","","","","","","","","","","","","","","","",""
"","","","","","html-keyboard-response","119","199363","0.0-21.0-2.1","c0030ba8-6aa7-41eb-ac56-36bbce26411d","null","<p style=""text-align: center;"">+</p>","null","fixation","","","","","","","","","","","","","","","","","","","","","",""
"","","","","","html-slider-response","120","200366","0.0-21.0-0.2","c0030ba8-6aa7-41eb-ac56-36bbce26411d","1000","
                  <p style=""text-align: center;"">₪36
                                                <br>30%</p>
                  <p id=""wtp"" style=""text-align:center; margin-top: 0px; margin-bottom: 0px; font-size: 40px"";>&ensp;</p>","-","viewing","0","11","3C,20A,22A","","","","","","","","","","","","","","","","","","",""
"","","","","","html-slider-response","121","202188","0.0-21.0-1.2","c0030ba8-6aa7-41eb-ac56-36bbce26411d","1821","
                  <p style=""text-align: center;"">₪36
                                                <br>30%</p>
                  <p id=""wtp"" style=""text-align:center; margin-top: 0px; margin-bottom: 0px; font-size: 40px"";>מוכנים לשלם: <span id=""c_p_y""></span></p>","40","evaluation","41","11","3C,20A,22A","30","36","40","","","","","","","","","","","","","","","",""
"","","","","","html-keyboard-response","122","202714","0.0-21.0-2.2","c0030ba8-6aa7-41eb-ac56-36bbce26411d","null","<p style=""text-align: center;"">+</p>","null","fixation","","","","","","","","","","","","","","","","","","","","","",""
"","","","","","html-slider-response","123","203726","0.0-21.0-0.3","c0030ba8-6aa7-41eb-ac56-36bbce26411d","1000","
                  <p style=""text-align: center;"">₪18
                                                <br>25%</p>
                  <p id=""wtp"" style=""text-align:center; margin-top: 0px; margin-bottom: 0px; font-size: 40px"";>&ensp;</p>","-","viewing","0","9","14A,23A","","","","","","","","","","","","","","","","","","",""
"","","","","","html-slider-response","124","205963","0.0-21.0-1.3","c0030ba8-6aa7-41eb-ac56-36bbce26411d","2236","
                  <p style=""text-align: center;"">₪18
                                                <br>25%</p>
                  <p id=""wtp"" style=""text-align:center; margin-top: 0px; margin-bottom: 0px; font-size: 40px"";>מוכנים לשלם: <span id=""c_p_y""></span></p>","11","evaluation","14","9","14A,23A","25","18","11","","","","","","","","","","","","","","","",""
"","","","","","html-keyboard-response","125","207141","0.0-21.0-2.3","c0030ba8-6aa7-41eb-ac56-36bbce26411d","null","<p style=""text-align: center;"">+</p>","null","fixation","","","","","","","","","","","","","","","","","","","","","",""
"","","","","","html-slider-response","126","208142","0.0-21.0-0.4","c0030ba8-6aa7-41eb-ac56-36bbce26411d","1000","
                  <p style=""text-align: center;"">₪71
                                                <br>55%</p>
                  <p id=""wtp"" style=""text-align:center; margin-top: 0px; margin-bottom: 0px; font-size: 40px"";>&ensp;</p>","-","viewing","0","27","5B,18A","","","","","","","","","","","","","","","","","","",""
"","","","","","html-slider-response","127","210835","0.0-21.0-1.4","c0030ba8-6aa7-41eb-ac56-36bbce26411d","2692","
                  <p style=""text-align: center;"">₪71
                                                <br>55%</p>
                  <p id=""wtp"" style=""text-align:center; margin-top: 0px; margin-bottom: 0px; font-size: 40px"";>מוכנים לשלם: <span id=""c_p_y""></span></p>","40","evaluation","8","27","5B,18A","55","71","40","","","","","","","","","","","","","","","",""
"","","","","","html-keyboard-response","128","211909","0.0-21.0-2.4","c0030ba8-6aa7-41eb-ac56-36bbce26411d","null","<p style=""text-align: center;"">+</p>","null","fixation","","","","","","","","","","","","","","","","","","","","","",""
"","","","","","html-slider-response","129","212919","0.0-21.0-0.5","c0030ba8-6aa7-41eb-ac56-36bbce26411d","1000","
                  <p style=""text-align: center;"">₪79
                                                <br>65%</p>
                  <p id=""wtp"" style=""text-align:center; margin-top: 0px; margin-bottom: 0px; font-size: 40px"";>&ensp;</p>","-","viewing","0","31","8A","","","","","","","","","","","","","","","","","","",""
"","","","","","html-slider-response","130","215491","0.0-21.0-1.5","c0030ba8-6aa7-41eb-ac56-36bbce26411d","2571","
                  <p style=""text-align: center;"">₪79
                                                <br>65%</p>
                  <p id=""wtp"" style=""text-align:center; margin-top: 0px; margin-bottom: 0px; font-size: 40px"";>מוכנים לשלם: <span id=""c_p_y""></span></p>","67","evaluation","36","31","8A","65","79","66","","","","","","","","","","","","","","","",""
"","","","","","html-keyboard-response","131","216910","0.0-21.0-2.5","c0030ba8-6aa7-41eb-ac56-36bbce26411d","null","<p style=""text-align: center;"">+</p>","null","fixation","","","","","","","","","","","","","","","","","","","","","",""
"","","","","","html-slider-response","132","217911","0.0-21.0-0.6","c0030ba8-6aa7-41eb-ac56-36bbce26411d","1000","
                  <p style=""text-align: center;"">₪61
                                                <br>55%</p>
                  <p id=""wtp"" style=""text-align:center; margin-top: 0px; margin-bottom: 0px; font-size: 40px"";>&ensp;</p>","-","viewing","0","23","7B,26B","","","","","","","","","","","","","","","","","","",""
"","","","","","html-slider-response","133","220196","0.0-21.0-1.6","c0030ba8-6aa7-41eb-ac56-36bbce26411d","2283","
                  <p style=""text-align: center;"">₪61
                                                <br>55%</p>
                  <p id=""wtp"" style=""text-align:center; margin-top: 0px; margin-bottom: 0px; font-size: 40px"";>מוכנים לשלם: <span id=""c_p_y""></span></p>","51","evaluation","11","23","7B,26B","55","61","51","","","","","","","","","","","","","","","",""
"","","","","","html-keyboard-response","134","221301","0.0-21.0-2.6","c0030ba8-6aa7-41eb-ac56-36bbce26411d","null","<p style=""text-align: center;"">+</p>","null","fixation","","","","","","","","","","","","","","","","","","","","","",""
"","","","","","html-slider-response","135","222314","0.0-21.0-0.7","c0030ba8-6aa7-41eb-ac56-36bbce26411d","1000","
                  <p style=""text-align: center;"">₪39
                                                <br>65%</p>
                  <p id=""wtp"" style=""text-align:center; margin-top: 0px; margin-bottom: 0px; font-size: 40px"";>&ensp;</p>","-","viewing","0","16","1A,15A,26C","","","","","","","","","","","","","","","","","","",""
"","","","","","html-slider-response","136","224772","0.0-21.0-1.7","c0030ba8-6aa7-41eb-ac56-36bbce26411d","2456","
                  <p style=""text-align: center;"">₪39
                                                <br>65%</p>
                  <p id=""wtp"" style=""text-align:center; margin-top: 0px; margin-bottom: 0px; font-size: 40px"";>מוכנים לשלם: <span id=""c_p_y""></span></p>","36","evaluation","20","16","1A,15A,26C","65","39","36","","","","","","","","","","","","","","","",""
"","","","","","html-keyboard-response","137","226013","0.0-21.0-2.7","c0030ba8-6aa7-41eb-ac56-36bbce26411d","null","<p style=""text-align: center;"">+</p>","null","fixation","","","","","","","","","","","","","","","","","","","","","",""
"","","","","","html-slider-response","138","227019","0.0-21.0-0.8","c0030ba8-6aa7-41eb-ac56-36bbce26411d","1000","
                  <p style=""text-align: center;"">₪4
                                                <br>50%</p>
                  <p id=""wtp"" style=""text-align:center; margin-top: 0px; margin-bottom: 0px; font-size: 40px"";>&ensp;</p>","-","viewing","0","2","4C,17B","","","","","","","","","","","","","","","","","","",""
"","","","","","html-slider-response","139","228755","0.0-21.0-1.8","c0030ba8-6aa7-41eb-ac56-36bbce26411d","1735","
                  <p style=""text-align: center;"">₪4
                                                <br>50%</p>
                  <p id=""wtp"" style=""text-align:center; margin-top: 0px; margin-bottom: 0px; font-size: 40px"";>מוכנים לשלם: <span id=""c_p_y""></span></p>","0","evaluation","62","2","4C,17B","50","4","0","","","","","","","","","","","","","","","",""
"","","","","","html-keyboard-response","140","230150","0.0-21.0-2.8","c0030ba8-6aa7-41eb-ac56-36bbce26411d","null","<p style=""text-align: center;"">+</p>","null","fixation","","","","","","","","","","","","","","","","","","","","","",""
"","","","","","html-slider-response","141","231153","0.0-21.0-0.9","c0030ba8-6aa7-41eb-ac56-36bbce26411d","1000","
                  <p style=""text-align: center;"">₪43
                                                <br>75%</p>
                  <p id=""wtp"" style=""text-align:center; margin-top: 0px; margin-bottom: 0px; font-size: 40px"";>&ensp;</p>","-","viewing","0","18","11B,19B,24A,26A","","","","","","","","","","","","","","","","","","",""
"","","","","","html-slider-response","142","234651","0.0-21.0-1.9","c0030ba8-6aa7-41eb-ac56-36bbce26411d","3498","
                  <p style=""text-align: center;"">₪43
                                                <br>75%</p>
                  <p id=""wtp"" style=""text-align:center; margin-top: 0px; margin-bottom: 0px; font-size: 40px"";>מוכנים לשלם: <span id=""c_p_y""></span></p>","40","evaluation","60","18","11B,19B,24A,26A","75","43","40","","","","","","","","","","","","","","","",""
"","","","","","html-keyboard-response","143","235419","0.0-21.0-2.9","c0030ba8-6aa7-41eb-ac56-36bbce26411d","null","<p style=""text-align: center;"">+</p>","null","fixation","","","","","","","","","","","","","","","","","","","","","",""
"","","","","","html-slider-response","144","236430","0.0-21.0-0.10","c0030ba8-6aa7-41eb-ac56-36bbce26411d","1000","
                  <p style=""text-align: center;"">₪11
                                                <br>25%</p>
                  <p id=""wtp"" style=""text-align:center; margin-top: 0px; margin-bottom: 0px; font-size: 40px"";>&ensp;</p>","-","viewing","0","5","12A,27B,28B,30B","","","","","","","","","","","","","","","","","","",""
"","","","","","html-slider-response","145","239291","0.0-21.0-1.10","c0030ba8-6aa7-41eb-ac56-36bbce26411d","2860","
                  <p style=""text-align: center;"">₪11
                                                <br>25%</p>
                  <p id=""wtp"" style=""text-align:center; margin-top: 0px; margin-bottom: 0px; font-size: 40px"";>מוכנים לשלם: <span id=""c_p_y""></span></p>","0","evaluation","5","5","12A,27B,28B,30B","25","11","0","","","","","","","","","","","","","","","",""
"","","","","","html-keyboard-response","146","240778","0.0-21.0-2.10","c0030ba8-6aa7-41eb-ac56-36bbce26411d","null","<p style=""text-align: center;"">+</p>","null","fixation","","","","","","","","","","","","","","","","","","","","","",""
"","","","","","html-slider-response","147","241780","0.0-21.0-0.11","c0030ba8-6aa7-41eb-ac56-36bbce26411d","1000","
                  <p style=""text-align: center;"">₪58
                                                <br>40%</p>
                  <p id=""wtp"" style=""text-align:center; margin-top: 0px; margin-bottom: 0px; font-size: 40px"";>&ensp;</p>","-","viewing","0","20","10C,13A,19C,21B","","","","","","","","","","","","","","","","","","",""
"","","","","","html-slider-response","148","243155","0.0-21.0-1.11","c0030ba8-6aa7-41eb-ac56-36bbce26411d","1374","
                  <p style=""text-align: center;"">₪58
                                                <br>40%</p>
                  <p id=""wtp"" style=""text-align:center; margin-top: 0px; margin-bottom: 0px; font-size: 40px"";>מוכנים לשלם: <span id=""c_p_y""></span></p>","39","evaluation","62","20","10C,13A,19C,21B","40","58","39","","","","","","","","","","","","","","","",""
"","","","","","html-keyboard-response","149","244438","0.0-21.0-2.11","c0030ba8-6aa7-41eb-ac56-36bbce26411d","null","<p style=""text-align: center;"">+</p>","null","fixation","","","","","","","","","","","","","","","","","","","","","",""
"","","","","","html-slider-response","150","245440","0.0-21.0-0.12","c0030ba8-6aa7-41eb-ac56-36bbce26411d","1000","
                  <p style=""text-align: center;"">₪11
                                                <br>45%</p>
                  <p id=""wtp"" style=""text-align:center; margin-top: 0px; margin-bottom: 0px; font-size: 40px"";>&ensp;</p>","-","viewing","0","6","14B,21C,25C","","","","","","","","","","","","","","","","","","",""
"","","","","","html-slider-response","151","246835","0.0-21.0-1.12","c0030ba8-6aa7-41eb-ac56-36bbce26411d","1394","
                  <p style=""text-align: center;"">₪11
                                                <br>45%</p>
                  <p id=""wtp"" style=""text-align:center; margin-top: 0px; margin-bottom: 0px; font-size: 40px"";>מוכנים לשלם: <span id=""c_p_y""></span></p>","1","evaluation","58","6","14B,21C,25C","45","11","2","","","","","","","","","","","","","","","",""
"","","","","","html-keyboard-response","152","248255","0.0-21.0-2.12","c0030ba8-6aa7-41eb-ac56-36bbce26411d","null","<p style=""text-align: center;"">+</p>","null","fixation","","","","","","","","","","","","","","","","","","","","","",""
"","","","","","html-slider-response","153","249260","0.0-21.0-0.13","c0030ba8-6aa7-41eb-ac56-36bbce26411d","1000","
                  <p style=""text-align: center;"">₪58
                                                <br>45%</p>
                  <p id=""wtp"" style=""text-align:center; margin-top: 0px; margin-bottom: 0px; font-size: 40px"";>&ensp;</p>","-","viewing","0","21","11C,18C,25A","","","","","","","","","","","","","","","","","","",""
"","","","","","html-slider-response","154","251371","0.0-21.0-1.13","c0030ba8-6aa7-41eb-ac56-36bbce26411d","2110","
                  <p style=""text-align: center;"">₪58
                                                <br>45%</p>
                  <p id=""wtp"" style=""text-align:center; margin-top: 0px; margin-bottom: 0px; font-size: 40px"";>מוכנים לשלם: <span id=""c_p_y""></span></p>","41","evaluation","56","21","11C,18C,25A","45","58","40","","","","","","","","","","","","","","","",""
"","","","","","html-keyboard-response","155","252819","0.0-21.0-2.13","c0030ba8-6aa7-41eb-ac56-36bbce26411d","null","<p style=""text-align: center;"">+</p>","null","fixation","","","","","","","","","","","","","","","","","","","","","",""
"","","","","","html-slider-response","156","253821","0.0-21.0-0.14","c0030ba8-6aa7-41eb-ac56-36bbce26411d","1000","
                  <p style=""text-align: center;"">₪76
                                                <br>65%</p>
                  <p id=""wtp"" style=""text-align:center; margin-top: 0px; margin-bottom: 0px; font-size: 40px"";>&ensp;</p>","-","viewing","0","29","8C,19A,24B","","","","","","","","","","","","","","","","","","",""
"","","","","","html-slider-response","157","257627","0.0-21.0-1.14","c0030ba8-6aa7-41eb-ac56-36bbce26411d","3804","
                  <p style=""text-align: center;"">₪76
                                                <br>65%</p>
                  <p id=""wtp"" style=""text-align:center; margin-top: 0px; margin-bottom: 0px; font-size: 40px"";>מוכנים לשלם: <span id=""c_p_y""></span></p>","46","evaluation","29","29","8C,19A,24B","65","76","46","","","","","","","","","","","","","","","",""
"","","","","","html-keyboard-response","158","258750","0.0-21.0-2.14","c0030ba8-6aa7-41eb-ac56-36bbce26411d","null","<p style=""text-align: center;"">+</p>","null","fixation","","","","","","","","","","","","","","","","","","","","","",""
"","","","","","html-slider-response","159","259764","0.0-21.0-0.15","c0030ba8-6aa7-41eb-ac56-36bbce26411d","1000","
                  <p style=""text-align: center;"">₪71
                                                <br>45%</p>
                  <p id=""wtp"" style=""text-align:center; margin-top: 0px; margin-bottom: 0px; font-size: 40px"";>&ensp;</p>","-","viewing","0","26","2B,16A","","","","","","","","","","","","","","","","","","",""
"","","","","","html-slider-response","160","263723","0.0-21.0-1.15","c0030ba8-6aa7-41eb-ac56-36bbce26411d","3958","
                  <p style=""text-align: center;"">₪71
                                                <br>45%</p>
                  <p id=""wtp"" style=""text-align:center; margin-top: 0px; margin-bottom: 0px; font-size: 40px"";>מוכנים לשלם: <span id=""c_p_y""></span></p>","40","evaluation","32","26","2B,16A","45","71","40","","","","","","","","","","","","","","","",""
"","","","","","html-keyboard-response","161","264982","0.0-21.0-2.15","c0030ba8-6aa7-41eb-ac56-36bbce26411d","null","<p style=""text-align: center;"">+</p>","null","fixation","","","","","","","","","","","","","","","","","","","","","",""
"","","","","","html-slider-response","162","265987","0.0-21.0-0.16","c0030ba8-6aa7-41eb-ac56-36bbce26411d","1000","
                  <p style=""text-align: center;"">₪11
                                                <br>75%</p>
                  <p id=""wtp"" style=""text-align:center; margin-top: 0px; margin-bottom: 0px; font-size: 40px"";>&ensp;</p>","-","viewing","0","7","6B,18B,22C,24C,29A","","","","","","","","","","","","","","","","","","",""
"","","","","","html-slider-response","163","266915","0.0-21.0-1.16","c0030ba8-6aa7-41eb-ac56-36bbce26411d","927","
                  <p style=""text-align: center;"">₪11
                                                <br>75%</p>
                  <p id=""wtp"" style=""text-align:center; margin-top: 0px; margin-bottom: 0px; font-size: 40px"";>מוכנים לשלם: <span id=""c_p_y""></span></p>","0","evaluation","41","7","6B,18B,22C,24C,29A","75","11","0","","","","","","","","","","","","","","","",""
"","","","","","html-keyboard-response","164","268150","0.0-21.0-2.16","c0030ba8-6aa7-41eb-ac56-36bbce26411d","null","<p style=""text-align: center;"">+</p>","null","fixation","","","","","","","","","","","","","","","","","","","","","",""
"","","","","","html-slider-response","165","269152","0.0-21.0-0.17","c0030ba8-6aa7-41eb-ac56-36bbce26411d","1000","
                  <p style=""text-align: center;"">₪64
                                                <br>50%</p>
                  <p id=""wtp"" style=""text-align:center; margin-top: 0px; margin-bottom: 0px; font-size: 40px"";>&ensp;</p>","-","viewing","0","25","1B,3B,4A","","","","","","","","","","","","","","","","","","",""
"","","","","","html-slider-response","166","270427","0.0-21.0-1.17","c0030ba8-6aa7-41eb-ac56-36bbce26411d","1274","
                  <p style=""text-align: center;"">₪64
                                                <br>50%</p>
                  <p id=""wtp"" style=""text-align:center; margin-top: 0px; margin-bottom: 0px; font-size: 40px"";>מוכנים לשלם: <span id=""c_p_y""></span></p>","40","evaluation","69","25","1B,3B,4A","50","64","40","","","","","","","","","","","","","","","",""
"","","","","","html-keyboard-response","167","271010","0.0-21.0-2.17","c0030ba8-6aa7-41eb-ac56-36bbce26411d","null","<p style=""text-align: center;"">+</p>","null","fixation","","","","","","","","","","","","","","","","","","","","","",""
"","","","","","html-slider-response","168","272027","0.0-21.0-0.18","c0030ba8-6aa7-41eb-ac56-36bbce26411d","1000","
                  <p style=""text-align: center;"">₪79
                                                <br>40%</p>
                  <p id=""wtp"" style=""text-align:center; margin-top: 0px; margin-bottom: 0px; font-size: 40px"";>&ensp;</p>","-","viewing","0","30","9B","","","","","","","","","","","","","","","","","","",""
"","","","","","html-slider-response","169","272491","0.0-21.0-1.18","c0030ba8-6aa7-41eb-ac56-36bbce26411d","463","
                  <p style=""text-align: center;"">₪79
                                                <br>40%</p>
                  <p id=""wtp"" style=""text-align:center; margin-top: 0px; margin-bottom: 0px; font-size: 40px"";>מוכנים לשלם: <span id=""c_p_y""></span></p>","40","evaluation","31","30","9B","40","79","40","","","","","","","","","","","","","","","",""
"","","","","","html-keyboard-response","170","273003","0.0-21.0-2.18","c0030ba8-6aa7-41eb-ac56-36bbce26411d","null","<p style=""text-align: center;"">+</p>","null","fixation","","","","","","","","","","","","","","","","","","","","","",""
"","","","","","html-slider-response","171","274019","0.0-21.0-0.19","c0030ba8-6aa7-41eb-ac56-36bbce26411d","1000","
                  <p style=""text-align: center;"">₪58
                                                <br>30%</p>
                  <p id=""wtp"" style=""text-align:center; margin-top: 0px; margin-bottom: 0px; font-size: 40px"";>&ensp;</p>","-","viewing","0","19","13C,30A","","","","","","","","","","","","","","","","","","",""
"","","","","","html-slider-response","172","276843","0.0-21.0-1.19","c0030ba8-6aa7-41eb-ac56-36bbce26411d","2822","
                  <p style=""text-align: center;"">₪58
                                                <br>30%</p>
                  <p id=""wtp"" style=""text-align:center; margin-top: 0px; margin-bottom: 0px; font-size: 40px"";>מוכנים לשלם: <span id=""c_p_y""></span></p>","29","evaluation","0","19","13C,30A","30","58","29","","","","","","","","","","","","","","","",""
"","","","","","html-keyboard-response","173","278353","0.0-21.0-2.19","c0030ba8-6aa7-41eb-ac56-36bbce26411d","null","<p style=""text-align: center;"">+</p>","null","fixation","","","","","","","","","","","","","","","","","","","","","",""
"","","","","","html-slider-response","174","279356","0.0-21.0-0.20","c0030ba8-6aa7-41eb-ac56-36bbce26411d","1000","
                  <p style=""text-align: center;"">₪16
                                                <br>20%</p>
                  <p id=""wtp"" style=""text-align:center; margin-top: 0px; margin-bottom: 0px; font-size: 40px"";>&ensp;</p>","-","viewing","0","8","14C,17A,20C,27A","","","","","","","","","","","","","","","","","","",""
"","","","","","html-slider-response","175","281955","0.0-21.0-1.20","c0030ba8-6aa7-41eb-ac56-36bbce26411d","2598","
                  <p style=""text-align: center;"">₪16
                                                <br>20%</p>
                  <p id=""wtp"" style=""text-align:center; margin-top: 0px; margin-bottom: 0px; font-size: 40px"";>מוכנים לשלם: <span id=""c_p_y""></span></p>","7","evaluation","17","8","14C,17A,20C,27A","20","16","7","","","","","","","","","","","","","","","",""
"","","","","","html-keyboard-response","176","282807","0.0-21.0-2.20","c0030ba8-6aa7-41eb-ac56-36bbce26411d","null","<p style=""text-align: center;"">+</p>","null","fixation","","","","","","","","","","","","","","","","","","","","","",""
"","","","","","html-slider-response","177","283818","0.0-21.0-0.21","c0030ba8-6aa7-41eb-ac56-36bbce26411d","1000","
                  <p style=""text-align: center;"">₪71
                                                <br>75%</p>
                  <p id=""wtp"" style=""text-align:center; margin-top: 0px; margin-bottom: 0px; font-size: 40px"";>&ensp;</p>","-","viewing","0","28","8B","","","","","","","","","","","","","","","","","","",""
"","","","","","html-slider-response","178","287724","0.0-21.0-1.21","c0030ba8-6aa7-41eb-ac56-36bbce26411d","3905","
                  <p style=""text-align: center;"">₪71
                                                <br>75%</p>
                  <p id=""wtp"" style=""text-align:center; margin-top: 0px; margin-bottom: 0px; font-size: 40px"";>מוכנים לשלם: <span id=""c_p_y""></span></p>","47","evaluation","35","28","8B","75","71","47","","","","","","","","","","","","","","","",""
"","","","","","html-keyboard-response","179","288253","0.0-21.0-2.21","c0030ba8-6aa7-41eb-ac56-36bbce26411d","null","<p style=""text-align: center;"">+</p>","null","fixation","","","","","","","","","","","","","","","","","","","","","",""
"","","","","","html-slider-response","180","289256","0.0-21.0-0.22","c0030ba8-6aa7-41eb-ac56-36bbce26411d","1000","
                  <p style=""text-align: center;"">₪64
                                                <br>25%</p>
                  <p id=""wtp"" style=""text-align:center; margin-top: 0px; margin-bottom: 0px; font-size: 40px"";>&ensp;</p>","-","viewing","0","24","6A,21A","","","","","","","","","","","","","","","","","","",""
"","","","","","html-slider-response","181","293258","0.0-21.0-1.22","c0030ba8-6aa7-41eb-ac56-36bbce26411d","null","
                  <p style=""text-align: center;"">₪64
                                                <br>25%</p>
                  <p id=""wtp"" style=""text-align:center; margin-top: 0px; margin-bottom: 0px; font-size: 40px"";>מוכנים לשלם: <span id=""c_p_y""></span></p>","null","evaluation","8","24","6A,21A","25","64","10","","","","","","","","","","","","","","","",""
"","","","","","html-keyboard-response","182","293880","0.0-21.0-2.22","c0030ba8-6aa7-41eb-ac56-36bbce26411d","null","<p style=""text-align: center;"">+</p>","null","fixation","","","","","","","","","","","","","","","","","","","","","",""
"","","","","","html-slider-response","183","294896","0.0-21.0-0.23","c0030ba8-6aa7-41eb-ac56-36bbce26411d","1000","
                  <p style=""text-align: center;"">₪36
                                                <br>70%</p>
                  <p id=""wtp"" style=""text-align:center; margin-top: 0px; margin-bottom: 0px; font-size: 40px"";>&ensp;</p>","-","viewing","0","13","3A,5C,10B","","","","","","","","","","","","","","","","","","",""
"","","","","","html-slider-response","184","295627","0.0-21.0-1.23","c0030ba8-6aa7-41eb-ac56-36bbce26411d","730","
                  <p style=""text-align: center;"">₪36
                                                <br>70%</p>
                  <p id=""wtp"" style=""text-align:center; margin-top: 0px; margin-bottom: 0px; font-size: 40px"";>מוכנים לשלם: <span id=""c_p_y""></span></p>","10","evaluation","19","13","3A,5C,10B","70","36","10","","","","","","","","","","","","","","","",""
"","","","","","html-keyboard-response","185","296693","0.0-21.0-2.23","c0030ba8-6aa7-41eb-ac56-36bbce26411d","null","<p style=""text-align: center;"">+</p>","null","fixation","","","","","","","","","","","","","","","","","","","","","",""
"","","","","","html-slider-response","186","297709","0.0-21.0-0.24","c0030ba8-6aa7-41eb-ac56-36bbce26411d","1000","
                  <p style=""text-align: center;"">₪4
                                                <br>75%</p>
                  <p id=""wtp"" style=""text-align:center; margin-top: 0px; margin-bottom: 0px; font-size: 40px"";>&ensp;</p>","-","viewing","0","3","12B,20B,23B,27C,29C","","","","","","","","","","","","","","","","","","",""
"","","","","","html-slider-response","187","299435","0.0-21.0-1.24","c0030ba8-6aa7-41eb-ac56-36bbce26411d","1725","
                  <p style=""text-align: center;"">₪4
                                                <br>75%</p>
                  <p id=""wtp"" style=""text-align:center; margin-top: 0px; margin-bottom: 0px; font-size: 40px"";>מוכנים לשלם: <span id=""c_p_y""></span></p>","1","evaluation","11","3","12B,20B,23B,27C,29C","75","4","1","","","","","","","","","","","","","","","",""
"","","","","","html-keyboard-response","188","300382","0.0-21.0-2.24","c0030ba8-6aa7-41eb-ac56-36bbce26411d","null","<p style=""text-align: center;"">+</p>","null","fixation","","","","","","","","","","","","","","","","","","","","","",""
"","","","","","html-slider-response","189","301391","0.0-21.0-0.25","c0030ba8-6aa7-41eb-ac56-36bbce26411d","1000","
                  <p style=""text-align: center;"">₪36
                                                <br>75%</p>
                  <p id=""wtp"" style=""text-align:center; margin-top: 0px; margin-bottom: 0px; font-size: 40px"";>&ensp;</p>","-","viewing","0","14","4B,5A,13B,16B","","","","","","","","","","","","","","","","","","",""
"","","","","","html-slider-response","190","302683","0.0-21.0-1.25","c0030ba8-6aa7-41eb-ac56-36bbce26411d","1291","
                  <p style=""text-align: center;"">₪36
                                                <br>75%</p>
                  <p id=""wtp"" style=""text-align:center; margin-top: 0px; margin-bottom: 0px; font-size: 40px"";>מוכנים לשלם: <span id=""c_p_y""></span></p>","22","evaluation","28","14","4B,5A,13B,16B","75","36","23","","","","","","","","","","","","","","","",""
"","","","","","html-keyboard-response","191","303709","0.0-21.0-2.25","c0030ba8-6aa7-41eb-ac56-36bbce26411d","null","<p style=""text-align: center;"">+</p>","null","fixation","","","","","","","","","","","","","","","","","","","","","",""
"","","","","","html-slider-response","192","304725","0.0-21.0-0.26","c0030ba8-6aa7-41eb-ac56-36bbce26411d","1000","
                  <p style=""text-align: center;"">₪11
                                                <br>20%</p>
                  <p id=""wtp"" style=""text-align:center; margin-top: 0px; margin-bottom: 0px; font-size: 40px"";>&ensp;</p>","-","viewing","0","4","12C,17C,23C,28C","","","","","","","","","","","","","","","","","","",""
"","","","","","html-slider-response","193","306011","0.0-21.0-1.26","c0030ba8-6aa7-41eb-ac56-36bbce26411d","1285","
                  <p style=""text-align: center;"">₪11
                                                <br>20%</p>
                  <p id=""wtp"" style=""text-align:center; margin-top: 0px; margin-bottom: 0px; font-size: 40px"";>מוכנים לשלם: <span id=""c_p_y""></span></p>","1","evaluation","42","4","12C,17C,23C,28C","20","11","2","","","","","","","","","","","","","","","",""
"","","","","","html-keyboard-response","194","306920","0.0-21.0-2.26","c0030ba8-6aa7-41eb-ac56-36bbce26411d","null","<p style=""text-align: center;"">+</p>","null","fixation","","","","","","","","","","","","","","","","","","","","","",""
"","","","","","html-slider-response","195","307936","0.0-21.0-0.27","c0030ba8-6aa7-41eb-ac56-36bbce26411d","1000","
                  <p style=""text-align: center;"">₪61
                                                <br>45%</p>
                  <p id=""wtp"" style=""text-align:center; margin-top: 0px; margin-bottom: 0px; font-size: 40px"";>&ensp;</p>","-","viewing","0","22","10A,11A","","","","","","","","","","","","","","","","","","",""
"","","","","","html-slider-response","196","309299","0.0-21.0-1.27","c0030ba8-6aa7-41eb-ac56-36bbce26411d","1362","
                  <p style=""text-align: center;"">₪61
                                                <br>45%</p>
                  <p id=""wtp"" style=""text-align:center; margin-top: 0px; margin-bottom: 0px; font-size: 40px"";>מוכנים לשלם: <span id=""c_p_y""></span></p>","40","evaluation","33","22","10A,11A","45","61","40","","","","","","","","","","","","","","","",""
"","","","","","html-keyboard-response","197","310503","0.0-21.0-2.27","c0030ba8-6aa7-41eb-ac56-36bbce26411d","null","<p style=""text-align: center;"">+</p>","null","fixation","","","","","","","","","","","","","","","","","","","","","",""
"","","","","","html-slider-response","198","311507","0.0-21.0-0.28","c0030ba8-6aa7-41eb-ac56-36bbce26411d","1000","
                  <p style=""text-align: center;"">₪36
                                                <br>60%</p>
                  <p id=""wtp"" style=""text-align:center; margin-top: 0px; margin-bottom: 0px; font-size: 40px"";>&ensp;</p>","-","viewing","0","12","1C,7C,15C","","","","","","","","","","","","","","","","","","",""
"","","","","","html-slider-response","199","312923","0.0-21.0-1.28","c0030ba8-6aa7-41eb-ac56-36bbce26411d","1415","
                  <p style=""text-align: center;"">₪36
                                                <br>60%</p>
                  <p id=""wtp"" style=""text-align:center; margin-top: 0px; margin-bottom: 0px; font-size: 40px"";>מוכנים לשלם: <span id=""c_p_y""></span></p>","19","evaluation","71","12","1C,7C,15C","60","36","20","","","","","","","","","","","","","","","",""
"","","","","","html-keyboard-response","200","313464","0.0-21.0-2.28","c0030ba8-6aa7-41eb-ac56-36bbce26411d","null","<p style=""text-align: center;"">+</p>","null","fixation","","","","","","","","","","","","","","","","","","","","","",""
"","","","","","html-slider-response","201","314468","0.0-21.0-0.29","c0030ba8-6aa7-41eb-ac56-36bbce26411d","1000","
                  <p style=""text-align: center;"">₪18
                                                <br>50%</p>
                  <p id=""wtp"" style=""text-align:center; margin-top: 0px; margin-bottom: 0px; font-size: 40px"";>&ensp;</p>","-","viewing","0","10","2C,16C,22B,28A","","","","","","","","","","","","","","","","","","",""
"","","","","","html-slider-response","202","315219","0.0-21.0-1.29","c0030ba8-6aa7-41eb-ac56-36bbce26411d","750","
                  <p style=""text-align: center;"">₪18
                                                <br>50%</p>
                  <p id=""wtp"" style=""text-align:center; margin-top: 0px; margin-bottom: 0px; font-size: 40px"";>מוכנים לשלם: <span id=""c_p_y""></span></p>","0","evaluation","68","10","2C,16C,22B,28A","50","18","0","","","","","","","","","","","","","","","",""
"","","","","","html-keyboard-response","203","315905","0.0-21.0-2.29","c0030ba8-6aa7-41eb-ac56-36bbce26411d","null","<p style=""text-align: center;"">+</p>","null","fixation","","","","","","","","","","","","","","","","","","","","","",""
"","","","","","html-slider-response","204","316906","0.0-21.0-0.30","c0030ba8-6aa7-41eb-ac56-36bbce26411d","1000","
                  <p style=""text-align: center;"">₪43
                                                <br>60%</p>
                  <p id=""wtp"" style=""text-align:center; margin-top: 0px; margin-bottom: 0px; font-size: 40px"";>&ensp;</p>","-","viewing","0","17","2A,7A,9A,15B","","","","","","","","","","","","","","","","","","",""
"","","","","","html-slider-response","205","317803","0.0-21.0-1.30","c0030ba8-6aa7-41eb-ac56-36bbce26411d","896","
                  <p style=""text-align: center;"">₪43
                                                <br>60%</p>
                  <p id=""wtp"" style=""text-align:center; margin-top: 0px; margin-bottom: 0px; font-size: 40px"";>מוכנים לשלם: <span id=""c_p_y""></span></p>","20","evaluation","60","17","2A,7A,9A,15B","60","43","20","","","","","","","","","","","","","","","",""
"","","","","","html-keyboard-response","206","319110","0.0-21.0-2.30","c0030ba8-6aa7-41eb-ac56-36bbce26411d","null","<p style=""text-align: center;"">+</p>","null","fixation","","","","","","","","","","","","","","","","","","","","","",""
"","","","","","html-keyboard-response","207","320126","0.0-22.0","c0030ba8-6aa7-41eb-ac56-36bbce26411d","null","<p style=""text-align: center;"">+</p>","null","fixation","","","","","","","","","","","","","","","","","","","","","",""
"","","","","","html-keyboard-response","208","320979","0.0-23.0","c0030ba8-6aa7-41eb-ac56-36bbce26411d","null","<p>הפסקה.
          <br>לחצו כדי להמשיך.</p>","1","scan_wait","","","","","","","","","","","","","","","","","","","","","",""
"","","","","","html-keyboard-response","209","321983","0.0-24.0","c0030ba8-6aa7-41eb-ac56-36bbce26411d","null","<p style=""text-align: center;"">+</p>","null","fixation","","","","","","","","","","","","","","","","","","","","","",""
"","","","","","html-slider-response","210","322985","0.0-25.0-0.0","c0030ba8-6aa7-41eb-ac56-36bbce26411d","1000","
                  <p style=""text-align: center;"">₪11
                                                <br>20%</p>
                  <p id=""wtp"" style=""text-align:center; margin-top: 0px; margin-bottom: 0px; font-size: 40px"";>&ensp;</p>","-","viewing","0","4","12C,17C,23C,28C","","","","","","","","","","","","","","","","","","",""
"","","","","","html-slider-response","211","324187","0.0-25.0-1.0","c0030ba8-6aa7-41eb-ac56-36bbce26411d","1200","
                  <p style=""text-align: center;"">₪11
                                                <br>20%</p>
                  <p id=""wtp"" style=""text-align:center; margin-top: 0px; margin-bottom: 0px; font-size: 40px"";>מוכנים לשלם: <span id=""c_p_y""></span></p>","0","evaluation","38","4","12C,17C,23C,28C","20","11","0","","","","","","","","","","","","","","","",""
"","","","","","html-keyboard-response","212","324894","0.0-25.0-2.0","c0030ba8-6aa7-41eb-ac56-36bbce26411d","null","<p style=""text-align: center;"">+</p>","null","fixation","","","","","","","","","","","","","","","","","","","","","",""
"","","","","","html-slider-response","213","325903","0.0-25.0-0.1","c0030ba8-6aa7-41eb-ac56-36bbce26411d","1000","
                  <p style=""text-align: center;"">₪79
                                                <br>65%</p>
                  <p id=""wtp"" style=""text-align:center; margin-top: 0px; margin-bottom: 0px; font-size: 40px"";>&ensp;</p>","-","viewing","0","31","8A","","","","","","","","","","","","","","","","","","",""
"","","","","","html-slider-response","214","327339","0.0-25.0-1.1","c0030ba8-6aa7-41eb-ac56-36bbce26411d","1434","
                  <p style=""text-align: center;"">₪79
                                                <br>65%</p>
                  <p id=""wtp"" style=""text-align:center; margin-top: 0px; margin-bottom: 0px; font-size: 40px"";>מוכנים לשלם: <span id=""c_p_y""></span></p>","60","evaluation","59","31","8A","65","79","60","","","","","","","","","","","","","","","",""
"","","","","","html-keyboard-response","215","327890","0.0-25.0-2.1","c0030ba8-6aa7-41eb-ac56-36bbce26411d","null","<p style=""text-align: center;"">+</p>","null","fixation","","","","","","","","","","","","","","","","","","","","","",""
"","","","","","html-slider-response","216","328891","0.0-25.0-0.2","c0030ba8-6aa7-41eb-ac56-36bbce26411d","1000","
                  <p style=""text-align: center;"">₪4
                                                <br>75%</p>
                  <p id=""wtp"" style=""text-align:center; margin-top: 0px; margin-bottom: 0px; font-size: 40px"";>&ensp;</p>","-","viewing","0","3","12B,20B,23B,27C,29C","","","","","","","","","","","","","","","","","","",""
"","","","","","html-slider-response","217","330619","0.0-25.0-1.2","c0030ba8-6aa7-41eb-ac56-36bbce26411d","1727","
                  <p style=""text-align: center;"">₪4
                                                <br>75%</p>
                  <p id=""wtp"" style=""text-align:center; margin-top: 0px; margin-bottom: 0px; font-size: 40px"";>מוכנים לשלם: <span id=""c_p_y""></span></p>","0","evaluation","12","3","12B,20B,23B,27C,29C","75","4","1","","","","","","","","","","","","","","","",""
"","","","","","html-keyboard-response","218","331911","0.0-25.0-2.2","c0030ba8-6aa7-41eb-ac56-36bbce26411d","null","<p style=""text-align: center;"">+</p>","null","fixation","","","","","","","","","","","","","","","","","","","","","",""
"","","","","","html-slider-response","219","332920","0.0-25.0-0.3","c0030ba8-6aa7-41eb-ac56-36bbce26411d","1000","
                  <p style=""text-align: center;"">₪76
                                                <br>65%</p>
                  <p id=""wtp"" style=""text-align:center; margin-top: 0px; margin-bottom: 0px; font-size: 40px"";>&ensp;</p>","-","viewing","0","29","8C,19A,24B","","","","","","","","","","","","","","","","","","",""
"","","","","","html-slider-response","220","334307","0.0-25.0-1.3","c0030ba8-6aa7-41eb-ac56-36bbce26411d","1386","
                  <p style=""text-align: center;"">₪76
                                                <br>65%</p>
                  <p id=""wtp"" style=""text-align:center; margin-top: 0px; margin-bottom: 0px; font-size: 40px"";>מוכנים לשלם: <span id=""c_p_y""></span></p>","61","evaluation","48","29","8C,19A,24B","65","76","60","","","","","","","","","","","","","","","",""
"","","","","","html-keyboard-response","221","335728","0.0-25.0-2.3","c0030ba8-6aa7-41eb-ac56-36bbce26411d","null","<p style=""text-align: center;"">+</p>","null","fixation","","","","","","","","","","","","","","","","","","","","","",""
"","","","","","html-slider-response","222","336745","0.0-25.0-0.4","c0030ba8-6aa7-41eb-ac56-36bbce26411d","1000","
                  <p style=""text-align: center;"">₪79
                                                <br>40%</p>
                  <p id=""wtp"" style=""text-align:center; margin-top: 0px; margin-bottom: 0px; font-size: 40px"";>&ensp;</p>","-","viewing","0","30","9B","","","","","","","","","","","","","","","","","","",""
"","","","","","html-slider-response","223","338979","0.0-25.0-1.4","c0030ba8-6aa7-41eb-ac56-36bbce26411d","2233","
                  <p style=""text-align: center;"">₪79
                                                <br>40%</p>
                  <p id=""wtp"" style=""text-align:center; margin-top: 0px; margin-bottom: 0px; font-size: 40px"";>מוכנים לשלם: <span id=""c_p_y""></span></p>","60","evaluation","30","30","9B","40","79","60","","","","","","","","","","","","","","","",""
"","","","","","html-keyboard-response","224","339705","0.0-25.0-2.4","c0030ba8-6aa7-41eb-ac56-36bbce26411d","null","<p style=""text-align: center;"">+</p>","null","fixation","","","","","","","","","","","","","","","","","","","","","",""
"","","","","","html-slider-response","225","340706","0.0-25.0-0.5","c0030ba8-6aa7-41eb-ac56-36bbce26411d","1000","
                  <p style=""text-align: center;"">₪43
                                                <br>75%</p>
                  <p id=""wtp"" style=""text-align:center; margin-top: 0px; margin-bottom: 0px; font-size: 40px"";>&ensp;</p>","-","viewing","0","18","11B,19B,24A,26A","","","","","","","","","","","","","","","","","","",""
"","","","","","html-slider-response","226","343043","0.0-25.0-1.5","c0030ba8-6aa7-41eb-ac56-36bbce26411d","2335","
                  <p style=""text-align: center;"">₪43
                                                <br>75%</p>
                  <p id=""wtp"" style=""text-align:center; margin-top: 0px; margin-bottom: 0px; font-size: 40px"";>מוכנים לשלם: <span id=""c_p_y""></span></p>","39","evaluation","5","18","11B,19B,24A,26A","75","43","39","","","","","","","","","","","","","","","",""
"","","","","","html-keyboard-response","227","344391","0.0-25.0-2.5","c0030ba8-6aa7-41eb-ac56-36bbce26411d","null","<p style=""text-align: center;"">+</p>","null","fixation","","","","","","","","","","","","","","","","","","","","","",""
"","","","","","html-slider-response","228","345408","0.0-25.0-0.6","c0030ba8-6aa7-41eb-ac56-36bbce26411d","1000","
                  <p style=""text-align: center;"">₪36
                                                <br>70%</p>
                  <p id=""wtp"" style=""text-align:center; margin-top: 0px; margin-bottom: 0px; font-size: 40px"";>&ensp;</p>","-","viewing","0","13","3A,5C,10B","","","","","","","","","","","","","","","","","","",""
"","","","","","html-slider-response","229","346763","0.0-25.0-1.6","c0030ba8-6aa7-41eb-ac56-36bbce26411d","1354","
                  <p style=""text-align: center;"">₪36
                                                <br>70%</p>
                  <p id=""wtp"" style=""text-align:center; margin-top: 0px; margin-bottom: 0px; font-size: 40px"";>מוכנים לשלם: <span id=""c_p_y""></span></p>","29","evaluation","47","13","3A,5C,10B","70","36","29","","","","","","","","","","","","","","","",""
"","","","","","html-keyboard-response","230","347797","0.0-25.0-2.6","c0030ba8-6aa7-41eb-ac56-36bbce26411d","null","<p style=""text-align: center;"">+</p>","null","fixation","","","","","","","","","","","","","","","","","","","","","",""
"","","","","","html-slider-response","231","348803","0.0-25.0-0.7","c0030ba8-6aa7-41eb-ac56-36bbce26411d","1000","
                  <p style=""text-align: center;"">₪11
                                                <br>25%</p>
                  <p id=""wtp"" style=""text-align:center; margin-top: 0px; margin-bottom: 0px; font-size: 40px"";>&ensp;</p>","-","viewing","0","5","12A,27B,28B,30B","","","","","","","","","","","","","","","","","","",""
"","","","","","html-slider-response","232","350379","0.0-25.0-1.7","c0030ba8-6aa7-41eb-ac56-36bbce26411d","1575","
                  <p style=""text-align: center;"">₪11
                                                <br>25%</p>
                  <p id=""wtp"" style=""text-align:center; margin-top: 0px; margin-bottom: 0px; font-size: 40px"";>מוכנים לשלם: <span id=""c_p_y""></span></p>","2","evaluation","44","5","12A,27B,28B,30B","25","11","2","","","","","","","","","","","","","","","",""
"","","","","","html-keyboard-response","233","350997","0.0-25.0-2.7","c0030ba8-6aa7-41eb-ac56-36bbce26411d","null","<p style=""text-align: center;"">+</p>","null","fixation","","","","","","","","","","","","","","","","","","","","","",""
"","","","","","html-slider-response","234","352013","0.0-25.0-0.8","c0030ba8-6aa7-41eb-ac56-36bbce26411d","1000","
                  <p style=""text-align: center;"">₪36
                                                <br>75%</p>
                  <p id=""wtp"" style=""text-align:center; margin-top: 0px; margin-bottom: 0px; font-size: 40px"";>&ensp;</p>","-","viewing","0","14","4B,5A,13B,16B","","","","","","","","","","","","","","","","","","",""
"","","","","","html-slider-response","235","353315","0.0-25.0-1.8","c0030ba8-6aa7-41eb-ac56-36bbce26411d","1300","
                  <p style=""text-align: center;"">₪36
                                                <br>75%</p>
                  <p id=""wtp"" style=""text-align:center; margin-top: 0px; margin-bottom: 0px; font-size: 40px"";>מוכנים לשלם: <span id=""c_p_y""></span></p>","21","evaluation","73","14","4B,5A,13B,16B","75","36","21","","","","","","","","","","","","","","","",""
"","","","","","html-keyboard-response","236","354766","0.0-25.0-2.8","c0030ba8-6aa7-41eb-ac56-36bbce26411d","null","<p style=""text-align: center;"">+</p>","null","fixation","","","","","","","","","","","","","","","","","","","","","",""
"","","","","","html-slider-response","237","355775","0.0-25.0-0.9","c0030ba8-6aa7-41eb-ac56-36bbce26411d","1000","
                  <p style=""text-align: center;"">₪71
                                                <br>45%</p>
                  <p id=""wtp"" style=""text-align:center; margin-top: 0px; margin-bottom: 0px; font-size: 40px"";>&ensp;</p>","-","viewing","0","26","2B,16A","","","","","","","","","","","","","","","","","","",""
"","","","","","html-slider-response","238","357331","0.0-25.0-1.9","c0030ba8-6aa7-41eb-ac56-36bbce26411d","1555","
                  <p style=""text-align: center;"">₪71
                                                <br>45%</p>
                  <p id=""wtp"" style=""text-align:center; margin-top: 0px; margin-bottom: 0px; font-size: 40px"";>מוכנים לשלם: <span id=""c_p_y""></span></p>","53","evaluation","76","26","2B,16A","45","71","52","","","","","","","","","","","","","","","",""
"","","","","","html-keyboard-response","239","358117","0.0-25.0-2.9","c0030ba8-6aa7-41eb-ac56-36bbce26411d","null","<p style=""text-align: center;"">+</p>","null","fixation","","","","","","","","","","","","","","","","","","","","","",""
"","","","","","html-slider-response","240","359130","0.0-25.0-0.10","c0030ba8-6aa7-41eb-ac56-36bbce26411d","1000","
                  <p style=""text-align: center;"">₪36
                                                <br>30%</p>
                  <p id=""wtp"" style=""text-align:center; margin-top: 0px; margin-bottom: 0px; font-size: 40px"";>&ensp;</p>","-","viewing","0","11","3C,20A,22A","","","","","","","","","","","","","","","","","","",""
"","","","","","html-slider-response","241","360739","0.0-25.0-1.10","c0030ba8-6aa7-41eb-ac56-36bbce26411d","1608","
                  <p style=""text-align: center;"">₪36
                                                <br>30%</p>
                  <p id=""wtp"" style=""text-align:center; margin-top: 0px; margin-bottom: 0px; font-size: 40px"";>מוכנים לשלם: <span id=""c_p_y""></span></p>","20","evaluation","59","11","3C,20A,22A","30","36","20","","","","","","","","","","","","","","","",""
"","","","","","html-keyboard-response","242","362015","0.0-25.0-2.10","c0030ba8-6aa7-41eb-ac56-36bbce26411d","null","<p style=""text-align: center;"">+</p>","null","fixation","","","","","","","","","","","","","","","","","","","","","",""
"","","","","","html-slider-response","243","363023","0.0-25.0-0.11","c0030ba8-6aa7-41eb-ac56-36bbce26411d","1000","
                  <p style=""text-align: center;"">₪16
                                                <br>20%</p>
                  <p id=""wtp"" style=""text-align:center; margin-top: 0px; margin-bottom: 0px; font-size: 40px"";>&ensp;</p>","-","viewing","0","8","14C,17A,20C,27A","","","","","","","","","","","","","","","","","","",""
"","","","","","html-slider-response","244","364923","0.0-25.0-1.11","c0030ba8-6aa7-41eb-ac56-36bbce26411d","1899","
                  <p style=""text-align: center;"">₪16
                                                <br>20%</p>
                  <p id=""wtp"" style=""text-align:center; margin-top: 0px; margin-bottom: 0px; font-size: 40px"";>מוכנים לשלם: <span id=""c_p_y""></span></p>","2","evaluation","20","8","14C,17A,20C,27A","20","16","2","","","","","","","","","","","","","","","",""
"","","","","","html-keyboard-response","245","366119","0.0-25.0-2.11","c0030ba8-6aa7-41eb-ac56-36bbce26411d","null","<p style=""text-align: center;"">+</p>","null","fixation","","","","","","","","","","","","","","","","","","","","","",""
"","","","","","html-slider-response","246","367121","0.0-25.0-0.12","c0030ba8-6aa7-41eb-ac56-36bbce26411d","1000","
                  <p style=""text-align: center;"">₪61
                                                <br>55%</p>
                  <p id=""wtp"" style=""text-align:center; margin-top: 0px; margin-bottom: 0px; font-size: 40px"";>&ensp;</p>","-","viewing","0","23","7B,26B","","","","","","","","","","","","","","","","","","",""
"","","","","","html-slider-response","247","368227","0.0-25.0-1.12","c0030ba8-6aa7-41eb-ac56-36bbce26411d","1104","
                  <p style=""text-align: center;"">₪61
                                                <br>55%</p>
                  <p id=""wtp"" style=""text-align:center; margin-top: 0px; margin-bottom: 0px; font-size: 40px"";>מוכנים לשלם: <span id=""c_p_y""></span></p>","48","evaluation","38","23","7B,26B","55","61","48","","","","","","","","","","","","","","","",""
"","","","","","html-keyboard-response","248","368881","0.0-25.0-2.12","c0030ba8-6aa7-41eb-ac56-36bbce26411d","null","<p style=""text-align: center;"">+</p>","null","fixation","","","","","","","","","","","","","","","","","","","","","",""
"","","","","","html-slider-response","249","369898","0.0-25.0-0.13","c0030ba8-6aa7-41eb-ac56-36bbce26411d","1000","
                  <p style=""text-align: center;"">₪71
                                                <br>55%</p>
                  <p id=""wtp"" style=""text-align:center; margin-top: 0px; margin-bottom: 0px; font-size: 40px"";>&ensp;</p>","-","viewing","0","27","5B,18A","","","","","","","","","","","","","","","","","","",""
"","","","","","html-slider-response","250","370595","0.0-25.0-1.13","c0030ba8-6aa7-41eb-ac56-36bbce26411d","696","
                  <p style=""text-align: center;"">₪71
                                                <br>55%</p>
                  <p id=""wtp"" style=""text-align:center; margin-top: 0px; margin-bottom: 0px; font-size: 40px"";>מוכנים לשלם: <span id=""c_p_y""></span></p>","49","evaluation","7","27","5B,18A","55","71","49","","","","","","","","","","","","","","","",""
