"success","timeout","failed_images","failed_audio","failed_video","trial_type","trial_index","time_elapsed","internal_node_id","subject_id","rt","stimulus","response","part","slider_start","ID","set_ID","prob","amount","last_location","actual_choice","actual_EV","binary_id","trinary_id","catch","direction","A_key","S_key","D_key","choice_prob","choice_amount","potential_prize_prob","potential_prize_amount","won_prize","total_prize","remaining_budget","accuracy"
"true","false","[]","[]","[]","preload","0","13","0.0-0.0","471924a9-ee50-4f6a-a87f-cb56913a24c3","","","","","","","","","","","","","","","","","","","","","","","","","","",""
"","","","","","html-keyboard-response","1","10855","0.0-1.0","471924a9-ee50-4f6a-a87f-cb56913a24c3","null","
          <h1>שלום וברוכים הבאים!</h1>
          <p>לפניכם ניסוי בקבלת החלטות עם שני חלקים.
          <br><br>לחצו על העכבר כדי להמשיך.</p>","0","example","","","","","","","","","","","","","","","","","","","","","","",""
"","","","","","html-keyboard-response","2","25031","0.0-2.0","471924a9-ee50-4f6a-a87f-cb56913a24c3","null","
        <h1>חלק 1</h1>
        <p>בקרוב יוצגו בפניכם הגרלות.
        <br>עליכם לבחור את המחיר המירבי שתהיו מוכנים לשלם כדי להשתתף בהגרלה שתוצג.
        <br>יש לכם תקציב של ₪80 לכל הגרלה. 
        <br>נסו להעריך כל הגרלה בנפרד ולחשוב כמה היא שווה עבורכם, ₪80 זמינים לכל הגרלה בנפרד.
        <br><br>לחצו על העכבר כדי להמשיך.</p>","1","instructions","","","","","","","","","","","","","","","","","","","","","","",""
"","","","","","html-keyboard-response","3","28447","0.0-3.0","471924a9-ee50-4f6a-a87f-cb56913a24c3","null","
        <p>בסוף הניסוי, המחשב יבחר את אחת ההגרלות ויקבע מחיר לכרטיס עבורה. 
        <br>במידה והמחיר שבחרתם נמוך מהמחיר שנבחר על ידי המחשב, לא תשתתפו בהגרלה ותשארו עם מלוא התקציב.
        <br>במידה והמחיר שבחרתם גבוה מהמחיר שנבחר על ידי המחשב, תשלמו את המחיר שנקבע ותשתתפו בהגרלה.
        <br><br>לחצו על העכבר כדי להמשיך.</p>","1","instructions","","","","","","","","","","","","","","","","","","","","","","",""
"","","","","","html-slider-response","4","44535","0.0-4.0","471924a9-ee50-4f6a-a87f-cb56913a24c3","15973","
        <p style=""font-size: 42px;"">נתחיל עם דוגמא: 
        <br>ההגרלה מטה מציעה 65% סיכוי לזכות ב-₪40 
        <br>&emsp;&emsp;&emsp;&emsp;&emsp;&emsp;&emsp;&emsp;&ensp;35% סיכוי לזכות ב-₪0.
        <br><br>מה המחיר המירבי שתהיו מוכנים לשלם על כרטיס להגרלה זו בין 0 ל-₪80?
        <br>הזיזו את העכבר על פני המלבן ולחצו כדי לבצע בחירה.</p>
        
        <p style=""text-align: center;"">₪40<br>65%</p>

        <p id=""wtp"" style=""text-align:center; margin-top: 0px; margin-bottom: 0px; font-size: 40px"";>מוכנים לשלם: <span id=""c_p_y""></span></p>","40","example","10","","","","","","","","","","","","","","","","","","","","","",""
"","","","","","html-keyboard-response","5","52575","0.0-5.0","471924a9-ee50-4f6a-a87f-cb56913a24c3","null","<p>יפה מאוד!
                <br> בחרתם שתהיו מוכנים לשלם ₪40 כדי להשתתף בהגרלה:
                <br><p style=""text-align: center;"">₪40<br>65%</p>
                <p>נשמע נכון?
                <br>נניח שהגרלה זו נבחרה בסוף הניסוי.
                <br>כעת המחשב יקבע מחיר עבורה באקראי.
                <br>לחצו על העכבר להמשך.</p>","1","example","","","","","","","","","","","","","","","","","","","","","","",""
"","","","","","html-keyboard-response","6","60367","0.0-6.0","471924a9-ee50-4f6a-a87f-cb56913a24c3","null","<p>המחשב קבע מחיר: ₪46
                <br>ואתם בחרתם לשלם לכל היותר: ₪40
                <br><br>מכיוון שהמחיר שבחרתם נמוך מהמחיר שנקבע, לא תתשתתפו בהגרלה.
                <br>במקרה כזה, בסוף הניסוי תקבלו את כל התקציב ההתחלתי של ₪80.
                <br><br>לחצו על העכבר להמשך.</p>","1","example","","","","","","","","","","","","","","","","","","","","","","",""
"","","","","","html-slider-response","7","64831","0.0-7.0","471924a9-ee50-4f6a-a87f-cb56913a24c3","4210","<p style=""font-size: 42px;"">הנה עוד דוגמא:
                <br>ההגרלה מטה מציעה 35% סיכוי לזכות ב-₪18 
                <br>&emsp;&emsp;&emsp;&emsp;&emsp;&emsp;&emsp;&emsp;&ensp;65% סיכוי לזכות ב-₪0.</p>
        
                <p style=""text-align: center;"">₪18<br>35%</p>
                <p id=""wtp"" style=""text-align:center; margin-top: 0px; margin-bottom: 0px; font-size: 40px"";>מוכנים לשלם: <span id=""c_p_y""></span></p>","9","example","46","","","","","","","","","","","","","","","","","","","","","",""
"","","","","","html-keyboard-response","8","70911","0.0-8.0","471924a9-ee50-4f6a-a87f-cb56913a24c3","null","<p>הייתם מוכנים לשלם  ₪9 כדי להשתתף בהגרלה:
                <p style=""text-align: center;"">₪18<br>35%</p>
                <p>כעת נניח שהמחשב בחר את ההגרלה הזו בסוף הניסוי, וקבע עבורה מחיר.
                <br><br>לחצו על העכבר כדי להמשיך.</p>","1","instructions","","","","","","","","","","","","","","","","","","","","","","",""
"","","","","","html-keyboard-response","9","79679","0.0-9.0","471924a9-ee50-4f6a-a87f-cb56913a24c3","null","<p>המחשב קבע מחיר להגרלה: ₪9
                <br>ואתם בחרתם לשלם לכל היותר: ₪9
                <br><br>כעת המחיר שנקבע זהה לזה שבחרתם, אז תשלמו את המחיר שקבע המחשב (₪9) ותשתתפו בהגרלה.
                <br>במקרה כזה, תסיימו את הניסוי עם תקציב של ₪71 ועם סיכוי לזכות ב-₪18 נוספים מההגרלה.
                <br>כלומר, תוכלו לקבל ₪71 אם לא תזכו בהגרלה, או ₪89 אם תזכו בהגרלה.
                <br><br>לחצו על העכבר להמשך.</p>","1","example","","","","","","","","","","","","","","","","","","","","","","",""
"","","","","","html-keyboard-response","10","88463","0.0-10.0","471924a9-ee50-4f6a-a87f-cb56913a24c3","null","<p>במהלך הניסוי, קודם תראו את ההגרלה ורק לאחר מכן תוכלו לבחור.
                <p>כמו כן, יהיו לכם מספר שניות מוגבל להגיב.
                <p>בואו ננסה זאת עם ההגרלה הקודמת.
                <br>לחצו על העכבר כדי להמשיך.</p>","1","instructions","","","","","","","","","","","","","","","","","","","","","","",""
"","","","","","html-slider-response","11","89725","0.0-11.0","471924a9-ee50-4f6a-a87f-cb56913a24c3","1000","
                    <p style=""text-align: center;"">₪18<br>35%</p>
                    <p id=""wtp"" style=""text-align:center; margin-top: 0px; margin-bottom: 0px; font-size: 40px"";>&ensp;</p>","38","instructions","0","","","","","","","","","","","","","","","","","","","","","",""
"","","","","","html-slider-response","12","91751","0.0-12.0","471924a9-ee50-4f6a-a87f-cb56913a24c3","1763","
                    <p style=""text-align: center;"">₪18<br>35%</p>
                    <p id=""wtp"" style=""text-align:center; margin-top: 0px; margin-bottom: 0px; font-size: 40px"";>מוכנים לשלם: <span id=""c_p_y""></span></p>","9","instructions","53","","","","","","","","","","","","","","","","","","","","","",""
"","","","","","html-keyboard-response","13","93407","0.0-13.0","471924a9-ee50-4f6a-a87f-cb56913a24c3","null","<p>יפה. הפעם בחרתם לשלם לכל היותר ₪9.
                <br><br>לחצו על העכבר כדי להמשיך.</p>","1","instructions","","","","","","","","","","","","","","","","","","","","","","",""
"","","","","","html-keyboard-response","14","96967","0.0-15.0","471924a9-ee50-4f6a-a87f-cb56913a24c3","null","<p>כעת נתחיל את הניסוי.
                <br><br>אתם תראו הגרלות ותתבקשו לבחור כמה תהיו מוכנים לשלם כדי להשתתף בהן.
                <br>יש לכם תקציב של ₪80 עבור כל הגרלה.
                <br>בסוף הניסוי הגרלה אחת תבחר באקראי ותשוחק.
                <br><br>לחצו על העכבר כדי להתחיל את הניסוי.</p>","1","instructions","","","","","","","","","","","","","","","","","","","","","","",""
"","","","","","html-keyboard-response","15","98222","0.0-16.0","471924a9-ee50-4f6a-a87f-cb56913a24c3","null","<p style=""text-align: center;"">+</p>","null","fixation","","","","","","","","","","","","","","","","","","","","","","",""
"","","","","","html-slider-response","16","99233","0.0-17.0-0.0","471924a9-ee50-4f6a-a87f-cb56913a24c3","1000","
                  <p style=""text-align: center;"">₪16
                                                <br>20%</p>
                  <p id=""wtp"" style=""text-align:center; margin-top: 0px; margin-bottom: 0px; font-size: 40px"";>&ensp;</p>","-","viewing","0","8","14C,17A,20C,27A","","","","","","","","","","","","","","","","","","","",""
"","","","","","html-slider-response","17","100751","0.0-17.0-1.0","471924a9-ee50-4f6a-a87f-cb56913a24c3","1516","
                  <p style=""text-align: center;"">₪16
                                                <br>20%</p>
                  <p id=""wtp"" style=""text-align:center; margin-top: 0px; margin-bottom: 0px; font-size: 40px"";>מוכנים לשלם: <span id=""c_p_y""></span></p>","6","evaluation","54","8","14C,17A,20C,27A","20","16","6","","","","","","","","","","","","","","","","",""
"","","","","","html-keyboard-response","18","101964","0.0-17.0-2.0","471924a9-ee50-4f6a-a87f-cb56913a24c3","null","<p style=""text-align: center;"">+</p>","null","fixation","","","","","","","","","","","","","","","","","","","","","","",""
"","","","","","html-slider-response","19","102978","0.0-17.0-0.1","471924a9-ee50-4f6a-a87f-cb56913a24c3","1000","
                  <p style=""text-align: center;"">₪11
                                                <br>75%</p>
                  <p id=""wtp"" style=""text-align:center; margin-top: 0px; margin-bottom: 0px; font-size: 40px"";>&ensp;</p>","-","viewing","0","7","6B,18B,22C,24C,29A","","","","","","","","","","","","","","","","","","","",""
"","","","","","html-slider-response","20","105095","0.0-17.0-1.1","471924a9-ee50-4f6a-a87f-cb56913a24c3","2116","
                  <p style=""text-align: center;"">₪11
                                                <br>75%</p>
                  <p id=""wtp"" style=""text-align:center; margin-top: 0px; margin-bottom: 0px; font-size: 40px"";>מוכנים לשלם: <span id=""c_p_y""></span></p>","6","evaluation","23","7","6B,18B,22C,24C,29A","75","11","6","","","","","","","","","","","","","","","","",""
"","","","","","html-keyboard-response","21","106031","0.0-17.0-2.1","471924a9-ee50-4f6a-a87f-cb56913a24c3","null","<p style=""text-align: center;"">+</p>","null","fixation","","","","","","","","","","","","","","","","","","","","","","",""
"","","","","","html-slider-response","22","107039","0.0-17.0-0.2","471924a9-ee50-4f6a-a87f-cb56913a24c3","1000","
                  <p style=""text-align: center;"">₪36
                                                <br>70%</p>
                  <p id=""wtp"" style=""text-align:center; margin-top: 0px; margin-bottom: 0px; font-size: 40px"";>&ensp;</p>","-","viewing","0","13","3A,5C,10B","","","","","","","","","","","","","","","","","","","",""
"","","","","","html-slider-response","23","109391","0.0-17.0-1.2","471924a9-ee50-4f6a-a87f-cb56913a24c3","2351","
                  <p style=""text-align: center;"">₪36
                                                <br>70%</p>
                  <p id=""wtp"" style=""text-align:center; margin-top: 0px; margin-bottom: 0px; font-size: 40px"";>מוכנים לשלם: <span id=""c_p_y""></span></p>","47","evaluation","12","13","3A,5C,10B","70","36","47","","","","","","","","","","","","","","","","",""
"","","","","","html-keyboard-response","24","110735","0.0-17.0-2.2","471924a9-ee50-4f6a-a87f-cb56913a24c3","null","<p style=""text-align: center;"">+</p>","null","fixation","","","","","","","","","","","","","","","","","","","","","","",""
"","","","","","html-slider-response","25","111750","0.0-17.0-0.3","471924a9-ee50-4f6a-a87f-cb56913a24c3","1000","
                  <p style=""text-align: center;"">₪43
                                                <br>75%</p>
                  <p id=""wtp"" style=""text-align:center; margin-top: 0px; margin-bottom: 0px; font-size: 40px"";>&ensp;</p>","-","viewing","0","18","11B,19B,24A,26A","","","","","","","","","","","","","","","","","","","",""
"","","","","","html-slider-response","26","113711","0.0-17.0-1.3","471924a9-ee50-4f6a-a87f-cb56913a24c3","1961","
                  <p style=""text-align: center;"">₪43
                                                <br>75%</p>
                  <p id=""wtp"" style=""text-align:center; margin-top: 0px; margin-bottom: 0px; font-size: 40px"";>מוכנים לשלם: <span id=""c_p_y""></span></p>","20","evaluation","66","18","11B,19B,24A,26A","75","43","20","","","","","","","","","","","","","","","","",""
"","","","","","html-keyboard-response","27","114364","0.0-17.0-2.3","471924a9-ee50-4f6a-a87f-cb56913a24c3","null","<p style=""text-align: center;"">+</p>","null","fixation","","","","","","","","","","","","","","","","","","","","","","",""
"","","","","","html-slider-response","28","115380","0.0-17.0-0.4","471924a9-ee50-4f6a-a87f-cb56913a24c3","1000","
                  <p style=""text-align: center;"">₪61
                                                <br>45%</p>
                  <p id=""wtp"" style=""text-align:center; margin-top: 0px; margin-bottom: 0px; font-size: 40px"";>&ensp;</p>","-","viewing","0","22","10A,11A","","","","","","","","","","","","","","","","","","","",""
"","","","","","html-slider-response","29","117031","0.0-17.0-1.4","471924a9-ee50-4f6a-a87f-cb56913a24c3","1650","
                  <p style=""text-align: center;"">₪61
                                                <br>45%</p>
                  <p id=""wtp"" style=""text-align:center; margin-top: 0px; margin-bottom: 0px; font-size: 40px"";>מוכנים לשלם: <span id=""c_p_y""></span></p>","40","evaluation","11","22","10A,11A","45","61","40","","","","","","","","","","","","","","","","",""
"","","","","","html-keyboard-response","30","117832","0.0-17.0-2.4","471924a9-ee50-4f6a-a87f-cb56913a24c3","null","<p style=""text-align: center;"">+</p>","null","fixation","","","","","","","","","","","","","","","","","","","","","","",""
"","","","","","html-slider-response","31","118834","0.0-17.0-0.5","471924a9-ee50-4f6a-a87f-cb56913a24c3","1000","
                  <p style=""text-align: center;"">₪61
                                                <br>55%</p>
                  <p id=""wtp"" style=""text-align:center; margin-top: 0px; margin-bottom: 0px; font-size: 40px"";>&ensp;</p>","-","viewing","0","23","7B,26B","","","","","","","","","","","","","","","","","","","",""
"","","","","","html-slider-response","32","121055","0.0-17.0-1.5","471924a9-ee50-4f6a-a87f-cb56913a24c3","2220","
                  <p style=""text-align: center;"">₪61
                                                <br>55%</p>
                  <p id=""wtp"" style=""text-align:center; margin-top: 0px; margin-bottom: 0px; font-size: 40px"";>מוכנים לשלם: <span id=""c_p_y""></span></p>","38","evaluation","51","23","7B,26B","55","61","38","","","","","","","","","","","","","","","","",""
"","","","","","html-keyboard-response","33","122188","0.0-17.0-2.5","471924a9-ee50-4f6a-a87f-cb56913a24c3","null","<p style=""text-align: center;"">+</p>","null","fixation","","","","","","","","","","","","","","","","","","","","","","",""
"","","","","","html-slider-response","34","123202","0.0-17.0-0.6","471924a9-ee50-4f6a-a87f-cb56913a24c3","1000","
                  <p style=""text-align: center;"">₪4
                                                <br>75%</p>
                  <p id=""wtp"" style=""text-align:center; margin-top: 0px; margin-bottom: 0px; font-size: 40px"";>&ensp;</p>","-","viewing","0","3","12B,20B,23B,27C,29C","","","","","","","","","","","","","","","","","","","",""
"","","","","","html-slider-response","35","125055","0.0-17.0-1.6","471924a9-ee50-4f6a-a87f-cb56913a24c3","1851","
                  <p style=""text-align: center;"">₪4
                                                <br>75%</p>
                  <p id=""wtp"" style=""text-align:center; margin-top: 0px; margin-bottom: 0px; font-size: 40px"";>מוכנים לשלם: <span id=""c_p_y""></span></p>","0","evaluation","46","3","12B,20B,23B,27C,29C","75","4","0","","","","","","","","","","","","","","","","",""
"","","","","","html-keyboard-response","36","125944","0.0-17.0-2.6","471924a9-ee50-4f6a-a87f-cb56913a24c3","null","<p style=""text-align: center;"">+</p>","null","fixation","","","","","","","","","","","","","","","","","","","","","","",""
"","","","","","html-slider-response","37","126956","0.0-17.0-0.7","471924a9-ee50-4f6a-a87f-cb56913a24c3","1000","
                  <p style=""text-align: center;"">₪64
                                                <br>50%</p>
                  <p id=""wtp"" style=""text-align:center; margin-top: 0px; margin-bottom: 0px; font-size: 40px"";>&ensp;</p>","-","viewing","0","25","1B,3B,4A","","","","","","","","","","","","","","","","","","","",""
"","","","","","html-slider-response","38","130312","0.0-17.0-1.7","471924a9-ee50-4f6a-a87f-cb56913a24c3","3354","
                  <p style=""text-align: center;"">₪64
                                                <br>50%</p>
                  <p id=""wtp"" style=""text-align:center; margin-top: 0px; margin-bottom: 0px; font-size: 40px"";>מוכנים לשלם: <span id=""c_p_y""></span></p>","28","evaluation","14","25","1B,3B,4A","50","64","29","","","","","","","","","","","","","","","","",""
"","","","","","html-keyboard-response","39","131240","0.0-17.0-2.7","471924a9-ee50-4f6a-a87f-cb56913a24c3","null","<p style=""text-align: center;"">+</p>","null","fixation","","","","","","","","","","","","","","","","","","","","","","",""
"","","","","","html-slider-response","40","132250","0.0-17.0-0.8","471924a9-ee50-4f6a-a87f-cb56913a24c3","1000","
                  <p style=""text-align: center;"">₪71
                                                <br>55%</p>
                  <p id=""wtp"" style=""text-align:center; margin-top: 0px; margin-bottom: 0px; font-size: 40px"";>&ensp;</p>","-","viewing","0","27","5B,18A","","","","","","","","","","","","","","","","","","","",""
"","","","","","html-slider-response","41","134639","0.0-17.0-1.8","471924a9-ee50-4f6a-a87f-cb56913a24c3","2388","
                  <p style=""text-align: center;"">₪71
                                                <br>55%</p>
                  <p id=""wtp"" style=""text-align:center; margin-top: 0px; margin-bottom: 0px; font-size: 40px"";>מוכנים לשלם: <span id=""c_p_y""></span></p>","44","evaluation","68","27","5B,18A","55","71","44","","","","","","","","","","","","","","","","",""
"","","","","","html-keyboard-response","42","135318","0.0-17.0-2.8","471924a9-ee50-4f6a-a87f-cb56913a24c3","null","<p style=""text-align: center;"">+</p>","null","fixation","","","","","","","","","","","","","","","","","","","","","","",""
"","","","","","html-slider-response","43","136324","0.0-17.0-0.9","471924a9-ee50-4f6a-a87f-cb56913a24c3","1000","
                  <p style=""text-align: center;"">₪58
                                                <br>40%</p>
                  <p id=""wtp"" style=""text-align:center; margin-top: 0px; margin-bottom: 0px; font-size: 40px"";>&ensp;</p>","-","viewing","0","20","10C,13A,19C,21B","","","","","","","","","","","","","","","","","","","",""
"","","","","","html-slider-response","44","138999","0.0-17.0-1.9","471924a9-ee50-4f6a-a87f-cb56913a24c3","2674","
                  <p style=""text-align: center;"">₪58
                                                <br>40%</p>
                  <p id=""wtp"" style=""text-align:center; margin-top: 0px; margin-bottom: 0px; font-size: 40px"";>מוכנים לשלם: <span id=""c_p_y""></span></p>","20","evaluation","41","20","10C,13A,19C,21B","40","58","20","","","","","","","","","","","","","","","","",""
"","","","","","html-keyboard-response","45","139915","0.0-17.0-2.9","471924a9-ee50-4f6a-a87f-cb56913a24c3","null","<p style=""text-align: center;"">+</p>","null","fixation","","","","","","","","","","","","","","","","","","","","","","",""
"","","","","","html-slider-response","46","140929","0.0-17.0-0.10","471924a9-ee50-4f6a-a87f-cb56913a24c3","1000","
                  <p style=""text-align: center;"">₪71
                                                <br>45%</p>
                  <p id=""wtp"" style=""text-align:center; margin-top: 0px; margin-bottom: 0px; font-size: 40px"";>&ensp;</p>","-","viewing","0","26","2B,16A","","","","","","","","","","","","","","","","","","","",""
"","","","","","html-slider-response","47","142519","0.0-17.0-1.10","471924a9-ee50-4f6a-a87f-cb56913a24c3","1588","
                  <p style=""text-align: center;"">₪71
                                                <br>45%</p>
                  <p id=""wtp"" style=""text-align:center; margin-top: 0px; margin-bottom: 0px; font-size: 40px"";>מוכנים לשלם: <span id=""c_p_y""></span></p>","9","evaluation","26","26","2B,16A","45","71","9","","","","","","","","","","","","","","","","",""
"","","","","","html-keyboard-response","48","143496","0.0-17.0-2.10","471924a9-ee50-4f6a-a87f-cb56913a24c3","null","<p style=""text-align: center;"">+</p>","null","fixation","","","","","","","","","","","","","","","","","","","","","","",""
"","","","","","html-slider-response","49","144513","0.0-17.0-0.11","471924a9-ee50-4f6a-a87f-cb56913a24c3","1000","
                  <p style=""text-align: center;"">₪43
                                                <br>60%</p>
                  <p id=""wtp"" style=""text-align:center; margin-top: 0px; margin-bottom: 0px; font-size: 40px"";>&ensp;</p>","-","viewing","0","17","2A,7A,9A,15B","","","","","","","","","","","","","","","","","","","",""
"","","","","","html-slider-response","50","148143","0.0-17.0-1.11","471924a9-ee50-4f6a-a87f-cb56913a24c3","3629","
                  <p style=""text-align: center;"">₪43
                                                <br>60%</p>
                  <p id=""wtp"" style=""text-align:center; margin-top: 0px; margin-bottom: 0px; font-size: 40px"";>מוכנים לשלם: <span id=""c_p_y""></span></p>","15","evaluation","24","17","2A,7A,9A,15B","60","43","15","","","","","","","","","","","","","","","","",""
"","","","","","html-keyboard-response","51","148935","0.0-17.0-2.11","471924a9-ee50-4f6a-a87f-cb56913a24c3","null","<p style=""text-align: center;"">+</p>","null","fixation","","","","","","","","","","","","","","","","","","","","","","",""
"","","","","","html-slider-response","52","149937","0.0-17.0-0.12","471924a9-ee50-4f6a-a87f-cb56913a24c3","1000","
                  <p style=""text-align: center;"">₪58
                                                <br>45%</p>
                  <p id=""wtp"" style=""text-align:center; margin-top: 0px; margin-bottom: 0px; font-size: 40px"";>&ensp;</p>","-","viewing","0","21","11C,18C,25A","","","","","","","","","","","","","","","","","","","",""
"","","","","","html-slider-response","53","152991","0.0-17.0-1.12","471924a9-ee50-4f6a-a87f-cb56913a24c3","3052","
                  <p style=""text-align: center;"">₪58
                                                <br>45%</p>
                  <p id=""wtp"" style=""text-align:center; margin-top: 0px; margin-bottom: 0px; font-size: 40px"";>מוכנים לשלם: <span id=""c_p_y""></span></p>","16","evaluation","33","21","11C,18C,25A","45","58","16","","","","","","","","","","","","","","","","",""
"","","","","","html-keyboard-response","54","154212","0.0-17.0-2.12","471924a9-ee50-4f6a-a87f-cb56913a24c3","null","<p style=""text-align: center;"">+</p>","null","fixation","","","","","","","","","","","","","","","","","","","","","","",""
"","","","","","html-slider-response","55","155222","0.0-17.0-0.13","471924a9-ee50-4f6a-a87f-cb56913a24c3","1000","
                  <p style=""text-align: center;"">₪36
                                                <br>30%</p>
                  <p id=""wtp"" style=""text-align:center; margin-top: 0px; margin-bottom: 0px; font-size: 40px"";>&ensp;</p>","-","viewing","0","11","3C,20A,22A","","","","","","","","","","","","","","","","","","","",""
"","","","","","html-slider-response","56","157559","0.0-17.0-1.13","471924a9-ee50-4f6a-a87f-cb56913a24c3","2336","
                  <p style=""text-align: center;"">₪36
                                                <br>30%</p>
                  <p id=""wtp"" style=""text-align:center; margin-top: 0px; margin-bottom: 0px; font-size: 40px"";>מוכנים לשלם: <span id=""c_p_y""></span></p>","5","evaluation","42","11","3C,20A,22A","30","36","5","","","","","","","","","","","","","","","","",""
"","","","","","html-keyboard-response","57","158458","0.0-17.0-2.13","471924a9-ee50-4f6a-a87f-cb56913a24c3","null","<p style=""text-align: center;"">+</p>","null","fixation","","","","","","","","","","","","","","","","","","","","","","",""
"","","","","","html-slider-response","58","159469","0.0-17.0-0.14","471924a9-ee50-4f6a-a87f-cb56913a24c3","1000","
                  <p style=""text-align: center;"">₪79
                                                <br>65%</p>
                  <p id=""wtp"" style=""text-align:center; margin-top: 0px; margin-bottom: 0px; font-size: 40px"";>&ensp;</p>","-","viewing","0","31","8A","","","","","","","","","","","","","","","","","","","",""
"","","","","","html-slider-response","59","163119","0.0-17.0-1.14","471924a9-ee50-4f6a-a87f-cb56913a24c3","3648","
                  <p style=""text-align: center;"">₪79
                                                <br>65%</p>
                  <p id=""wtp"" style=""text-align:center; margin-top: 0px; margin-bottom: 0px; font-size: 40px"";>מוכנים לשלם: <span id=""c_p_y""></span></p>","20","evaluation","58","31","8A","65","79","20","","","","","","","","","","","","","","","","",""
"","","","","","html-keyboard-response","60","163759","0.0-17.0-2.14","471924a9-ee50-4f6a-a87f-cb56913a24c3","null","<p style=""text-align: center;"">+</p>","null","fixation","","","","","","","","","","","","","","","","","","","","","","",""
"","","","","","html-slider-response","61","164765","0.0-17.0-0.15","471924a9-ee50-4f6a-a87f-cb56913a24c3","1000","
                  <p style=""text-align: center;"">₪36
                                                <br>75%</p>
                  <p id=""wtp"" style=""text-align:center; margin-top: 0px; margin-bottom: 0px; font-size: 40px"";>&ensp;</p>","-","viewing","0","14","4B,5A,13B,16B","","","","","","","","","","","","","","","","","","","",""
"","","","","","html-slider-response","62","167719","0.0-17.0-1.15","471924a9-ee50-4f6a-a87f-cb56913a24c3","2952","
                  <p style=""text-align: center;"">₪36
                                                <br>75%</p>
                  <p id=""wtp"" style=""text-align:center; margin-top: 0px; margin-bottom: 0px; font-size: 40px"";>מוכנים לשלם: <span id=""c_p_y""></span></p>","9","evaluation","26","14","4B,5A,13B,16B","75","36","10","","","","","","","","","","","","","","","","",""
"","","","","","html-keyboard-response","63","168550","0.0-17.0-2.15","471924a9-ee50-4f6a-a87f-cb56913a24c3","null","<p style=""text-align: center;"">+</p>","null","fixation","","","","","","","","","","","","","","","","","","","","","","",""
"","","","","","html-slider-response","64","169566","0.0-17.0-0.16","471924a9-ee50-4f6a-a87f-cb56913a24c3","1000","
                  <p style=""text-align: center;"">₪76
                                                <br>65%</p>
                  <p id=""wtp"" style=""text-align:center; margin-top: 0px; margin-bottom: 0px; font-size: 40px"";>&ensp;</p>","-","viewing","0","29","8C,19A,24B","","","","","","","","","","","","","","","","","","","",""
"","","","","","html-slider-response","65","172287","0.0-17.0-1.16","471924a9-ee50-4f6a-a87f-cb56913a24c3","2720","
                  <p style=""text-align: center;"">₪76
                                                <br>65%</p>
                  <p id=""wtp"" style=""text-align:center; margin-top: 0px; margin-bottom: 0px; font-size: 40px"";>מוכנים לשלם: <span id=""c_p_y""></span></p>","30","evaluation","78","29","8C,19A,24B","65","76","30","","","","","","","","","","","","","","","","",""
"","","","","","html-keyboard-response","66","173384","0.0-17.0-2.16","471924a9-ee50-4f6a-a87f-cb56913a24c3","null","<p style=""text-align: center;"">+</p>","null","fixation","","","","","","","","","","","","","","","","","","","","","","",""
"","","","","","html-slider-response","67","174392","0.0-17.0-0.17","471924a9-ee50-4f6a-a87f-cb56913a24c3","1000","
                  <p style=""text-align: center;"">₪36
                                                <br>60%</p>
                  <p id=""wtp"" style=""text-align:center; margin-top: 0px; margin-bottom: 0px; font-size: 40px"";>&ensp;</p>","-","viewing","0","12","1C,7C,15C","","","","","","","","","","","","","","","","","","","",""
"","","","","","html-slider-response","68","178119","0.0-17.0-1.17","471924a9-ee50-4f6a-a87f-cb56913a24c3","3725","
                  <p style=""text-align: center;"">₪36
                                                <br>60%</p>
                  <p id=""wtp"" style=""text-align:center; margin-top: 0px; margin-bottom: 0px; font-size: 40px"";>מוכנים לשלם: <span id=""c_p_y""></span></p>","13","evaluation","55","12","1C,7C,15C","60","36","13","","","","","","","","","","","","","","","","",""
"","","","","","html-keyboard-response","69","178898","0.0-17.0-2.17","471924a9-ee50-4f6a-a87f-cb56913a24c3","null","<p style=""text-align: center;"">+</p>","null","fixation","","","","","","","","","","","","","","","","","","","","","","",""
"","","","","","html-slider-response","70","179908","0.0-17.0-0.18","471924a9-ee50-4f6a-a87f-cb56913a24c3","1000","
                  <p style=""text-align: center;"">₪4
                                                <br>50%</p>
                  <p id=""wtp"" style=""text-align:center; margin-top: 0px; margin-bottom: 0px; font-size: 40px"";>&ensp;</p>","-","viewing","0","2","4C,17B","","","","","","","","","","","","","","","","","","","",""
"","","","","","html-slider-response","71","181456","0.0-17.0-1.18","471924a9-ee50-4f6a-a87f-cb56913a24c3","1546","
                  <p style=""text-align: center;"">₪4
                                                <br>50%</p>
                  <p id=""wtp"" style=""text-align:center; margin-top: 0px; margin-bottom: 0px; font-size: 40px"";>מוכנים לשלם: <span id=""c_p_y""></span></p>","0","evaluation","5","2","4C,17B","50","4","1","","","","","","","","","","","","","","","","",""
"","","","","","html-keyboard-response","72","182320","0.0-17.0-2.18","471924a9-ee50-4f6a-a87f-cb56913a24c3","null","<p style=""text-align: center;"">+</p>","null","fixation","","","","","","","","","","","","","","","","","","","","","","",""
"","","","","","html-slider-response","73","183322","0.0-17.0-0.19","471924a9-ee50-4f6a-a87f-cb56913a24c3","1000","
                  <p style=""text-align: center;"">₪71
                                                <br>75%</p>
                  <p id=""wtp"" style=""text-align:center; margin-top: 0px; margin-bottom: 0px; font-size: 40px"";>&ensp;</p>","-","viewing","0","28","8B","","","","","","","","","","","","","","","","","","","",""
"","","","","","html-slider-response","74","186352","0.0-17.0-1.19","471924a9-ee50-4f6a-a87f-cb56913a24c3","3028","
                  <p style=""text-align: center;"">₪71
                                                <br>75%</p>
                  <p id=""wtp"" style=""text-align:center; margin-top: 0px; margin-bottom: 0px; font-size: 40px"";>מוכנים לשלם: <span id=""c_p_y""></span></p>","20","evaluation","47","28","8B","75","71","20","","","","","","","","","","","","","","","","",""
"","","","","","html-keyboard-response","75","187361","0.0-17.0-2.19","471924a9-ee50-4f6a-a87f-cb56913a24c3","null","<p style=""text-align: center;"">+</p>","null","fixation","","","","","","","","","","","","","","","","","","","","","","",""
"","","","","","html-slider-response","76","188376","0.0-17.0-0.20","471924a9-ee50-4f6a-a87f-cb56913a24c3","1000","
                  <p style=""text-align: center;"">₪18
                                                <br>25%</p>
                  <p id=""wtp"" style=""text-align:center; margin-top: 0px; margin-bottom: 0px; font-size: 40px"";>&ensp;</p>","-","viewing","0","9","14A,23A","","","","","","","","","","","","","","","","","","","",""
"","","","","","html-slider-response","77","192379","0.0-17.0-1.20","471924a9-ee50-4f6a-a87f-cb56913a24c3","null","
                  <p style=""text-align: center;"">₪18
                                                <br>25%</p>
                  <p id=""wtp"" style=""text-align:center; margin-top: 0px; margin-bottom: 0px; font-size: 40px"";>מוכנים לשלם: <span id=""c_p_y""></span></p>","null","evaluation","49","9","14A,23A","25","18","1","","","","","","","","","","","","","","","","",""
"","","","","","html-keyboard-response","78","193624","0.0-17.0-2.20","471924a9-ee50-4f6a-a87f-cb56913a24c3","null","<p style=""text-align: center;"">+</p>","null","fixation","","","","","","","","","","","","","","","","","","","","","","",""
"","","","","","html-slider-response","79","194640","0.0-17.0-0.21","471924a9-ee50-4f6a-a87f-cb56913a24c3","1000","
                  <p style=""text-align: center;"">₪4
                                                <br>25%</p>
                  <p id=""wtp"" style=""text-align:center; margin-top: 0px; margin-bottom: 0px; font-size: 40px"";>&ensp;</p>","-","viewing","0","1","6C,29B,30C","","","","","","","","","","","","","","","","","","","",""
"","","","","","html-slider-response","80","196104","0.0-17.0-1.21","471924a9-ee50-4f6a-a87f-cb56913a24c3","1462","
                  <p style=""text-align: center;"">₪4
                                                <br>25%</p>
                  <p id=""wtp"" style=""text-align:center; margin-top: 0px; margin-bottom: 0px; font-size: 40px"";>מוכנים לשלם: <span id=""c_p_y""></span></p>","1","evaluation","54","1","6C,29B,30C","25","4","2","","","","","","","","","","","","","","","","",""
"","","","","","html-keyboard-response","81","196768","0.0-17.0-2.21","471924a9-ee50-4f6a-a87f-cb56913a24c3","null","<p style=""text-align: center;"">+</p>","null","fixation","","","","","","","","","","","","","","","","","","","","","","",""
"","","","","","html-slider-response","82","197779","0.0-17.0-0.22","471924a9-ee50-4f6a-a87f-cb56913a24c3","1000","
                  <p style=""text-align: center;"">₪11
                                                <br>20%</p>
                  <p id=""wtp"" style=""text-align:center; margin-top: 0px; margin-bottom: 0px; font-size: 40px"";>&ensp;</p>","-","viewing","0","4","12C,17C,23C,28C","","","","","","","","","","","","","","","","","","","",""
"","","","","","html-slider-response","83","199656","0.0-17.0-1.22","471924a9-ee50-4f6a-a87f-cb56913a24c3","1876","
                  <p style=""text-align: center;"">₪11
                                                <br>20%</p>
                  <p id=""wtp"" style=""text-align:center; margin-top: 0px; margin-bottom: 0px; font-size: 40px"";>מוכנים לשלם: <span id=""c_p_y""></span></p>","1","evaluation","36","4","12C,17C,23C,28C","20","11","1","","","","","","","","","","","","","","","","",""
"","","","","","html-keyboard-response","84","200270","0.0-17.0-2.22","471924a9-ee50-4f6a-a87f-cb56913a24c3","null","<p style=""text-align: center;"">+</p>","null","fixation","","","","","","","","","","","","","","","","","","","","","","",""
"","","","","","html-slider-response","85","201281","0.0-17.0-0.23","471924a9-ee50-4f6a-a87f-cb56913a24c3","1000","
                  <p style=""text-align: center;"">₪11
                                                <br>25%</p>
                  <p id=""wtp"" style=""text-align:center; margin-top: 0px; margin-bottom: 0px; font-size: 40px"";>&ensp;</p>","-","viewing","0","5","12A,27B,28B,30B","","","","","","","","","","","","","","","","","","","",""
"","","","","","html-slider-response","86","203032","0.0-17.0-1.23","471924a9-ee50-4f6a-a87f-cb56913a24c3","1750","
                  <p style=""text-align: center;"">₪11
                                                <br>25%</p>
                  <p id=""wtp"" style=""text-align:center; margin-top: 0px; margin-bottom: 0px; font-size: 40px"";>מוכנים לשלם: <span id=""c_p_y""></span></p>","1","evaluation","14","5","12A,27B,28B,30B","25","11","1","","","","","","","","","","","","","","","","",""
"","","","","","html-keyboard-response","87","203804","0.0-17.0-2.23","471924a9-ee50-4f6a-a87f-cb56913a24c3","null","<p style=""text-align: center;"">+</p>","null","fixation","","","","","","","","","","","","","","","","","","","","","","",""
"","","","","","html-slider-response","88","204811","0.0-17.0-0.24","471924a9-ee50-4f6a-a87f-cb56913a24c3","1000","
                  <p style=""text-align: center;"">₪79
                                                <br>40%</p>
                  <p id=""wtp"" style=""text-align:center; margin-top: 0px; margin-bottom: 0px; font-size: 40px"";>&ensp;</p>","-","viewing","0","30","9B","","","","","","","","","","","","","","","","","","","",""
"","","","","","html-slider-response","89","207472","0.0-17.0-1.24","471924a9-ee50-4f6a-a87f-cb56913a24c3","2660","
                  <p style=""text-align: center;"">₪79
                                                <br>40%</p>
                  <p id=""wtp"" style=""text-align:center; margin-top: 0px; margin-bottom: 0px; font-size: 40px"";>מוכנים לשלם: <span id=""c_p_y""></span></p>","18","evaluation","18","30","9B","40","79","18","","","","","","","","","","","","","","","","",""
"","","","","","html-keyboard-response","90","208490","0.0-17.0-2.24","471924a9-ee50-4f6a-a87f-cb56913a24c3","null","<p style=""text-align: center;"">+</p>","null","fixation","","","","","","","","","","","","","","","","","","","","","","",""
"","","","","","html-slider-response","91","209492","0.0-17.0-0.25","471924a9-ee50-4f6a-a87f-cb56913a24c3","1000","
                  <p style=""text-align: center;"">₪39
                                                <br>60%</p>
                  <p id=""wtp"" style=""text-align:center; margin-top: 0px; margin-bottom: 0px; font-size: 40px"";>&ensp;</p>","-","viewing","0","15","9C,25B","","","","","","","","","","","","","","","","","","","",""
"","","","","","html-slider-response","92","211624","0.0-17.0-1.25","471924a9-ee50-4f6a-a87f-cb56913a24c3","2131","
                  <p style=""text-align: center;"">₪39
                                                <br>60%</p>
                  <p id=""wtp"" style=""text-align:center; margin-top: 0px; margin-bottom: 0px; font-size: 40px"";>מוכנים לשלם: <span id=""c_p_y""></span></p>","9","evaluation","55","15","9C,25B","60","39","9","","","","","","","","","","","","","","","","",""
"","","","","","html-keyboard-response","93","212671","0.0-17.0-2.25","471924a9-ee50-4f6a-a87f-cb56913a24c3","null","<p style=""text-align: center;"">+</p>","null","fixation","","","","","","","","","","","","","","","","","","","","","","",""
"","","","","","html-slider-response","94","213686","0.0-17.0-0.26","471924a9-ee50-4f6a-a87f-cb56913a24c3","1000","
                  <p style=""text-align: center;"">₪18
                                                <br>50%</p>
                  <p id=""wtp"" style=""text-align:center; margin-top: 0px; margin-bottom: 0px; font-size: 40px"";>&ensp;</p>","-","viewing","0","10","2C,16C,22B,28A","","","","","","","","","","","","","","","","","","","",""
"","","","","","html-slider-response","95","216600","0.0-17.0-1.26","471924a9-ee50-4f6a-a87f-cb56913a24c3","2912","
                  <p style=""text-align: center;"">₪18
                                                <br>50%</p>
                  <p id=""wtp"" style=""text-align:center; margin-top: 0px; margin-bottom: 0px; font-size: 40px"";>מוכנים לשלם: <span id=""c_p_y""></span></p>","1","evaluation","80","10","2C,16C,22B,28A","50","18","2","","","","","","","","","","","","","","","","",""
"","","","","","html-keyboard-response","96","217538","0.0-17.0-2.26","471924a9-ee50-4f6a-a87f-cb56913a24c3","null","<p style=""text-align: center;"">+</p>","null","fixation","","","","","","","","","","","","","","","","","","","","","","",""
"","","","","","html-slider-response","97","218554","0.0-17.0-0.27","471924a9-ee50-4f6a-a87f-cb56913a24c3","1000","
                  <p style=""text-align: center;"">₪58
                                                <br>30%</p>
                  <p id=""wtp"" style=""text-align:center; margin-top: 0px; margin-bottom: 0px; font-size: 40px"";>&ensp;</p>","-","viewing","0","19","13C,30A","","","","","","","","","","","","","","","","","","","",""
"","","","","","html-slider-response","98","221808","0.0-17.0-1.27","471924a9-ee50-4f6a-a87f-cb56913a24c3","3252","
                  <p style=""text-align: center;"">₪58
                                                <br>30%</p>
                  <p id=""wtp"" style=""text-align:center; margin-top: 0px; margin-bottom: 0px; font-size: 40px"";>מוכנים לשלם: <span id=""c_p_y""></span></p>","15","evaluation","58","19","13C,30A","30","58","15","","","","","","","","","","","","","","","","",""
"","","","","","html-keyboard-response","99","222413","0.0-17.0-2.27","471924a9-ee50-4f6a-a87f-cb56913a24c3","null","<p style=""text-align: center;"">+</p>","null","fixation","","","","","","","","","","","","","","","","","","","","","","",""
"","","","","","html-slider-response","100","223429","0.0-17.0-0.28","471924a9-ee50-4f6a-a87f-cb56913a24c3","1000","
                  <p style=""text-align: center;"">₪39
                                                <br>65%</p>
                  <p id=""wtp"" style=""text-align:center; margin-top: 0px; margin-bottom: 0px; font-size: 40px"";>&ensp;</p>","-","viewing","0","16","1A,15A,26C","","","","","","","","","","","","","","","","","","","",""
"","","","","","html-slider-response","101","225848","0.0-17.0-1.28","471924a9-ee50-4f6a-a87f-cb56913a24c3","2417","
                  <p style=""text-align: center;"">₪39
                                                <br>65%</p>
                  <p id=""wtp"" style=""text-align:center; margin-top: 0px; margin-bottom: 0px; font-size: 40px"";>מוכנים לשלם: <span id=""c_p_y""></span></p>","13","evaluation","47","16","1A,15A,26C","65","39","13","","","","","","","","","","","","","","","","",""
"","","","","","html-keyboard-response","102","227090","0.0-17.0-2.28","471924a9-ee50-4f6a-a87f-cb56913a24c3","null","<p style=""text-align: center;"">+</p>","null","fixation","","","","","","","","","","","","","","","","","","","","","","",""
"","","","","","html-slider-response","103","228106","0.0-17.0-0.29","471924a9-ee50-4f6a-a87f-cb56913a24c3","1000","
                  <p style=""text-align: center;"">₪11
                                                <br>45%</p>
                  <p id=""wtp"" style=""text-align:center; margin-top: 0px; margin-bottom: 0px; font-size: 40px"";>&ensp;</p>","-","viewing","0","6","14B,21C,25C","","","","","","","","","","","","","","","","","","","",""
"","","","","","html-slider-response","104","229760","0.0-17.0-1.29","471924a9-ee50-4f6a-a87f-cb56913a24c3","1652","
                  <p style=""text-align: center;"">₪11
                                                <br>45%</p>
                  <p id=""wtp"" style=""text-align:center; margin-top: 0px; margin-bottom: 0px; font-size: 40px"";>מוכנים לשלם: <span id=""c_p_y""></span></p>","3","evaluation","48","6","14B,21C,25C","45","11","3","","","","","","","","","","","","","","","","",""
"","","","","","html-keyboard-response","105","231166","0.0-17.0-2.29","471924a9-ee50-4f6a-a87f-cb56913a24c3","null","<p style=""text-align: center;"">+</p>","null","fixation","","","","","","","","","","","","","","","","","","","","","","",""
"","","","","","html-slider-response","106","232182","0.0-17.0-0.30","471924a9-ee50-4f6a-a87f-cb56913a24c3","1000","
                  <p style=""text-align: center;"">₪64
                                                <br>25%</p>
                  <p id=""wtp"" style=""text-align:center; margin-top: 0px; margin-bottom: 0px; font-size: 40px"";>&ensp;</p>","-","viewing","0","24","6A,21A","","","","","","","","","","","","","","","","","","","",""
"","","","","","html-slider-response","107","235560","0.0-17.0-1.30","471924a9-ee50-4f6a-a87f-cb56913a24c3","3376","
                  <p style=""text-align: center;"">₪64
                                                <br>25%</p>
                  <p id=""wtp"" style=""text-align:center; margin-top: 0px; margin-bottom: 0px; font-size: 40px"";>מוכנים לשלם: <span id=""c_p_y""></span></p>","12","evaluation","9","24","6A,21A","25","64","12","","","","","","","","","","","","","","","","",""
"","","","","","html-keyboard-response","108","236322","0.0-17.0-2.30","471924a9-ee50-4f6a-a87f-cb56913a24c3","null","<p style=""text-align: center;"">+</p>","null","fixation","","","","","","","","","","","","","","","","","","","","","","",""
"","","","","","html-keyboard-response","109","237325","0.0-18.0","471924a9-ee50-4f6a-a87f-cb56913a24c3","null","<p style=""text-align: center;"">+</p>","null","fixation","","","","","","","","","","","","","","","","","","","","","","",""
"","","","","","html-keyboard-response","110","239463","0.0-19.0","471924a9-ee50-4f6a-a87f-cb56913a24c3","null","<p>הפסקה.
          <br>לחצו כדי להמשיך.</p>","1","scan_wait","","","","","","","","","","","","","","","","","","","","","","",""
"","","","","","html-keyboard-response","111","240464","0.0-20.0","471924a9-ee50-4f6a-a87f-cb56913a24c3","null","<p style=""text-align: center;"">+</p>","null","fixation","","","","","","","","","","","","","","","","","","","","","","",""
"","","","","","html-slider-response","112","241479","0.0-21.0-0.0","471924a9-ee50-4f6a-a87f-cb56913a24c3","1000","
                  <p style=""text-align: center;"">₪71
                                                <br>45%</p>
                  <p id=""wtp"" style=""text-align:center; margin-top: 0px; margin-bottom: 0px; font-size: 40px"";>&ensp;</p>","-","viewing","0","26","2B,16A","","","","","","","","","","","","","","","","","","","",""
"","","","","","html-slider-response","113","244440","0.0-21.0-1.0","471924a9-ee50-4f6a-a87f-cb56913a24c3","2959","
                  <p style=""text-align: center;"">₪71
                                                <br>45%</p>
                  <p id=""wtp"" style=""text-align:center; margin-top: 0px; margin-bottom: 0px; font-size: 40px"";>מוכנים לשלם: <span id=""c_p_y""></span></p>","21","evaluation","68","26","2B,16A","45","71","21","","","","","","","","","","","","","","","","",""
"","","","","","html-keyboard-response","114","245797","0.0-21.0-2.0","471924a9-ee50-4f6a-a87f-cb56913a24c3","null","<p style=""text-align: center;"">+</p>","null","fixation","","","","","","","","","","","","","","","","","","","","","","",""
"","","","","","html-slider-response","115","246802","0.0-21.0-0.1","471924a9-ee50-4f6a-a87f-cb56913a24c3","1000","
                  <p style=""text-align: center;"">₪4
                                                <br>75%</p>
                  <p id=""wtp"" style=""text-align:center; margin-top: 0px; margin-bottom: 0px; font-size: 40px"";>&ensp;</p>","-","viewing","0","3","12B,20B,23B,27C,29C","","","","","","","","","","","","","","","","","","","",""
"","","","","","html-slider-response","116","247872","0.0-21.0-1.1","471924a9-ee50-4f6a-a87f-cb56913a24c3","1068","
                  <p style=""text-align: center;"">₪4
                                                <br>75%</p>
                  <p id=""wtp"" style=""text-align:center; margin-top: 0px; margin-bottom: 0px; font-size: 40px"";>מוכנים לשלם: <span id=""c_p_y""></span></p>","1","evaluation","68","3","12B,20B,23B,27C,29C","75","4","2","","","","","","","","","","","","","","","","",""
"","","","","","html-keyboard-response","117","248595","0.0-21.0-2.1","471924a9-ee50-4f6a-a87f-cb56913a24c3","null","<p style=""text-align: center;"">+</p>","null","fixation","","","","","","","","","","","","","","","","","","","","","","",""
"","","","","","html-slider-response","118","249604","0.0-21.0-0.2","471924a9-ee50-4f6a-a87f-cb56913a24c3","1000","
                  <p style=""text-align: center;"">₪79
                                                <br>65%</p>
                  <p id=""wtp"" style=""text-align:center; margin-top: 0px; margin-bottom: 0px; font-size: 40px"";>&ensp;</p>","-","viewing","0","31","8A","","","","","","","","","","","","","","","","","","","",""
"","","","","","html-slider-response","119","251160","0.0-21.0-1.2","471924a9-ee50-4f6a-a87f-cb56913a24c3","1554","
                  <p style=""text-align: center;"">₪79
                                                <br>65%</p>
                  <p id=""wtp"" style=""text-align:center; margin-top: 0px; margin-bottom: 0px; font-size: 40px"";>מוכנים לשלם: <span id=""c_p_y""></span></p>","32","evaluation","12","31","8A","65","79","32","","","","","","","","","","","","","","","","",""
"","","","","","html-keyboard-response","120","252411","0.0-21.0-2.2","471924a9-ee50-4f6a-a87f-cb56913a24c3","null","<p style=""text-align: center;"">+</p>","null","fixation","","","","","","","","","","","","","","","","","","","","","","",""
"","","","","","html-slider-response","121","253427","0.0-21.0-0.3","471924a9-ee50-4f6a-a87f-cb56913a24c3","1000","
                  <p style=""text-align: center;"">₪39
                                                <br>65%</p>
                  <p id=""wtp"" style=""text-align:center; margin-top: 0px; margin-bottom: 0px; font-size: 40px"";>&ensp;</p>","-","viewing","0","16","1A,15A,26C","","","","","","","","","","","","","","","","","","","",""
"","","","","","html-slider-response","122","255256","0.0-21.0-1.3","471924a9-ee50-4f6a-a87f-cb56913a24c3","1827","
                  <p style=""text-align: center;"">₪39
                                                <br>65%</p>
                  <p id=""wtp"" style=""text-align:center; margin-top: 0px; margin-bottom: 0px; font-size: 40px"";>מוכנים לשלם: <span id=""c_p_y""></span></p>","6","evaluation","1","16","1A,15A,26C","65","39","7","","","","","","","","","","","","","","","","",""
"","","","","","html-keyboard-response","123","255994","0.0-21.0-2.3","471924a9-ee50-4f6a-a87f-cb56913a24c3","null","<p style=""text-align: center;"">+</p>","null","fixation","","","","","","","","","","","","","","","","","","","","","","",""
"","","","","","html-slider-response","124","257010","0.0-21.0-0.4","471924a9-ee50-4f6a-a87f-cb56913a24c3","1000","
                  <p style=""text-align: center;"">₪4
                                                <br>50%</p>
                  <p id=""wtp"" style=""text-align:center; margin-top: 0px; margin-bottom: 0px; font-size: 40px"";>&ensp;</p>","-","viewing","0","2","4C,17B","","","","","","","","","","","","","","","","","","","",""
"","","","","","html-slider-response","125","258704","0.0-21.0-1.4","471924a9-ee50-4f6a-a87f-cb56913a24c3","1692","
                  <p style=""text-align: center;"">₪4
                                                <br>50%</p>
                  <p id=""wtp"" style=""text-align:center; margin-top: 0px; margin-bottom: 0px; font-size: 40px"";>מוכנים לשלם: <span id=""c_p_y""></span></p>","0","evaluation","62","2","4C,17B","50","4","1","","","","","","","","","","","","","","","","",""
"","","","","","html-keyboard-response","126","259329","0.0-21.0-2.4","471924a9-ee50-4f6a-a87f-cb56913a24c3","null","<p style=""text-align: center;"">+</p>","null","fixation","","","","","","","","","","","","","","","","","","","","","","",""
"","","","","","html-slider-response","127","260331","0.0-21.0-0.5","471924a9-ee50-4f6a-a87f-cb56913a24c3","1000","
                  <p style=""text-align: center;"">₪64
                                                <br>50%</p>
                  <p id=""wtp"" style=""text-align:center; margin-top: 0px; margin-bottom: 0px; font-size: 40px"";>&ensp;</p>","-","viewing","0","25","1B,3B,4A","","","","","","","","","","","","","","","","","","","",""
"","","","","","html-slider-response","128","262248","0.0-21.0-1.5","471924a9-ee50-4f6a-a87f-cb56913a24c3","1915","
                  <p style=""text-align: center;"">₪64
                                                <br>50%</p>
                  <p id=""wtp"" style=""text-align:center; margin-top: 0px; margin-bottom: 0px; font-size: 40px"";>מוכנים לשלם: <span id=""c_p_y""></span></p>","20","evaluation","71","25","1B,3B,4A","50","64","20","","","","","","","","","","","","","","","","",""
"","","","","","html-keyboard-response","129","263276","0.0-21.0-2.5","471924a9-ee50-4f6a-a87f-cb56913a24c3","null","<p style=""text-align: center;"">+</p>","null","fixation","","","","","","","","","","","","","","","","","","","","","","",""
"","","","","","html-slider-response","130","264293","0.0-21.0-0.6","471924a9-ee50-4f6a-a87f-cb56913a24c3","1000","
                  <p style=""text-align: center;"">₪71
                                                <br>55%</p>
                  <p id=""wtp"" style=""text-align:center; margin-top: 0px; margin-bottom: 0px; font-size: 40px"";>&ensp;</p>","-","viewing","0","27","5B,18A","","","","","","","","","","","","","","","","","","","",""
"","","","","","html-slider-response","131","265952","0.0-21.0-1.6","471924a9-ee50-4f6a-a87f-cb56913a24c3","1657","
                  <p style=""text-align: center;"">₪71
                                                <br>55%</p>
                  <p id=""wtp"" style=""text-align:center; margin-top: 0px; margin-bottom: 0px; font-size: 40px"";>מוכנים לשלם: <span id=""c_p_y""></span></p>","21","evaluation","29","27","5B,18A","55","71","21","","","","","","","","","","","","","","","","",""
"","","","","","html-keyboard-response","132","267320","0.0-21.0-2.6","471924a9-ee50-4f6a-a87f-cb56913a24c3","null","<p style=""text-align: center;"">+</p>","null","fixation","","","","","","","","","","","","","","","","","","","","","","",""
"","","","","","html-slider-response","133","268336","0.0-21.0-0.7","471924a9-ee50-4f6a-a87f-cb56913a24c3","1000","
                  <p style=""text-align: center;"">₪11
                                                <br>45%</p>
                  <p id=""wtp"" style=""text-align:center; margin-top: 0px; margin-bottom: 0px; font-size: 40px"";>&ensp;</p>","-","viewing","0","6","14B,21C,25C","","","","","","","","","","","","","","","","","","","",""
"","","","","","html-slider-response","134","270776","0.0-21.0-1.7","471924a9-ee50-4f6a-a87f-cb56913a24c3","2439","
                  <p style=""text-align: center;"">₪11
                                                <br>45%</p>
                  <p id=""wtp"" style=""text-align:center; margin-top: 0px; margin-bottom: 0px; font-size: 40px"";>מוכנים לשלם: <span id=""c_p_y""></span></p>","5","evaluation","19","6","14B,21C,25C","45","11","5","","","","","","","","","","","","","","","","",""
"","","","","","html-keyboard-response","135","271474","0.0-21.0-2.7","471924a9-ee50-4f6a-a87f-cb56913a24c3","null","<p style=""text-align: center;"">+</p>","null","fixation","","","","","","","","","","","","","","","","","","","","","","",""
"","","","","","html-slider-response","136","272486","0.0-21.0-0.8","471924a9-ee50-4f6a-a87f-cb56913a24c3","1000","
                  <p style=""text-align: center;"">₪64
                                                <br>25%</p>
                  <p id=""wtp"" style=""text-align:center; margin-top: 0px; margin-bottom: 0px; font-size: 40px"";>&ensp;</p>","-","viewing","0","24","6A,21A","","","","","","","","","","","","","","","","","","","",""
"","","","","","html-slider-response","137","274776","0.0-21.0-1.8","471924a9-ee50-4f6a-a87f-cb56913a24c3","2289","
                  <p style=""text-align: center;"">₪64
                                                <br>25%</p>
                  <p id=""wtp"" style=""text-align:center; margin-top: 0px; margin-bottom: 0px; font-size: 40px"";>מוכנים לשלם: <span id=""c_p_y""></span></p>","1","evaluation","51","24","6A,21A","25","64","2","","","","","","","","","","","","","","","","",""
"","","","","","html-keyboard-response","138","275965","0.0-21.0-2.8","471924a9-ee50-4f6a-a87f-cb56913a24c3","null","<p style=""text-align: center;"">+</p>","null","fixation","","","","","","","","","","","","","","","","","","","","","","",""
"","","","","","html-slider-response","139","276967","0.0-21.0-0.9","471924a9-ee50-4f6a-a87f-cb56913a24c3","1000","
                  <p style=""text-align: center;"">₪11
                                                <br>75%</p>
                  <p id=""wtp"" style=""text-align:center; margin-top: 0px; margin-bottom: 0px; font-size: 40px"";>&ensp;</p>","-","viewing","0","7","6B,18B,22C,24C,29A","","","","","","","","","","","","","","","","","","","",""
"","","","","","html-slider-response","140","280599","0.0-21.0-1.9","471924a9-ee50-4f6a-a87f-cb56913a24c3","3631","
                  <p style=""text-align: center;"">₪11
                                                <br>75%</p>
                  <p id=""wtp"" style=""text-align:center; margin-top: 0px; margin-bottom: 0px; font-size: 40px"";>מוכנים לשלם: <span id=""c_p_y""></span></p>","5","evaluation","1","7","6B,18B,22C,24C,29A","75","11","5","","","","","","","","","","","","","","","","",""
"","","","","","html-keyboard-response","141","282046","0.0-21.0-2.9","471924a9-ee50-4f6a-a87f-cb56913a24c3","null","<p style=""text-align: center;"">+</p>","null","fixation","","","","","","","","","","","","","","","","","","","","","","",""
"","","","","","html-slider-response","142","283057","0.0-21.0-0.10","471924a9-ee50-4f6a-a87f-cb56913a24c3","1000","
                  <p style=""text-align: center;"">₪79
                                                <br>40%</p>
                  <p id=""wtp"" style=""text-align:center; margin-top: 0px; margin-bottom: 0px; font-size: 40px"";>&ensp;</p>","-","viewing","0","30","9B","","","","","","","","","","","","","","","","","","","",""
"","","","","","html-slider-response","143","285144","0.0-21.0-1.10","471924a9-ee50-4f6a-a87f-cb56913a24c3","2085","
                  <p style=""text-align: center;"">₪79
                                                <br>40%</p>
                  <p id=""wtp"" style=""text-align:center; margin-top: 0px; margin-bottom: 0px; font-size: 40px"";>מוכנים לשלם: <span id=""c_p_y""></span></p>","17","evaluation","49","30","9B","40","79","17","","","","","","","","","","","","","","","","",""
"","","","","","html-keyboard-response","144","285905","0.0-21.0-2.10","471924a9-ee50-4f6a-a87f-cb56913a24c3","null","<p style=""text-align: center;"">+</p>","null","fixation","","","","","","","","","","","","","","","","","","","","","","",""
"","","","","","html-slider-response","145","286913","0.0-21.0-0.11","471924a9-ee50-4f6a-a87f-cb56913a24c3","1000","
                  <p style=""text-align: center;"">₪11
                                                <br>20%</p>
                  <p id=""wtp"" style=""text-align:center; margin-top: 0px; margin-bottom: 0px; font-size: 40px"";>&ensp;</p>","-","viewing","0","4","12C,17C,23C,28C","","","","","","","","","","","","","","","","","","","",""
"","","","","","html-slider-response","146","288247","0.0-21.0-1.11","471924a9-ee50-4f6a-a87f-cb56913a24c3","1333","
                  <p style=""text-align: center;"">₪11
                                                <br>20%</p>
                  <p id=""wtp"" style=""text-align:center; margin-top: 0px; margin-bottom: 0px; font-size: 40px"";>מוכנים לשלם: <span id=""c_p_y""></span></p>","0","evaluation","73","4","12C,17C,23C,28C","20","11","0","","","","","","","","","","","","","","","","",""
"","","","","","html-keyboard-response","147","289699","0.0-21.0-2.11","471924a9-ee50-4f6a-a87f-cb56913a24c3","null","<p style=""text-align: center;"">+</p>","null","fixation","","","","","","","","","","","","","","","","","","","","","","",""
"","","","","","html-slider-response","148","290704","0.0-21.0-0.12","471924a9-ee50-4f6a-a87f-cb56913a24c3","1000","
                  <p style=""text-align: center;"">₪58
                                                <br>30%</p>
                  <p id=""wtp"" style=""text-align:center; margin-top: 0px; margin-bottom: 0px; font-size: 40px"";>&ensp;</p>","-","viewing","0","19","13C,30A","","","","","","","","","","","","","","","","","","","",""
"","","","","","html-slider-response","149","293792","0.0-21.0-1.12","471924a9-ee50-4f6a-a87f-cb56913a24c3","3086","
                  <p style=""text-align: center;"">₪58
                                                <br>30%</p>
                  <p id=""wtp"" style=""text-align:center; margin-top: 0px; margin-bottom: 0px; font-size: 40px"";>מוכנים לשלם: <span id=""c_p_y""></span></p>","5","evaluation","74","19","13C,30A","30","58","5","","","","","","","","","","","","","","","","",""
"","","","","","html-keyboard-response","150","295272","0.0-21.0-2.12","471924a9-ee50-4f6a-a87f-cb56913a24c3","null","<p style=""text-align: center;"">+</p>","null","fixation","","","","","","","","","","","","","","","","","","","","","","",""
"","","","","","html-slider-response","151","296290","0.0-21.0-0.13","471924a9-ee50-4f6a-a87f-cb56913a24c3","1000","
                  <p style=""text-align: center;"">₪4
                                                <br>25%</p>
                  <p id=""wtp"" style=""text-align:center; margin-top: 0px; margin-bottom: 0px; font-size: 40px"";>&ensp;</p>","-","viewing","0","1","6C,29B,30C","","","","","","","","","","","","","","","","","","","",""
"","","","","","html-slider-response","152","297784","0.0-21.0-1.13","471924a9-ee50-4f6a-a87f-cb56913a24c3","1492","
                  <p style=""text-align: center;"">₪4
                                                <br>25%</p>
                  <p id=""wtp"" style=""text-align:center; margin-top: 0px; margin-bottom: 0px; font-size: 40px"";>מוכנים לשלם: <span id=""c_p_y""></span></p>","1","evaluation","58","1","6C,29B,30C","25","4","1","","","","","","","","","","","","","","","","",""
"","","","","","html-keyboard-response","153","298695","0.0-21.0-2.13","471924a9-ee50-4f6a-a87f-cb56913a24c3","null","<p style=""text-align: center;"">+</p>","null","fixation","","","","","","","","","","","","","","","","","","","","","","",""
"","","","","","html-slider-response","154","299709","0.0-21.0-0.14","471924a9-ee50-4f6a-a87f-cb56913a24c3","1000","
                  <p style=""text-align: center;"">₪36
                                                <br>75%</p>
                  <p id=""wtp"" style=""text-align:center; margin-top: 0px; margin-bottom: 0px; font-size: 40px"";>&ensp;</p>","-","viewing","0","14","4B,5A,13B,16B","","","","","","","","","","","","","","","","","","","",""
"","","","","","html-slider-response","155","303071","0.0-21.0-1.14","471924a9-ee50-4f6a-a87f-cb56913a24c3","3361","
                  <p style=""text-align: center;"">₪36
                                                <br>75%</p>
                  <p id=""wtp"" style=""text-align:center; margin-top: 0px; margin-bottom: 0px; font-size: 40px"";>מוכנים לשלם: <span id=""c_p_y""></span></p>","14","evaluation","38","14","4B,5A,13B,16B","75","36","14","","","","","","","","","","","","","","","","",""
"","","","","","html-keyboard-response","156","304246","0.0-21.0-2.14","471924a9-ee50-4f6a-a87f-cb56913a24c3","null","<p style=""text-align: center;"">+</p>","null","fixation","","","","","","","","","","","","","","","","","","","","","","",""
"","","","","","html-slider-response","157","305251","0.0-21.0-0.15","471924a9-ee50-4f6a-a87f-cb56913a24c3","1000","
                  <p style=""text-align: center;"">₪61
                                                <br>55%</p>
                  <p id=""wtp"" style=""text-align:center; margin-top: 0px; margin-bottom: 0px; font-size: 40px"";>&ensp;</p>","-","viewing","0","23","7B,26B","","","","","","","","","","","","","","","","","","","",""
"","","","","","html-slider-response","158","307399","0.0-21.0-1.15","471924a9-ee50-4f6a-a87f-cb56913a24c3","2147","
                  <p style=""text-align: center;"">₪61
                                                <br>55%</p>
                  <p id=""wtp"" style=""text-align:center; margin-top: 0px; margin-bottom: 0px; font-size: 40px"";>מוכנים לשלם: <span id=""c_p_y""></span></p>","23","evaluation","30","23","7B,26B","55","61","23","","","","","","","","","","","","","","","","",""
"","","","","","html-keyboard-response","159","308340","0.0-21.0-2.15","471924a9-ee50-4f6a-a87f-cb56913a24c3","null","<p style=""text-align: center;"">+</p>","null","fixation","","","","","","","","","","","","","","","","","","","","","","",""
"","","","","","html-slider-response","160","309350","0.0-21.0-0.16","471924a9-ee50-4f6a-a87f-cb56913a24c3","1000","
                  <p style=""text-align: center;"">₪58
                                                <br>40%</p>
                  <p id=""wtp"" style=""text-align:center; margin-top: 0px; margin-bottom: 0px; font-size: 40px"";>&ensp;</p>","-","viewing","0","20","10C,13A,19C,21B","","","","","","","","","","","","","","","","","","","",""
"","","","","","html-slider-response","161","311183","0.0-21.0-1.16","471924a9-ee50-4f6a-a87f-cb56913a24c3","1831","
                  <p style=""text-align: center;"">₪58
                                                <br>40%</p>
                  <p id=""wtp"" style=""text-align:center; margin-top: 0px; margin-bottom: 0px; font-size: 40px"";>מוכנים לשלם: <span id=""c_p_y""></span></p>","17","evaluation","5","20","10C,13A,19C,21B","40","58","17","","","","","","","","","","","","","","","","",""
"","","","","","html-keyboard-response","162","312152","0.0-21.0-2.16","471924a9-ee50-4f6a-a87f-cb56913a24c3","null","<p style=""text-align: center;"">+</p>","null","fixation","","","","","","","","","","","","","","","","","","","","","","",""
"","","","","","html-slider-response","163","313169","0.0-21.0-0.17","471924a9-ee50-4f6a-a87f-cb56913a24c3","1000","
                  <p style=""text-align: center;"">₪58
                                                <br>45%</p>
                  <p id=""wtp"" style=""text-align:center; margin-top: 0px; margin-bottom: 0px; font-size: 40px"";>&ensp;</p>","-","viewing","0","21","11C,18C,25A","","","","","","","","","","","","","","","","","","","",""
"","","","","","html-slider-response","164","314879","0.0-21.0-1.17","471924a9-ee50-4f6a-a87f-cb56913a24c3","1709","
                  <p style=""text-align: center;"">₪58
                                                <br>45%</p>
                  <p id=""wtp"" style=""text-align:center; margin-top: 0px; margin-bottom: 0px; font-size: 40px"";>מוכנים לשלם: <span id=""c_p_y""></span></p>","13","evaluation","67","21","11C,18C,25A","45","58","13","","","","","","","","","","","","","","","","",""
"","","","","","html-keyboard-response","165","315804","0.0-21.0-2.17","471924a9-ee50-4f6a-a87f-cb56913a24c3","null","<p style=""text-align: center;"">+</p>","null","fixation","","","","","","","","","","","","","","","","","","","","","","",""
"","","","","","html-slider-response","166","316807","0.0-21.0-0.18","471924a9-ee50-4f6a-a87f-cb56913a24c3","1000","
                  <p style=""text-align: center;"">₪11
                                                <br>25%</p>
                  <p id=""wtp"" style=""text-align:center; margin-top: 0px; margin-bottom: 0px; font-size: 40px"";>&ensp;</p>","-","viewing","0","5","12A,27B,28B,30B","","","","","","","","","","","","","","","","","","","",""
"","","","","","html-slider-response","167","318543","0.0-21.0-1.18","471924a9-ee50-4f6a-a87f-cb56913a24c3","1734","
                  <p style=""text-align: center;"">₪11
                                                <br>25%</p>
                  <p id=""wtp"" style=""text-align:center; margin-top: 0px; margin-bottom: 0px; font-size: 40px"";>מוכנים לשלם: <span id=""c_p_y""></span></p>","2","evaluation","22","5","12A,27B,28B,30B","25","11","2","","","","","","","","","","","","","","","","",""
"","","","","","html-keyboard-response","168","319702","0.0-21.0-2.18","471924a9-ee50-4f6a-a87f-cb56913a24c3","null","<p style=""text-align: center;"">+</p>","null","fixation","","","","","","","","","","","","","","","","","","","","","","",""
"","","","","","html-slider-response","169","320712","0.0-21.0-0.19","471924a9-ee50-4f6a-a87f-cb56913a24c3","1000","
                  <p style=""text-align: center;"">₪39
                                                <br>60%</p>
                  <p id=""wtp"" style=""text-align:center; margin-top: 0px; margin-bottom: 0px; font-size: 40px"";>&ensp;</p>","-","viewing","0","15","9C,25B","","","","","","","","","","","","","","","","","","","",""
"","","","","","html-slider-response","170","323399","0.0-21.0-1.19","471924a9-ee50-4f6a-a87f-cb56913a24c3","2686","
                  <p style=""text-align: center;"">₪39
                                                <br>60%</p>
                  <p id=""wtp"" style=""text-align:center; margin-top: 0px; margin-bottom: 0px; font-size: 40px"";>מוכנים לשלם: <span id=""c_p_y""></span></p>","24","evaluation","53","15","9C,25B","60","39","24","","","","","","","","","","","","","","","","",""
"","","","","","html-keyboard-response","171","324660","0.0-21.0-2.19","471924a9-ee50-4f6a-a87f-cb56913a24c3","null","<p style=""text-align: center;"">+</p>","null","fixation","","","","","","","","","","","","","","","","","","","","","","",""
"","","","","","html-slider-response","172","325673","0.0-21.0-0.20","471924a9-ee50-4f6a-a87f-cb56913a24c3","1000","
                  <p style=""text-align: center;"">₪43
                                                <br>75%</p>
                  <p id=""wtp"" style=""text-align:center; margin-top: 0px; margin-bottom: 0px; font-size: 40px"";>&ensp;</p>","-","viewing","0","18","11B,19B,24A,26A","","","","","","","","","","","","","","","","","","","",""
"","","","","","html-slider-response","173","329681","0.0-21.0-1.20","471924a9-ee50-4f6a-a87f-cb56913a24c3","null","
                  <p style=""text-align: center;"">₪43
                                                <br>75%</p>
                  <p id=""wtp"" style=""text-align:center; margin-top: 0px; margin-bottom: 0px; font-size: 40px"";>מוכנים לשלם: <span id=""c_p_y""></span></p>","null","evaluation","79","18","11B,19B,24A,26A","75","43","14","","","","","","","","","","","","","","","","",""
"","","","","","html-keyboard-response","174","330236","0.0-21.0-2.20","471924a9-ee50-4f6a-a87f-cb56913a24c3","null","<p style=""text-align: center;"">+</p>","null","fixation","","","","","","","","","","","","","","","","","","","","","","",""
"","","","","","html-slider-response","175","331244","0.0-21.0-0.21","471924a9-ee50-4f6a-a87f-cb56913a24c3","1000","
                  <p style=""text-align: center;"">₪71
                                                <br>75%</p>
                  <p id=""wtp"" style=""text-align:center; margin-top: 0px; margin-bottom: 0px; font-size: 40px"";>&ensp;</p>","-","viewing","0","28","8B","","","","","","","","","","","","","","","","","","","",""
"","","","","","html-slider-response","176","333919","0.0-21.0-1.21","471924a9-ee50-4f6a-a87f-cb56913a24c3","2674","
                  <p style=""text-align: center;"">₪71
                                                <br>75%</p>
                  <p id=""wtp"" style=""text-align:center; margin-top: 0px; margin-bottom: 0px; font-size: 40px"";>מוכנים לשלם: <span id=""c_p_y""></span></p>","62","evaluation","74","28","8B","75","71","62","","","","","","","","","","","","","","","","",""
"","","","","","html-keyboard-response","177","334861","0.0-21.0-2.21","471924a9-ee50-4f6a-a87f-cb56913a24c3","null","<p style=""text-align: center;"">+</p>","null","fixation","","","","","","","","","","","","","","","","","","","","","","",""
"","","","","","html-slider-response","178","335872","0.0-21.0-0.22","471924a9-ee50-4f6a-a87f-cb56913a24c3","1000","
                  <p style=""text-align: center;"">₪18
                                                <br>25%</p>
                  <p id=""wtp"" style=""text-align:center; margin-top: 0px; margin-bottom: 0px; font-size: 40px"";>&ensp;</p>","-","viewing","0","9","14A,23A","","","","","","","","","","","","","","","","","","","",""
"","","","","","html-slider-response","179","338007","0.0-21.0-1.22","471924a9-ee50-4f6a-a87f-cb56913a24c3","2134","
                  <p style=""text-align: center;"">₪18
                                                <br>25%</p>
                  <p id=""wtp"" style=""text-align:center; margin-top: 0px; margin-bottom: 0px; font-size: 40px"";>מוכנים לשלם: <span id=""c_p_y""></span></p>","10","evaluation","51","9","14A,23A","25","18","10","","","","","","","","","","","","","","","","",""
"","","","","","html-keyboard-response","180","339372","0.0-21.0-2.22","471924a9-ee50-4f6a-a87f-cb56913a24c3","null","<p style=""text-align: center;"">+</p>","null","fixation","","","","","","","","","","","","","","","","","","","","","","",""
"","","","","","html-slider-response","181","340374","0.0-21.0-0.23","471924a9-ee50-4f6a-a87f-cb56913a24c3","1000","
                  <p style=""text-align: center;"">₪18
                                                <br>50%</p>
                  <p id=""wtp"" style=""text-align:center; margin-top: 0px; margin-bottom: 0px; font-size: 40px"";>&ensp;</p>","-","viewing","0","10","2C,16C,22B,28A","","","","","","","","","","","","","","","","","","","",""
"","","","","","html-slider-response","182","342007","0.0-21.0-1.23","471924a9-ee50-4f6a-a87f-cb56913a24c3","1632","
                  <p style=""text-align: center;"">₪18
                                                <br>50%</p>
                  <p id=""wtp"" style=""text-align:center; margin-top: 0px; margin-bottom: 0px; font-size: 40px"";>מוכנים לשלם: <span id=""c_p_y""></span></p>","3","evaluation","6","10","2C,16C,22B,28A","50","18","4","","","","","","","","","","","","","","","","",""
"","","","","","html-keyboard-response","183","342945","0.0-21.0-2.23","471924a9-ee50-4f6a-a87f-cb56913a24c3","null","<p style=""text-align: center;"">+</p>","null","fixation","","","","","","","","","","","","","","","","","","","","","","",""
"","","","","","html-slider-response","184","343949","0.0-21.0-0.24","471924a9-ee50-4f6a-a87f-cb56913a24c3","1000","
                  <p style=""text-align: center;"">₪43
                                                <br>60%</p>
                  <p id=""wtp"" style=""text-align:center; margin-top: 0px; margin-bottom: 0px; font-size: 40px"";>&ensp;</p>","-","viewing","0","17","2A,7A,9A,15B","","","","","","","","","","","","","","","","","","","",""
"","","","","","html-slider-response","185","345871","0.0-21.0-1.24","471924a9-ee50-4f6a-a87f-cb56913a24c3","1920","
                  <p style=""text-align: center;"">₪43
                                                <br>60%</p>
                  <p id=""wtp"" style=""text-align:center; margin-top: 0px; margin-bottom: 0px; font-size: 40px"";>מוכנים לשלם: <span id=""c_p_y""></span></p>","20","evaluation","32","17","2A,7A,9A,15B","60","43","20","","","","","","","","","","","","","","","","",""
"","","","","","html-keyboard-response","186","347078","0.0-21.0-2.24","471924a9-ee50-4f6a-a87f-cb56913a24c3","null","<p style=""text-align: center;"">+</p>","null","fixation","","","","","","","","","","","","","","","","","","","","","","",""
"","","","","","html-slider-response","187","348080","0.0-21.0-0.25","471924a9-ee50-4f6a-a87f-cb56913a24c3","1000","
                  <p style=""text-align: center;"">₪61
                                                <br>45%</p>
                  <p id=""wtp"" style=""text-align:center; margin-top: 0px; margin-bottom: 0px; font-size: 40px"";>&ensp;</p>","-","viewing","0","22","10A,11A","","","","","","","","","","","","","","","","","","","",""
"","","","","","html-slider-response","188","351839","0.0-21.0-1.25","471924a9-ee50-4f6a-a87f-cb56913a24c3","3758","
                  <p style=""text-align: center;"">₪61
                                                <br>45%</p>
                  <p id=""wtp"" style=""text-align:center; margin-top: 0px; margin-bottom: 0px; font-size: 40px"";>מוכנים לשלם: <span id=""c_p_y""></span></p>","25","evaluation","64","22","10A,11A","45","61","25","","","","","","","","","","","","","","","","",""
"","","","","","html-keyboard-response","189","352755","0.0-21.0-2.25","471924a9-ee50-4f6a-a87f-cb56913a24c3","null","<p style=""text-align: center;"">+</p>","null","fixation","","","","","","","","","","","","","","","","","","","","","","",""
"","","","","","html-slider-response","190","353757","0.0-21.0-0.26","471924a9-ee50-4f6a-a87f-cb56913a24c3","1000","
                  <p style=""text-align: center;"">₪76
                                                <br>65%</p>
                  <p id=""wtp"" style=""text-align:center; margin-top: 0px; margin-bottom: 0px; font-size: 40px"";>&ensp;</p>","-","viewing","0","29","8C,19A,24B","","","","","","","","","","","","","","","","","","","",""
"","","","","","html-slider-response","191","355327","0.0-21.0-1.26","471924a9-ee50-4f6a-a87f-cb56913a24c3","1568","
                  <p style=""text-align: center;"">₪76
                                                <br>65%</p>
                  <p id=""wtp"" style=""text-align:center; margin-top: 0px; margin-bottom: 0px; font-size: 40px"";>מוכנים לשלם: <span id=""c_p_y""></span></p>","33","evaluation","19","29","8C,19A,24B","65","76","33","","","","","","","","","","","","","","","","",""
"","","","","","html-keyboard-response","192","356519","0.0-21.0-2.26","471924a9-ee50-4f6a-a87f-cb56913a24c3","null","<p style=""text-align: center;"">+</p>","null","fixation","","","","","","","","","","","","","","","","","","","","","","",""
"","","","","","html-slider-response","193","357521","0.0-21.0-0.27","471924a9-ee50-4f6a-a87f-cb56913a24c3","1000","
                  <p style=""text-align: center;"">₪36
                                                <br>30%</p>
                  <p id=""wtp"" style=""text-align:center; margin-top: 0px; margin-bottom: 0px; font-size: 40px"";>&ensp;</p>","-","viewing","0","11","3C,20A,22A","","","","","","","","","","","","","","","","","","","",""
"","","","","","html-slider-response","194","359487","0.0-21.0-1.27","471924a9-ee50-4f6a-a87f-cb56913a24c3","1965","
                  <p style=""text-align: center;"">₪36
                                                <br>30%</p>
                  <p id=""wtp"" style=""text-align:center; margin-top: 0px; margin-bottom: 0px; font-size: 40px"";>מוכנים לשלם: <span id=""c_p_y""></span></p>","4","evaluation","37","11","3C,20A,22A","30","36","5","","","","","","","","","","","","","","","","",""
"","","","","","html-keyboard-response","195","360865","0.0-21.0-2.27","471924a9-ee50-4f6a-a87f-cb56913a24c3","null","<p style=""text-align: center;"">+</p>","null","fixation","","","","","","","","","","","","","","","","","","","","","","",""
"","","","","","html-slider-response","196","361880","0.0-21.0-0.28","471924a9-ee50-4f6a-a87f-cb56913a24c3","1000","
                  <p style=""text-align: center;"">₪36
                                                <br>70%</p>
                  <p id=""wtp"" style=""text-align:center; margin-top: 0px; margin-bottom: 0px; font-size: 40px"";>&ensp;</p>","-","viewing","0","13","3A,5C,10B","","","","","","","","","","","","","","","","","","","",""
"","","","","","html-slider-response","197","364296","0.0-21.0-1.28","471924a9-ee50-4f6a-a87f-cb56913a24c3","2414","
                  <p style=""text-align: center;"">₪36
                                                <br>70%</p>
                  <p id=""wtp"" style=""text-align:center; margin-top: 0px; margin-bottom: 0px; font-size: 40px"";>מוכנים לשלם: <span id=""c_p_y""></span></p>","19","evaluation","26","13","3A,5C,10B","70","36","19","","","","","","","","","","","","","","","","",""
"","","","","","html-keyboard-response","198","365030","0.0-21.0-2.28","471924a9-ee50-4f6a-a87f-cb56913a24c3","null","<p style=""text-align: center;"">+</p>","null","fixation","","","","","","","","","","","","","","","","","","","","","","",""
"","","","","","html-slider-response","199","366046","0.0-21.0-0.29","471924a9-ee50-4f6a-a87f-cb56913a24c3","1000","
                  <p style=""text-align: center;"">₪36
                                                <br>60%</p>
                  <p id=""wtp"" style=""text-align:center; margin-top: 0px; margin-bottom: 0px; font-size: 40px"";>&ensp;</p>","-","viewing","0","12","1C,7C,15C","","","","","","","","","","","","","","","","","","","",""
"","","","","","html-slider-response","200","368272","0.0-21.0-1.29","471924a9-ee50-4f6a-a87f-cb56913a24c3","2225","
                  <p style=""text-align: center;"">₪36
                                                <br>60%</p>
                  <p id=""wtp"" style=""text-align:center; margin-top: 0px; margin-bottom: 0px; font-size: 40px"";>מוכנים לשלם: <span id=""c_p_y""></span></p>","14","evaluation","47","12","1C,7C,15C","60","36","15","","","","","","","","","","","","","","","","",""
"","","","","","html-keyboard-response","201","369041","0.0-21.0-2.29","471924a9-ee50-4f6a-a87f-cb56913a24c3","null","<p style=""text-align: center;"">+</p>","null","fixation","","","","","","","","","","","","","","","","","","","","","","",""
"","","","","","html-slider-response","202","370053","0.0-21.0-0.30","471924a9-ee50-4f6a-a87f-cb56913a24c3","1000","
                  <p style=""text-align: center;"">₪16
                                                <br>20%</p>
                  <p id=""wtp"" style=""text-align:center; margin-top: 0px; margin-bottom: 0px; font-size: 40px"";>&ensp;</p>","-","viewing","0","8","14C,17A,20C,27A","","","","","","","","","","","","","","","","","","","",""
"","","","","","html-slider-response","203","371944","0.0-21.0-1.30","471924a9-ee50-4f6a-a87f-cb56913a24c3","1889","
                  <p style=""text-align: center;"">₪16
                                                <br>20%</p>
                  <p id=""wtp"" style=""text-align:center; margin-top: 0px; margin-bottom: 0px; font-size: 40px"";>מוכנים לשלם: <span id=""c_p_y""></span></p>","1","evaluation","6","8","14C,17A,20C,27A","20","16","2","","","","","","","","","","","","","","","","",""
"","","","","","html-keyboard-response","204","373183","0.0-21.0-2.30","471924a9-ee50-4f6a-a87f-cb56913a24c3","null","<p style=""text-align: center;"">+</p>","null","fixation","","","","","","","","","","","","","","","","","","","","","","",""
"","","","","","html-keyboard-response","205","374184","0.0-22.0","471924a9-ee50-4f6a-a87f-cb56913a24c3","null","<p style=""text-align: center;"">+</p>","null","fixation","","","","","","","","","","","","","","","","","","","","","","",""
"","","","","","html-keyboard-response","206","377528","0.0-23.0","471924a9-ee50-4f6a-a87f-cb56913a24c3","null","<p>הפסקה.
          <br>לחצו כדי להמשיך.</p>","1","scan_wait","","","","","","","","","","","","","","","","","","","","","","",""
"","","","","","html-keyboard-response","207","378531","0.0-24.0","471924a9-ee50-4f6a-a87f-cb56913a24c3","null","<p style=""text-align: center;"">+</p>","null","fixation","","","","","","","","","","","","","","","","","","","","","","",""
"","","","","","html-slider-response","208","379542","0.0-25.0-0.0","471924a9-ee50-4f6a-a87f-cb56913a24c3","1000","
                  <p style=""text-align: center;"">₪4
                                                <br>75%</p>
                  <p id=""wtp"" style=""text-align:center; margin-top: 0px; margin-bottom: 0px; font-size: 40px"";>&ensp;</p>","-","viewing","0","3","12B,20B,23B,27C,29C","","","","","","","","","","","","","","","","","","","",""
"","","","","","html-slider-response","209","381808","0.0-25.0-1.0","471924a9-ee50-4f6a-a87f-cb56913a24c3","2265","
                  <p style=""text-align: center;"">₪4
                                                <br>75%</p>
                  <p id=""wtp"" style=""text-align:center; margin-top: 0px; margin-bottom: 0px; font-size: 40px"";>מוכנים לשלם: <span id=""c_p_y""></span></p>","0","evaluation","68","3","12B,20B,23B,27C,29C","75","4","1","","","","","","","","","","","","","","","","",""
"","","","","","html-keyboard-response","210","382356","0.0-25.0-2.0","471924a9-ee50-4f6a-a87f-cb56913a24c3","null","<p style=""text-align: center;"">+</p>","null","fixation","","","","","","","","","","","","","","","","","","","","","","",""
"","","","","","html-slider-response","211","383366","0.0-25.0-0.1","471924a9-ee50-4f6a-a87f-cb56913a24c3","1000","
                  <p style=""text-align: center;"">₪36
                                                <br>60%</p>
                  <p id=""wtp"" style=""text-align:center; margin-top: 0px; margin-bottom: 0px; font-size: 40px"";>&ensp;</p>","-","viewing","0","12","1C,7C,15C","","","","","","","","","","","","","","","","","","","",""
"","","","","","html-slider-response","212","386144","0.0-25.0-1.1","471924a9-ee50-4f6a-a87f-cb56913a24c3","2776","
                  <p style=""text-align: center;"">₪36
                                                <br>60%</p>
                  <p id=""wtp"" style=""text-align:center; margin-top: 0px; margin-bottom: 0px; font-size: 40px"";>מוכנים לשלם: <span id=""c_p_y""></span></p>","14","evaluation","46","12","1C,7C,15C","60","36","14","","","","","","","","","","","","","","","","",""
"","","","","","html-keyboard-response","213","387039","0.0-25.0-2.1","471924a9-ee50-4f6a-a87f-cb56913a24c3","null","<p style=""text-align: center;"">+</p>","null","fixation","","","","","","","","","","","","","","","","","","","","","","",""
"","","","","","html-slider-response","214","388047","0.0-25.0-0.2","471924a9-ee50-4f6a-a87f-cb56913a24c3","1000","
                  <p style=""text-align: center;"">₪64
                                                <br>50%</p>
                  <p id=""wtp"" style=""text-align:center; margin-top: 0px; margin-bottom: 0px; font-size: 40px"";>&ensp;</p>","-","viewing","0","25","1B,3B,4A","","","","","","","","","","","","","","","","","","","",""
"","","","","","html-slider-response","215","390912","0.0-25.0-1.2","471924a9-ee50-4f6a-a87f-cb56913a24c3","2865","
                  <p style=""text-align: center;"">₪64
                                                <br>50%</p>
                  <p id=""wtp"" style=""text-align:center; margin-top: 0px; margin-bottom: 0px; font-size: 40px"";>מוכנים לשלם: <span id=""c_p_y""></span></p>","18","evaluation","16","25","1B,3B,4A","50","64","18","","","","","","","","","","","","","","","","",""
"","","","","","html-keyboard-response","216","391631","0.0-25.0-2.2","471924a9-ee50-4f6a-a87f-cb56913a24c3","null","<p style=""text-align: center;"">+</p>","null","fixation","","","","","","","","","","","","","","","","","","","","","","",""
"","","","","","html-slider-response","217","392645","0.0-25.0-0.3","471924a9-ee50-4f6a-a87f-cb56913a24c3","1000","
                  <p style=""text-align: center;"">₪79
                                                <br>65%</p>
                  <p id=""wtp"" style=""text-align:center; margin-top: 0px; margin-bottom: 0px; font-size: 40px"";>&ensp;</p>","-","viewing","0","31","8A","","","","","","","","","","","","","","","","","","","",""
"","","","","","html-slider-response","218","394592","0.0-25.0-1.3","471924a9-ee50-4f6a-a87f-cb56913a24c3","1945","
                  <p style=""text-align: center;"">₪79
                                                <br>65%</p>
                  <p id=""wtp"" style=""text-align:center; margin-top: 0px; margin-bottom: 0px; font-size: 40px"";>מוכנים לשלם: <span id=""c_p_y""></span></p>","23","evaluation","37","31","8A","65","79","23","","","","","","","","","","","","","","","","",""
"","","","","","html-keyboard-response","219","395301","0.0-25.0-2.3","471924a9-ee50-4f6a-a87f-cb56913a24c3","null","<p style=""text-align: center;"">+</p>","null","fixation","","","","","","","","","","","","","","","","","","","","","","",""
"","","","","","html-slider-response","220","396317","0.0-25.0-0.4","471924a9-ee50-4f6a-a87f-cb56913a24c3","1000","
                  <p style=""text-align: center;"">₪61
                                                <br>45%</p>
                  <p id=""wtp"" style=""text-align:center; margin-top: 0px; margin-bottom: 0px; font-size: 40px"";>&ensp;</p>","-","viewing","0","22","10A,11A","","","","","","","","","","","","","","","","","","","",""
"","","","","","html-slider-response","221","399448","0.0-25.0-1.4","471924a9-ee50-4f6a-a87f-cb56913a24c3","3129","
                  <p style=""text-align: center;"">₪61
                                                <br>45%</p>
                  <p id=""wtp"" style=""text-align:center; margin-top: 0px; margin-bottom: 0px; font-size: 40px"";>מוכנים לשלם: <span id=""c_p_y""></span></p>","10","evaluation","24","22","10A,11A","45","61","10","","","","","","","","","","","","","","","","",""
"","","","","","html-keyboard-response","222","400256","0.0-25.0-2.4","471924a9-ee50-4f6a-a87f-cb56913a24c3","null","<p style=""text-align: center;"">+</p>","null","fixation","","","","","","","","","","","","","","","","","","","","","","",""
"","","","","","html-slider-response","223","401262","0.0-25.0-0.5","471924a9-ee50-4f6a-a87f-cb56913a24c3","1000","
                  <p style=""text-align: center;"">₪16
                                                <br>20%</p>
                  <p id=""wtp"" style=""text-align:center; margin-top: 0px; margin-bottom: 0px; font-size: 40px"";>&ensp;</p>","-","viewing","0","8","14C,17A,20C,27A","","","","","","","","","","","","","","","","","","","",""
"","","","","","html-slider-response","224","403096","0.0-25.0-1.5","471924a9-ee50-4f6a-a87f-cb56913a24c3","1833","
                  <p style=""text-align: center;"">₪16
                                                <br>20%</p>
                  <p id=""wtp"" style=""text-align:center; margin-top: 0px; margin-bottom: 0px; font-size: 40px"";>מוכנים לשלם: <span id=""c_p_y""></span></p>","1","evaluation","61","8","14C,17A,20C,27A","20","16","2","","","","","","","","","","","","","","","","",""
"","","","","","html-keyboard-response","225","404011","0.0-25.0-2.5","471924a9-ee50-4f6a-a87f-cb56913a24c3","null","<p style=""text-align: center;"">+</p>","null","fixation","","","","","","","","","","","","","","","","","","","","","","",""
"","","","","","html-slider-response","226","405013","0.0-25.0-0.6","471924a9-ee50-4f6a-a87f-cb56913a24c3","1000","
                  <p style=""text-align: center;"">₪11
                                                <br>75%</p>
                  <p id=""wtp"" style=""text-align:center; margin-top: 0px; margin-bottom: 0px; font-size: 40px"";>&ensp;</p>","-","viewing","0","7","6B,18B,22C,24C,29A","","","","","","","","","","","","","","","","","","","",""
"","","","","","html-slider-response","227","407024","0.0-25.0-1.6","471924a9-ee50-4f6a-a87f-cb56913a24c3","2009","
                  <p style=""text-align: center;"">₪11
                                                <br>75%</p>
                  <p id=""wtp"" style=""text-align:center; margin-top: 0px; margin-bottom: 0px; font-size: 40px"";>מוכנים לשלם: <span id=""c_p_y""></span></p>","2","evaluation","54","7","6B,18B,22C,24C,29A","75","11","2","","","","","","","","","","","","","","","","",""
"","","","","","html-keyboard-response","228","408260","0.0-25.0-2.6","471924a9-ee50-4f6a-a87f-cb56913a24c3","null","<p style=""text-align: center;"">+</p>","null","fixation","","","","","","","","","","","","","","","","","","","","","","",""
"","","","","","html-slider-response","229","409276","0.0-25.0-0.7","471924a9-ee50-4f6a-a87f-cb56913a24c3","1000","
                  <p style=""text-align: center;"">₪76
                                                <br>65%</p>
                  <p id=""wtp"" style=""text-align:center; margin-top: 0px; margin-bottom: 0px; font-size: 40px"";>&ensp;</p>","-","viewing","0","29","8C,19A,24B","","","","","","","","","","","","","","","","","","","",""
"","","","","","html-slider-response","230","412120","0.0-25.0-1.7","471924a9-ee50-4f6a-a87f-cb56913a24c3","2843","
                  <p style=""text-align: center;"">₪76
                                                <br>65%</p>
                  <p id=""wtp"" style=""text-align:center; margin-top: 0px; margin-bottom: 0px; font-size: 40px"";>מוכנים לשלם: <span id=""c_p_y""></span></p>","18","evaluation","14","29","8C,19A,24B","65","76","18","","","","","","","","","","","","","","","","",""
"","","","","","html-keyboard-response","231","413001","0.0-25.0-2.7","471924a9-ee50-4f6a-a87f-cb56913a24c3","null","<p style=""text-align: center;"">+</p>","null","fixation","","","","","","","","","","","","","","","","","","","","","","",""
"","","","","","html-slider-response","232","414005","0.0-25.0-0.8","471924a9-ee50-4f6a-a87f-cb56913a24c3","1000","
                  <p style=""text-align: center;"">₪58
                                                <br>40%</p>
                  <p id=""wtp"" style=""text-align:center; margin-top: 0px; margin-bottom: 0px; font-size: 40px"";>&ensp;</p>","-","viewing","0","20","10C,13A,19C,21B","","","","","","","","","","","","","","","","","","","",""
"","","","","","html-slider-response","233","416440","0.0-25.0-1.8","471924a9-ee50-4f6a-a87f-cb56913a24c3","2434","
                  <p style=""text-align: center;"">₪58
                                                <br>40%</p>
                  <p id=""wtp"" style=""text-align:center; margin-top: 0px; margin-bottom: 0px; font-size: 40px"";>מוכנים לשלם: <span id=""c_p_y""></span></p>","11","evaluation","56","20","10C,13A,19C,21B","40","58","11","","","","","","","","","","","","","","","","",""
"","","","","","html-keyboard-response","234","417073","0.0-25.0-2.8","471924a9-ee50-4f6a-a87f-cb56913a24c3","null","<p style=""text-align: center;"">+</p>","null","fixation","","","","","","","","","","","","","","","","","","","","","","",""
"","","","","","html-slider-response","235","418081","0.0-25.0-0.9","471924a9-ee50-4f6a-a87f-cb56913a24c3","1000","
                  <p style=""text-align: center;"">₪18
                                                <br>25%</p>
                  <p id=""wtp"" style=""text-align:center; margin-top: 0px; margin-bottom: 0px; font-size: 40px"";>&ensp;</p>","-","viewing","0","9","14A,23A","","","","","","","","","","","","","","","","","","","",""
"","","","","","html-slider-response","236","419448","0.0-25.0-1.9","471924a9-ee50-4f6a-a87f-cb56913a24c3","1365","
                  <p style=""text-align: center;"">₪18
                                                <br>25%</p>
                  <p id=""wtp"" style=""text-align:center; margin-top: 0px; margin-bottom: 0px; font-size: 40px"";>מוכנים לשלם: <span id=""c_p_y""></span></p>","5","evaluation","24","9","14A,23A","25","18","5","","","","","","","","","","","","","","","","",""
"","","","","","html-keyboard-response","237","420183","0.0-25.0-2.9","471924a9-ee50-4f6a-a87f-cb56913a24c3","null","<p style=""text-align: center;"">+</p>","null","fixation","","","","","","","","","","","","","","","","","","","","","","",""
"","","","","","html-slider-response","238","421191","0.0-25.0-0.10","471924a9-ee50-4f6a-a87f-cb56913a24c3","1000","
                  <p style=""text-align: center;"">₪71
                                                <br>45%</p>
                  <p id=""wtp"" style=""text-align:center; margin-top: 0px; margin-bottom: 0px; font-size: 40px"";>&ensp;</p>","-","viewing","0","26","2B,16A","","","","","","","","","","","","","","","","","","","",""
"","","","","","html-slider-response","239","423830","0.0-25.0-1.10","471924a9-ee50-4f6a-a87f-cb56913a24c3","2637","
                  <p style=""text-align: center;"">₪71
                                                <br>45%</p>
                  <p id=""wtp"" style=""text-align:center; margin-top: 0px; margin-bottom: 0px; font-size: 40px"";>מוכנים לשלם: <span id=""c_p_y""></span></p>","19","evaluation","26","26","2B,16A","45","71","19","","","","","","","","","","","","","","","","",""
"","","","","","html-keyboard-response","240","424959","0.0-25.0-2.10","471924a9-ee50-4f6a-a87f-cb56913a24c3","null","<p style=""text-align: center;"">+</p>","null","fixation","","","","","","","","","","","","","","","","","","","","","","",""
"","","","","","html-slider-response","241","425976","0.0-25.0-0.11","471924a9-ee50-4f6a-a87f-cb56913a24c3","1000","
                  <p style=""text-align: center;"">₪11
                                                <br>20%</p>
                  <p id=""wtp"" style=""text-align:center; margin-top: 0px; margin-bottom: 0px; font-size: 40px"";>&ensp;</p>","-","viewing","0","4","12C,17C,23C,28C","","","","","","","","","","","","","","","","","","","",""
"","","","","","html-slider-response","242","428462","0.0-25.0-1.11","471924a9-ee50-4f6a-a87f-cb56913a24c3","2484","
                  <p style=""text-align: center;"">₪11
                                                <br>20%</p>
                  <p id=""wtp"" style=""text-align:center; margin-top: 0px; margin-bottom: 0px; font-size: 40px"";>מוכנים לשלם: <span id=""c_p_y""></span></p>","1","evaluation","41","4","12C,17C,23C,28C","20","11","1","","","","","","","","","","","","","","","","",""
"","","","","","html-keyboard-response","243","429912","0.0-25.0-2.11","471924a9-ee50-4f6a-a87f-cb56913a24c3","null","<p style=""text-align: center;"">+</p>","null","fixation","","","","","","","","","","","","","","","","","","","","","","",""
"","","","","","html-slider-response","244","430919","0.0-25.0-0.12","471924a9-ee50-4f6a-a87f-cb56913a24c3","1000","
                  <p style=""text-align: center;"">₪61
                                                <br>55%</p>
                  <p id=""wtp"" style=""text-align:center; margin-top: 0px; margin-bottom: 0px; font-size: 40px"";>&ensp;</p>","-","viewing","0","23","7B,26B","","","","","","","","","","","","","","","","","","","",""
"","","","","","html-slider-response","245","433886","0.0-25.0-1.12","471924a9-ee50-4f6a-a87f-cb56913a24c3","2965","
                  <p style=""text-align: center;"">₪61
                                                <br>55%</p>
                  <p id=""wtp"" style=""text-align:center; margin-top: 0px; margin-bottom: 0px; font-size: 40px"";>מוכנים לשלם: <span id=""c_p_y""></span></p>","16","evaluation","22","23","7B,26B","55","61","17","","","","","","","","","","","","","","","","",""
"","","","","","html-keyboard-response","246","435318","0.0-25.0-2.12","471924a9-ee50-4f6a-a87f-cb56913a24c3","null","<p style=""text-align: center;"">+</p>","null","fixation","","","","","","","","","","","","","","","","","","","","","","",""
"","","","","","html-slider-response","247","436320","0.0-25.0-0.13","471924a9-ee50-4f6a-a87f-cb56913a24c3","1000","
                  <p style=""text-align: center;"">₪36
                                                <br>70%</p>
                  <p id=""wtp"" style=""text-align:center; margin-top: 0px; margin-bottom: 0px; font-size: 40px"";>&ensp;</p>","-","viewing","0","13","3A,5C,10B","","","","","","","","","","","","","","","","","","","",""
"","","","","","html-slider-response","248","439126","0.0-25.0-1.13","471924a9-ee50-4f6a-a87f-cb56913a24c3","2805","
                  <p style=""text-align: center;"">₪36
                                                <br>70%</p>
                  <p id=""wtp"" style=""text-align:center; margin-top: 0px; margin-bottom: 0px; font-size: 40px"";>מוכנים לשלם: <span id=""c_p_y""></span></p>","20","evaluation","67","13","3A,5C,10B","70","36","20","","","","","","","","","","","","","","","","",""
