"success","timeout","failed_images","failed_audio","failed_video","trial_type","trial_index","time_elapsed","internal_node_id","subject_id","rt","stimulus","response","part","slider_start","ID","set_ID","prob","amount","last_location","actual_choice","actual_EV","binary_id","trinary_id","catch","A_key","D_key","choice_prob","choice_amount","won_prize","potential_prize_amount","potential_prize_prob","total_prize","accuracy"
"true","false","[]","[]","[]","preload","0","3","0.0-0.0","752e648a-0cfe-4ee3-a6ee-7aecd4d10ca1","","","","","","","","","","","","","","","","","","","","","","","",""
"","","","","","html-keyboard-response","1","2494","0.0-1.0","752e648a-0cfe-4ee3-a6ee-7aecd4d10ca1","null","
          <h1>שלום וברוכים הבאים!</h1>
          <p>לפניכם ניסוי בקבלת החלטות עם שני חלקים.
          <br><br>לחצו על העכבר כדי להמשיך.</p>","0","example","","","","","","","","","","","","","","","","","","","",""
"","","","","","html-keyboard-response","2","10782","0.0-2.0","752e648a-0cfe-4ee3-a6ee-7aecd4d10ca1","null","
        <h1>חלק 1</h1>
        <p>בקרוב יוצגו בפניכם הגרלות.
        <br>עליכם לבחור את המחיר המירבי שתהיו מוכנים לשלם כדי להשתתף בהגרלה שתוצג.
        <br>יש לכם תקציב של ₪80 לכל הגרלה. 
        <br>נסו להעריך כל הגרלה בנפרד ולחשוב כמה היא שווה עבורכם, ₪80 זמינים לכל הגרלה בנפרד.
        <br><br>לחצו על העכבר כדי להמשיך.</p>","1","instructions","","","","","","","","","","","","","","","","","","","",""
"","","","","","html-keyboard-response","3","25598","0.0-3.0","752e648a-0cfe-4ee3-a6ee-7aecd4d10ca1","null","
        <p>בסוף הניסוי, המחשב יבחר את אחת ההגרלות ויקבע מחיר לכרטיס עבורה. 
        <br>במידה והמחיר שבחרתם נמוך מהמחיר שנבחר על ידי המחשב, לא תשתתפו בהגרלה ותשארו עם מלוא התקציב.
        <br>במידה והמחיר שבחרתם גבוה מהמחיר שנבחר על ידי המחשב, תשלמו את המחיר שנקבע ותשתתפו בהגרלה.
        <br><br>לחצו על העכבר כדי להמשיך.</p>","1","instructions","","","","","","","","","","","","","","","","","","","",""
"","","","","","html-slider-response","4","44814","0.0-4.0","752e648a-0cfe-4ee3-a6ee-7aecd4d10ca1","19102","
        <p style=""font-size: 42px;"">נתחיל עם דוגמא: 
        <br>ההגרלה מטה מציעה 65% סיכוי לזכות ב-₪40 
        <br>&emsp;&emsp;&emsp;&emsp;&emsp;&emsp;&emsp;&emsp;&ensp;35% סיכוי לזכות ב-₪0.
        <br><br>מה המחיר המירבי שתהיו מוכנים לשלם על כרטיס להגרלה זו בין 0 ל-₪80?
        <br>הזיזו את העכבר על פני המלבן ולחצו כדי לבצע בחירה.</p>
        
        <p style=""text-align: center;"">₪40<br>65%</p>

        <p id=""wtp"" style=""text-align:center; margin-top: 0px; margin-bottom: 0px; font-size: 40px"";>מוכנים לשלם: <span id=""c_p_y""></span></p>","80","example","15","","","","","","","","","","","","","","","","","","",""
"","","","","","html-keyboard-response","5","82046","0.0-5.0","752e648a-0cfe-4ee3-a6ee-7aecd4d10ca1","null","<p>יפה מאוד!
                <br> בחרתם שתהיו מוכנים לשלם ₪80 כדי להשתתף בהגרלה:
                <br><p style=""text-align: center;"">₪40<br>65%</p>
                <p>נשמע נכון?
                <br>נניח שהגרלה זו נבחרה בסוף הניסוי.
                <br>כעת המחשב יקבע מחיר עבורה באקראי.
                <br>לחצו על העכבר להמשך.</p>","1","example","","","","","","","","","","","","","","","","","","","",""
"","","","","","html-keyboard-response","6","92862","0.0-6.0","752e648a-0cfe-4ee3-a6ee-7aecd4d10ca1","null","<p>המחשב קבע מחיר: ₪80
                <br>ואתם בחרתם לשלם לכל היותר: ₪80
                <br><br>מכיוון שהמחיר שבחרתם נמוך מהמחיר שנקבע, לא תתשתתפו בהגרלה.
                <br>במקרה כזה, בסוף הניסוי תקבלו את כל התקציב ההתחלתי של ₪80.
                <br><br>לחצו על העכבר להמשך.</p>","1","example","","","","","","","","","","","","","","","","","","","",""
"","","","","","html-slider-response","7","102638","0.0-7.0","752e648a-0cfe-4ee3-a6ee-7aecd4d10ca1","9514","<p style=""font-size: 42px;"">הנה עוד דוגמא:
                <br>ההגרלה מטה מציעה 35% סיכוי לזכות ב-₪18 
                <br>&emsp;&emsp;&emsp;&emsp;&emsp;&emsp;&emsp;&emsp;&ensp;65% סיכוי לזכות ב-₪0.</p>
        
                <p style=""text-align: center;"">₪18<br>35%</p>
                <p id=""wtp"" style=""text-align:center; margin-top: 0px; margin-bottom: 0px; font-size: 40px"";>מוכנים לשלם: <span id=""c_p_y""></span></p>","0","example","52","","","","","","","","","","","","","","","","","","",""
"","","","","","html-keyboard-response","8","112422","0.0-8.0","752e648a-0cfe-4ee3-a6ee-7aecd4d10ca1","null","<p>הייתם מוכנים לשלם  ₪0 כדי להשתתף בהגרלה:
                <p style=""text-align: center;"">₪18<br>35%</p>
                <p>כעת נניח שהמחשב בחר את ההגרלה הזו בסוף הניסוי, וקבע עבורה מחיר.
                <br><br>לחצו על העכבר כדי להמשיך.</p>","1","instructions","","","","","","","","","","","","","","","","","","","",""
"","","","","","html-keyboard-response","9","133694","0.0-9.0","752e648a-0cfe-4ee3-a6ee-7aecd4d10ca1","null","<p>המחשב קבע מחיר להגרלה: ₪0
                <br>ואתם בחרתם לשלם לכל היותר: ₪0
                <br><br>כעת המחיר שנקבע זהה לזה שבחרתם, אז תשלמו את המחיר שקבע המחשב (₪0) ותשתתפו בהגרלה.
                <br>במקרה כזה, תסיימו את הניסוי עם תקציב של ₪80 ועם סיכוי לזכות ב-₪18 נוספים מההגרלה.
                <br>כלומר, תוכלו לקבל ₪80 אם לא תזכו בהגרלה, או ₪98 אם תזכו בהגרלה.
                <br><br>לחצו על העכבר להמשך.</p>","1","example","","","","","","","","","","","","","","","","","","","",""
"","","","","","html-keyboard-response","10","148102","0.0-10.0","752e648a-0cfe-4ee3-a6ee-7aecd4d10ca1","null","<p>במהלך הניסוי, קודם תראו את ההגרלה ורק לאחר מכן תוכלו לבחור.
                <p>כמו כן, יהיו לכם מספר שניות מוגבל להגיב.
                <p>בואו ננסה זאת עם ההגרלה הקודמת.
                <br>לחצו על העכבר כדי להמשיך.</p>","1","instructions","","","","","","","","","","","","","","","","","","","",""
"","","","","","html-slider-response","11","149373","0.0-11.0","752e648a-0cfe-4ee3-a6ee-7aecd4d10ca1","1000","
                    <p style=""text-align: center;"">₪18<br>35%</p>
                    <p id=""wtp"" style=""text-align:center; margin-top: 0px; margin-bottom: 0px; font-size: 40px"";>&ensp;</p>","52","instructions","0","","","","","","","","","","","","","","","","","","",""
"","","","","","html-slider-response","12","153640","0.0-12.0","752e648a-0cfe-4ee3-a6ee-7aecd4d10ca1","null","
                    <p style=""text-align: center;"">₪18<br>35%</p>
                    <p id=""wtp"" style=""text-align:center; margin-top: 0px; margin-bottom: 0px; font-size: 40px"";>מוכנים לשלם: <span id=""c_p_y""></span></p>","null","instructions","52","","","","","","","","","","","","","","","","","","",""
"","","","","","html-keyboard-response","13","157078","0.0-13.0","752e648a-0cfe-4ee3-a6ee-7aecd4d10ca1","null","<p>לא הגבתם בזמן המוקצב לתגובה. 
                <br>נסו להגיב מהר יותר בפעם הבאה.
                <br><br>לחצו על העכבר כדי להמשיך.</p>","1","instructions","","","","","","","","","","","","","","","","","","","",""
"","","","","","html-slider-response","14","161340","0.0-14.0-0.0","752e648a-0cfe-4ee3-a6ee-7aecd4d10ca1","null","
                    <p style=""text-align: center;"">₪40<br>65%</p>
                    <p id=""wtp"" style=""text-align:center; margin-top: 0px; margin-bottom: 0px; font-size: 40px"";>מוכנים לשלם: <span id=""c_p_y""></span></p>","null","instructions","80","","","","","","","","","","","","","","","","","","",""
"","","","","","html-keyboard-response","15","162358","0.0-14.0-1.0","752e648a-0cfe-4ee3-a6ee-7aecd4d10ca1","null","<p>לא הגבתם בזמן המוקצב לתגובה. 
                <br>נסו להגיב מהר יותר בפעם הבאה.
                <br><br>לחצו על העכבר כדי להמשיך.</p>","1","instructions","","","","","","","","","","","","","","","","","","","",""
"","","","","","html-keyboard-response","16","173406","0.0-15.0","752e648a-0cfe-4ee3-a6ee-7aecd4d10ca1","null","<p>כעת נתחיל את הניסוי.
                <br><br>אתם תראו הגרלות ותתבקשו לבחור כמה תהיו מוכנים לשלם כדי להשתתף בהן.
                <br>יש לכם תקציב של ₪80 עבור כל הגרלה.
                <br>בסוף הניסוי הגרלה אחת תבחר באקראי ותשוחק.
                <br><br>לחצו על העכבר כדי להתחיל את הניסוי.</p>","1","instructions","","","","","","","","","","","","","","","","","","","",""
"","","","","","html-keyboard-response","17","174681","0.0-16.0","752e648a-0cfe-4ee3-a6ee-7aecd4d10ca1","null","<p style=""text-align: center;"">+</p>","null","fixation","","","","","","","","","","","","","","","","","","","",""
"","","","","","html-slider-response","18","175697","0.0-17.0-0.0","752e648a-0cfe-4ee3-a6ee-7aecd4d10ca1","1000","
                  <p style=""text-align: center;"">₪64
                                                <br>25%</p>
                  <p id=""wtp"" style=""text-align:center; margin-top: 0px; margin-bottom: 0px; font-size: 40px"";>&ensp;</p>","-","viewing","0","24","6A,21A","","","","","","","","","","","","","","","","",""
"","","","","","html-slider-response","19","177223","0.0-17.0-1.0","752e648a-0cfe-4ee3-a6ee-7aecd4d10ca1","1524","
                  <p style=""text-align: center;"">₪64
                                                <br>25%</p>
                  <p id=""wtp"" style=""text-align:center; margin-top: 0px; margin-bottom: 0px; font-size: 40px"";>מוכנים לשלם: <span id=""c_p_y""></span></p>","43","evaluation","68","24","6A,21A","25","64","43","","","","","","","","","","","","","",""
"","","","","","html-keyboard-response","20","178496","0.0-17.0-2.0","752e648a-0cfe-4ee3-a6ee-7aecd4d10ca1","null","<p style=""text-align: center;"">+</p>","null","fixation","","","","","","","","","","","","","","","","","","","",""
"","","","","","html-slider-response","21","179513","0.0-17.0-0.1","752e648a-0cfe-4ee3-a6ee-7aecd4d10ca1","1000","
                  <p style=""text-align: center;"">₪43
                                                <br>75%</p>
                  <p id=""wtp"" style=""text-align:center; margin-top: 0px; margin-bottom: 0px; font-size: 40px"";>&ensp;</p>","-","viewing","0","18","11B,19B,24A,26A","","","","","","","","","","","","","","","","",""
"","","","","","html-slider-response","22","180550","0.0-17.0-1.1","752e648a-0cfe-4ee3-a6ee-7aecd4d10ca1","1036","
                  <p style=""text-align: center;"">₪43
                                                <br>75%</p>
                  <p id=""wtp"" style=""text-align:center; margin-top: 0px; margin-bottom: 0px; font-size: 40px"";>מוכנים לשלם: <span id=""c_p_y""></span></p>","80","evaluation","61","18","11B,19B,24A,26A","75","43","80","","","","","","","","","","","","","",""
"","","","","","html-keyboard-response","23","181269","0.0-17.0-2.1","752e648a-0cfe-4ee3-a6ee-7aecd4d10ca1","null","<p style=""text-align: center;"">+</p>","null","fixation","","","","","","","","","","","","","","","","","","","",""
"","","","","","html-slider-response","24","182286","0.0-17.0-0.2","752e648a-0cfe-4ee3-a6ee-7aecd4d10ca1","1000","
                  <p style=""text-align: center;"">₪58
                                                <br>40%</p>
                  <p id=""wtp"" style=""text-align:center; margin-top: 0px; margin-bottom: 0px; font-size: 40px"";>&ensp;</p>","-","viewing","0","20","10C,13A,19C,21B","","","","","","","","","","","","","","","","",""
"","","","","","html-slider-response","25","183566","0.0-17.0-1.2","752e648a-0cfe-4ee3-a6ee-7aecd4d10ca1","1279","
                  <p style=""text-align: center;"">₪58
                                                <br>40%</p>
                  <p id=""wtp"" style=""text-align:center; margin-top: 0px; margin-bottom: 0px; font-size: 40px"";>מוכנים לשלם: <span id=""c_p_y""></span></p>","41","evaluation","30","20","10C,13A,19C,21B","40","58","41","","","","","","","","","","","","","",""
"","","","","","html-keyboard-response","26","184434","0.0-17.0-2.2","752e648a-0cfe-4ee3-a6ee-7aecd4d10ca1","null","<p style=""text-align: center;"">+</p>","null","fixation","","","","","","","","","","","","","","","","","","","",""
"","","","","","html-slider-response","27","185447","0.0-17.0-0.3","752e648a-0cfe-4ee3-a6ee-7aecd4d10ca1","1000","
                  <p style=""text-align: center;"">₪61
                                                <br>45%</p>
                  <p id=""wtp"" style=""text-align:center; margin-top: 0px; margin-bottom: 0px; font-size: 40px"";>&ensp;</p>","-","viewing","0","22","10A,11A","","","","","","","","","","","","","","","","",""
"","","","","","html-slider-response","28","186799","0.0-17.0-1.3","752e648a-0cfe-4ee3-a6ee-7aecd4d10ca1","1351","
                  <p style=""text-align: center;"">₪61
                                                <br>45%</p>
                  <p id=""wtp"" style=""text-align:center; margin-top: 0px; margin-bottom: 0px; font-size: 40px"";>מוכנים לשלם: <span id=""c_p_y""></span></p>","32","evaluation","38","22","10A,11A","45","61","32","","","","","","","","","","","","","",""
"","","","","","html-keyboard-response","29","187734","0.0-17.0-2.3","752e648a-0cfe-4ee3-a6ee-7aecd4d10ca1","null","<p style=""text-align: center;"">+</p>","null","fixation","","","","","","","","","","","","","","","","","","","",""
"","","","","","html-slider-response","30","188744","0.0-17.0-0.4","752e648a-0cfe-4ee3-a6ee-7aecd4d10ca1","1000","
                  <p style=""text-align: center;"">₪71
                                                <br>75%</p>
                  <p id=""wtp"" style=""text-align:center; margin-top: 0px; margin-bottom: 0px; font-size: 40px"";>&ensp;</p>","-","viewing","0","28","8B","","","","","","","","","","","","","","","","",""
"","","","","","html-slider-response","31","189406","0.0-17.0-1.4","752e648a-0cfe-4ee3-a6ee-7aecd4d10ca1","661","
                  <p style=""text-align: center;"">₪71
                                                <br>75%</p>
                  <p id=""wtp"" style=""text-align:center; margin-top: 0px; margin-bottom: 0px; font-size: 40px"";>מוכנים לשלם: <span id=""c_p_y""></span></p>","80","evaluation","15","28","8B","75","71","80","","","","","","","","","","","","","",""
"","","","","","html-keyboard-response","32","190398","0.0-17.0-2.4","752e648a-0cfe-4ee3-a6ee-7aecd4d10ca1","null","<p style=""text-align: center;"">+</p>","null","fixation","","","","","","","","","","","","","","","","","","","",""
"","","","","","html-slider-response","33","191402","0.0-17.0-0.5","752e648a-0cfe-4ee3-a6ee-7aecd4d10ca1","1000","
                  <p style=""text-align: center;"">₪79
                                                <br>40%</p>
                  <p id=""wtp"" style=""text-align:center; margin-top: 0px; margin-bottom: 0px; font-size: 40px"";>&ensp;</p>","-","viewing","0","30","9B","","","","","","","","","","","","","","","","",""
"","","","","","html-slider-response","34","192567","0.0-17.0-1.5","752e648a-0cfe-4ee3-a6ee-7aecd4d10ca1","1163","
                  <p style=""text-align: center;"">₪79
                                                <br>40%</p>
                  <p id=""wtp"" style=""text-align:center; margin-top: 0px; margin-bottom: 0px; font-size: 40px"";>מוכנים לשלם: <span id=""c_p_y""></span></p>","61","evaluation","70","30","9B","40","79","61","","","","","","","","","","","","","",""
"","","","","","html-keyboard-response","35","193856","0.0-17.0-2.5","752e648a-0cfe-4ee3-a6ee-7aecd4d10ca1","null","<p style=""text-align: center;"">+</p>","null","fixation","","","","","","","","","","","","","","","","","","","",""
"","","","","","html-slider-response","36","194863","0.0-17.0-0.6","752e648a-0cfe-4ee3-a6ee-7aecd4d10ca1","1000","
                  <p style=""text-align: center;"">₪71
                                                <br>45%</p>
                  <p id=""wtp"" style=""text-align:center; margin-top: 0px; margin-bottom: 0px; font-size: 40px"";>&ensp;</p>","-","viewing","0","26","2B,16A","","","","","","","","","","","","","","","","",""
"","","","","","html-slider-response","37","195750","0.0-17.0-1.6","752e648a-0cfe-4ee3-a6ee-7aecd4d10ca1","886","
                  <p style=""text-align: center;"">₪71
                                                <br>45%</p>
                  <p id=""wtp"" style=""text-align:center; margin-top: 0px; margin-bottom: 0px; font-size: 40px"";>מוכנים לשלם: <span id=""c_p_y""></span></p>","26","evaluation","50","26","2B,16A","45","71","26","","","","","","","","","","","","","",""
"","","","","","html-keyboard-response","38","196577","0.0-17.0-2.6","752e648a-0cfe-4ee3-a6ee-7aecd4d10ca1","null","<p style=""text-align: center;"">+</p>","null","fixation","","","","","","","","","","","","","","","","","","","",""
"","","","","","html-slider-response","39","197590","0.0-17.0-0.7","752e648a-0cfe-4ee3-a6ee-7aecd4d10ca1","1000","
                  <p style=""text-align: center;"">₪11
                                                <br>25%</p>
                  <p id=""wtp"" style=""text-align:center; margin-top: 0px; margin-bottom: 0px; font-size: 40px"";>&ensp;</p>","-","viewing","0","5","12A,27B,28B,30B","","","","","","","","","","","","","","","","",""
"","","","","","html-slider-response","40","198582","0.0-17.0-1.7","752e648a-0cfe-4ee3-a6ee-7aecd4d10ca1","991","
                  <p style=""text-align: center;"">₪11
                                                <br>25%</p>
                  <p id=""wtp"" style=""text-align:center; margin-top: 0px; margin-bottom: 0px; font-size: 40px"";>מוכנים לשלם: <span id=""c_p_y""></span></p>","6","evaluation","45","5","12A,27B,28B,30B","25","11","6","","","","","","","","","","","","","",""
"","","","","","html-keyboard-response","41","199470","0.0-17.0-2.7","752e648a-0cfe-4ee3-a6ee-7aecd4d10ca1","null","<p style=""text-align: center;"">+</p>","null","fixation","","","","","","","","","","","","","","","","","","","",""
"","","","","","html-slider-response","42","200479","0.0-17.0-0.8","752e648a-0cfe-4ee3-a6ee-7aecd4d10ca1","1000","
                  <p style=""text-align: center;"">₪71
                                                <br>55%</p>
                  <p id=""wtp"" style=""text-align:center; margin-top: 0px; margin-bottom: 0px; font-size: 40px"";>&ensp;</p>","-","viewing","0","27","5B,18A","","","","","","","","","","","","","","","","",""
"","","","","","html-slider-response","43","201247","0.0-17.0-1.8","752e648a-0cfe-4ee3-a6ee-7aecd4d10ca1","767","
                  <p style=""text-align: center;"">₪71
                                                <br>55%</p>
                  <p id=""wtp"" style=""text-align:center; margin-top: 0px; margin-bottom: 0px; font-size: 40px"";>מוכנים לשלם: <span id=""c_p_y""></span></p>","69","evaluation","2","27","5B,18A","55","71","69","","","","","","","","","","","","","",""
"","","","","","html-keyboard-response","44","201865","0.0-17.0-2.8","752e648a-0cfe-4ee3-a6ee-7aecd4d10ca1","null","<p style=""text-align: center;"">+</p>","null","fixation","","","","","","","","","","","","","","","","","","","",""
"","","","","","html-slider-response","45","202873","0.0-17.0-0.9","752e648a-0cfe-4ee3-a6ee-7aecd4d10ca1","1000","
                  <p style=""text-align: center;"">₪36
                                                <br>70%</p>
                  <p id=""wtp"" style=""text-align:center; margin-top: 0px; margin-bottom: 0px; font-size: 40px"";>&ensp;</p>","-","viewing","0","13","3A,5C,10B","","","","","","","","","","","","","","","","",""
"","","","","","html-slider-response","46","203919","0.0-17.0-1.9","752e648a-0cfe-4ee3-a6ee-7aecd4d10ca1","1044","
                  <p style=""text-align: center;"">₪36
                                                <br>70%</p>
                  <p id=""wtp"" style=""text-align:center; margin-top: 0px; margin-bottom: 0px; font-size: 40px"";>מוכנים לשלם: <span id=""c_p_y""></span></p>","79","evaluation","68","13","3A,5C,10B","70","36","79","","","","","","","","","","","","","",""
"","","","","","html-keyboard-response","47","204557","0.0-17.0-2.9","752e648a-0cfe-4ee3-a6ee-7aecd4d10ca1","null","<p style=""text-align: center;"">+</p>","null","fixation","","","","","","","","","","","","","","","","","","","",""
"","","","","","html-slider-response","48","205563","0.0-17.0-0.10","752e648a-0cfe-4ee3-a6ee-7aecd4d10ca1","1000","
                  <p style=""text-align: center;"">₪36
                                                <br>30%</p>
                  <p id=""wtp"" style=""text-align:center; margin-top: 0px; margin-bottom: 0px; font-size: 40px"";>&ensp;</p>","-","viewing","0","11","3C,20A,22A","","","","","","","","","","","","","","","","",""
"","","","","","html-slider-response","49","206703","0.0-17.0-1.10","752e648a-0cfe-4ee3-a6ee-7aecd4d10ca1","1138","
                  <p style=""text-align: center;"">₪36
                                                <br>30%</p>
                  <p id=""wtp"" style=""text-align:center; margin-top: 0px; margin-bottom: 0px; font-size: 40px"";>מוכנים לשלם: <span id=""c_p_y""></span></p>","18","evaluation","74","11","3C,20A,22A","30","36","18","","","","","","","","","","","","","",""
"","","","","","html-keyboard-response","50","207926","0.0-17.0-2.10","752e648a-0cfe-4ee3-a6ee-7aecd4d10ca1","null","<p style=""text-align: center;"">+</p>","null","fixation","","","","","","","","","","","","","","","","","","","",""
"","","","","","html-slider-response","51","208941","0.0-17.0-0.11","752e648a-0cfe-4ee3-a6ee-7aecd4d10ca1","1000","
                  <p style=""text-align: center;"">₪79
                                                <br>65%</p>
                  <p id=""wtp"" style=""text-align:center; margin-top: 0px; margin-bottom: 0px; font-size: 40px"";>&ensp;</p>","-","viewing","0","31","8A","","","","","","","","","","","","","","","","",""
"","","","","","html-slider-response","52","210855","0.0-17.0-1.11","752e648a-0cfe-4ee3-a6ee-7aecd4d10ca1","1913","
                  <p style=""text-align: center;"">₪79
                                                <br>65%</p>
                  <p id=""wtp"" style=""text-align:center; margin-top: 0px; margin-bottom: 0px; font-size: 40px"";>מוכנים לשלם: <span id=""c_p_y""></span></p>","51","evaluation","18","31","8A","65","79","51","","","","","","","","","","","","","",""
"","","","","","html-keyboard-response","53","211432","0.0-17.0-2.11","752e648a-0cfe-4ee3-a6ee-7aecd4d10ca1","null","<p style=""text-align: center;"">+</p>","null","fixation","","","","","","","","","","","","","","","","","","","",""
"","","","","","html-slider-response","54","212434","0.0-17.0-0.12","752e648a-0cfe-4ee3-a6ee-7aecd4d10ca1","1000","
                  <p style=""text-align: center;"">₪76
                                                <br>65%</p>
                  <p id=""wtp"" style=""text-align:center; margin-top: 0px; margin-bottom: 0px; font-size: 40px"";>&ensp;</p>","-","viewing","0","29","8C,19A,24B","","","","","","","","","","","","","","","","",""
"","","","","","html-slider-response","55","213631","0.0-17.0-1.12","752e648a-0cfe-4ee3-a6ee-7aecd4d10ca1","1196","
                  <p style=""text-align: center;"">₪76
                                                <br>65%</p>
                  <p id=""wtp"" style=""text-align:center; margin-top: 0px; margin-bottom: 0px; font-size: 40px"";>מוכנים לשלם: <span id=""c_p_y""></span></p>","67","evaluation","4","29","8C,19A,24B","65","76","67","","","","","","","","","","","","","",""
"","","","","","html-keyboard-response","56","214910","0.0-17.0-2.12","752e648a-0cfe-4ee3-a6ee-7aecd4d10ca1","null","<p style=""text-align: center;"">+</p>","null","fixation","","","","","","","","","","","","","","","","","","","",""
"","","","","","html-slider-response","57","215912","0.0-17.0-0.13","752e648a-0cfe-4ee3-a6ee-7aecd4d10ca1","1000","
                  <p style=""text-align: center;"">₪18
                                                <br>50%</p>
                  <p id=""wtp"" style=""text-align:center; margin-top: 0px; margin-bottom: 0px; font-size: 40px"";>&ensp;</p>","-","viewing","0","10","2C,16C,22B,28A","","","","","","","","","","","","","","","","",""
"","","","","","html-slider-response","58","216887","0.0-17.0-1.13","752e648a-0cfe-4ee3-a6ee-7aecd4d10ca1","973","
                  <p style=""text-align: center;"">₪18
                                                <br>50%</p>
                  <p id=""wtp"" style=""text-align:center; margin-top: 0px; margin-bottom: 0px; font-size: 40px"";>מוכנים לשלם: <span id=""c_p_y""></span></p>","41","evaluation","41","10","2C,16C,22B,28A","50","18","41","","","","","","","","","","","","","",""
"","","","","","html-keyboard-response","59","217646","0.0-17.0-2.13","752e648a-0cfe-4ee3-a6ee-7aecd4d10ca1","null","<p style=""text-align: center;"">+</p>","null","fixation","","","","","","","","","","","","","","","","","","","",""
"","","","","","html-slider-response","60","218656","0.0-17.0-0.14","752e648a-0cfe-4ee3-a6ee-7aecd4d10ca1","1000","
                  <p style=""text-align: center;"">₪11
                                                <br>20%</p>
                  <p id=""wtp"" style=""text-align:center; margin-top: 0px; margin-bottom: 0px; font-size: 40px"";>&ensp;</p>","-","viewing","0","4","12C,17C,23C,28C","","","","","","","","","","","","","","","","",""
"","","","","","html-slider-response","61","220215","0.0-17.0-1.14","752e648a-0cfe-4ee3-a6ee-7aecd4d10ca1","1558","
                  <p style=""text-align: center;"">₪11
                                                <br>20%</p>
                  <p id=""wtp"" style=""text-align:center; margin-top: 0px; margin-bottom: 0px; font-size: 40px"";>מוכנים לשלם: <span id=""c_p_y""></span></p>","3","evaluation","5","4","12C,17C,23C,28C","20","11","3","","","","","","","","","","","","","",""
"","","","","","html-keyboard-response","62","221162","0.0-17.0-2.14","752e648a-0cfe-4ee3-a6ee-7aecd4d10ca1","null","<p style=""text-align: center;"">+</p>","null","fixation","","","","","","","","","","","","","","","","","","","",""
"","","","","","html-slider-response","63","222164","0.0-17.0-0.15","752e648a-0cfe-4ee3-a6ee-7aecd4d10ca1","1000","
                  <p style=""text-align: center;"">₪61
                                                <br>55%</p>
                  <p id=""wtp"" style=""text-align:center; margin-top: 0px; margin-bottom: 0px; font-size: 40px"";>&ensp;</p>","-","viewing","0","23","7B,26B","","","","","","","","","","","","","","","","",""
"","","","","","html-slider-response","64","223695","0.0-17.0-1.15","752e648a-0cfe-4ee3-a6ee-7aecd4d10ca1","1529","
                  <p style=""text-align: center;"">₪61
                                                <br>55%</p>
                  <p id=""wtp"" style=""text-align:center; margin-top: 0px; margin-bottom: 0px; font-size: 40px"";>מוכנים לשלם: <span id=""c_p_y""></span></p>","79","evaluation","8","23","7B,26B","55","61","79","","","","","","","","","","","","","",""
"","","","","","html-keyboard-response","65","224896","0.0-17.0-2.15","752e648a-0cfe-4ee3-a6ee-7aecd4d10ca1","null","<p style=""text-align: center;"">+</p>","null","fixation","","","","","","","","","","","","","","","","","","","",""
"","","","","","html-slider-response","66","225901","0.0-17.0-0.16","752e648a-0cfe-4ee3-a6ee-7aecd4d10ca1","1000","
                  <p style=""text-align: center;"">₪16
                                                <br>20%</p>
                  <p id=""wtp"" style=""text-align:center; margin-top: 0px; margin-bottom: 0px; font-size: 40px"";>&ensp;</p>","-","viewing","0","8","14C,17A,20C,27A","","","","","","","","","","","","","","","","",""
"","","","","","html-slider-response","67","227111","0.0-17.0-1.16","752e648a-0cfe-4ee3-a6ee-7aecd4d10ca1","1210","
                  <p style=""text-align: center;"">₪16
                                                <br>20%</p>
                  <p id=""wtp"" style=""text-align:center; margin-top: 0px; margin-bottom: 0px; font-size: 40px"";>מוכנים לשלם: <span id=""c_p_y""></span></p>","13","evaluation","7","8","14C,17A,20C,27A","20","16","13","","","","","","","","","","","","","",""
"","","","","","html-keyboard-response","68","227899","0.0-17.0-2.16","752e648a-0cfe-4ee3-a6ee-7aecd4d10ca1","null","<p style=""text-align: center;"">+</p>","null","fixation","","","","","","","","","","","","","","","","","","","",""
"","","","","","html-slider-response","69","228900","0.0-17.0-0.17","752e648a-0cfe-4ee3-a6ee-7aecd4d10ca1","1000","
                  <p style=""text-align: center;"">₪64
                                                <br>50%</p>
                  <p id=""wtp"" style=""text-align:center; margin-top: 0px; margin-bottom: 0px; font-size: 40px"";>&ensp;</p>","-","viewing","0","25","1B,3B,4A","","","","","","","","","","","","","","","","",""
"","","","","","html-slider-response","70","230079","0.0-17.0-1.17","752e648a-0cfe-4ee3-a6ee-7aecd4d10ca1","1178","
                  <p style=""text-align: center;"">₪64
                                                <br>50%</p>
                  <p id=""wtp"" style=""text-align:center; margin-top: 0px; margin-bottom: 0px; font-size: 40px"";>מוכנים לשלם: <span id=""c_p_y""></span></p>","66","evaluation","44","25","1B,3B,4A","50","64","66","","","","","","","","","","","","","",""
"","","","","","html-keyboard-response","71","230682","0.0-17.0-2.17","752e648a-0cfe-4ee3-a6ee-7aecd4d10ca1","null","<p style=""text-align: center;"">+</p>","null","fixation","","","","","","","","","","","","","","","","","","","",""
"","","","","","html-slider-response","72","231689","0.0-17.0-0.18","752e648a-0cfe-4ee3-a6ee-7aecd4d10ca1","1000","
                  <p style=""text-align: center;"">₪39
                                                <br>60%</p>
                  <p id=""wtp"" style=""text-align:center; margin-top: 0px; margin-bottom: 0px; font-size: 40px"";>&ensp;</p>","-","viewing","0","15","9C,25B","","","","","","","","","","","","","","","","",""
"","","","","","html-slider-response","73","233095","0.0-17.0-1.18","752e648a-0cfe-4ee3-a6ee-7aecd4d10ca1","1405","
                  <p style=""text-align: center;"">₪39
                                                <br>60%</p>
                  <p id=""wtp"" style=""text-align:center; margin-top: 0px; margin-bottom: 0px; font-size: 40px"";>מוכנים לשלם: <span id=""c_p_y""></span></p>","59","evaluation","44","15","9C,25B","60","39","59","","","","","","","","","","","","","",""
"","","","","","html-keyboard-response","74","234061","0.0-17.0-2.18","752e648a-0cfe-4ee3-a6ee-7aecd4d10ca1","null","<p style=""text-align: center;"">+</p>","null","fixation","","","","","","","","","","","","","","","","","","","",""
"","","","","","html-slider-response","75","235067","0.0-17.0-0.19","752e648a-0cfe-4ee3-a6ee-7aecd4d10ca1","1000","
                  <p style=""text-align: center;"">₪58
                                                <br>30%</p>
                  <p id=""wtp"" style=""text-align:center; margin-top: 0px; margin-bottom: 0px; font-size: 40px"";>&ensp;</p>","-","viewing","0","19","13C,30A","","","","","","","","","","","","","","","","",""
"","","","","","html-slider-response","76","235863","0.0-17.0-1.19","752e648a-0cfe-4ee3-a6ee-7aecd4d10ca1","794","
                  <p style=""text-align: center;"">₪58
                                                <br>30%</p>
                  <p id=""wtp"" style=""text-align:center; margin-top: 0px; margin-bottom: 0px; font-size: 40px"";>מוכנים לשלם: <span id=""c_p_y""></span></p>","15","evaluation","54","19","13C,30A","30","58","15","","","","","","","","","","","","","",""
"","","","","","html-keyboard-response","77","237069","0.0-17.0-2.19","752e648a-0cfe-4ee3-a6ee-7aecd4d10ca1","null","<p style=""text-align: center;"">+</p>","null","fixation","","","","","","","","","","","","","","","","","","","",""
"","","","","","html-slider-response","78","238071","0.0-17.0-0.20","752e648a-0cfe-4ee3-a6ee-7aecd4d10ca1","1000","
                  <p style=""text-align: center;"">₪43
                                                <br>60%</p>
                  <p id=""wtp"" style=""text-align:center; margin-top: 0px; margin-bottom: 0px; font-size: 40px"";>&ensp;</p>","-","viewing","0","17","2A,7A,9A,15B","","","","","","","","","","","","","","","","",""
"","","","","","html-slider-response","79","239039","0.0-17.0-1.20","752e648a-0cfe-4ee3-a6ee-7aecd4d10ca1","968","
                  <p style=""text-align: center;"">₪43
                                                <br>60%</p>
                  <p id=""wtp"" style=""text-align:center; margin-top: 0px; margin-bottom: 0px; font-size: 40px"";>מוכנים לשלם: <span id=""c_p_y""></span></p>","60","evaluation","33","17","2A,7A,9A,15B","60","43","60","","","","","","","","","","","","","",""
"","","","","","html-keyboard-response","80","240472","0.0-17.0-2.20","752e648a-0cfe-4ee3-a6ee-7aecd4d10ca1","null","<p style=""text-align: center;"">+</p>","null","fixation","","","","","","","","","","","","","","","","","","","",""
"","","","","","html-slider-response","81","241487","0.0-17.0-0.21","752e648a-0cfe-4ee3-a6ee-7aecd4d10ca1","1000","
                  <p style=""text-align: center;"">₪11
                                                <br>75%</p>
                  <p id=""wtp"" style=""text-align:center; margin-top: 0px; margin-bottom: 0px; font-size: 40px"";>&ensp;</p>","-","viewing","0","7","6B,18B,22C,24C,29A","","","","","","","","","","","","","","","","",""
"","","","","","html-slider-response","82","243879","0.0-17.0-1.21","752e648a-0cfe-4ee3-a6ee-7aecd4d10ca1","2392","
                  <p style=""text-align: center;"">₪11
                                                <br>75%</p>
                  <p id=""wtp"" style=""text-align:center; margin-top: 0px; margin-bottom: 0px; font-size: 40px"";>מוכנים לשלם: <span id=""c_p_y""></span></p>","6","evaluation","79","7","6B,18B,22C,24C,29A","75","11","6","","","","","","","","","","","","","",""
"","","","","","html-keyboard-response","83","244919","0.0-17.0-2.21","752e648a-0cfe-4ee3-a6ee-7aecd4d10ca1","null","<p style=""text-align: center;"">+</p>","null","fixation","","","","","","","","","","","","","","","","","","","",""
"","","","","","html-slider-response","84","245929","0.0-17.0-0.22","752e648a-0cfe-4ee3-a6ee-7aecd4d10ca1","1000","
                  <p style=""text-align: center;"">₪36
                                                <br>75%</p>
                  <p id=""wtp"" style=""text-align:center; margin-top: 0px; margin-bottom: 0px; font-size: 40px"";>&ensp;</p>","-","viewing","0","14","4B,5A,13B,16B","","","","","","","","","","","","","","","","",""
"","","","","","html-slider-response","85","247775","0.0-17.0-1.22","752e648a-0cfe-4ee3-a6ee-7aecd4d10ca1","1845","
                  <p style=""text-align: center;"">₪36
                                                <br>75%</p>
                  <p id=""wtp"" style=""text-align:center; margin-top: 0px; margin-bottom: 0px; font-size: 40px"";>מוכנים לשלם: <span id=""c_p_y""></span></p>","20","evaluation","22","14","4B,5A,13B,16B","75","36","20","","","","","","","","","","","","","",""
"","","","","","html-keyboard-response","86","248405","0.0-17.0-2.22","752e648a-0cfe-4ee3-a6ee-7aecd4d10ca1","null","<p style=""text-align: center;"">+</p>","null","fixation","","","","","","","","","","","","","","","","","","","",""
"","","","","","html-slider-response","87","249419","0.0-17.0-0.23","752e648a-0cfe-4ee3-a6ee-7aecd4d10ca1","1000","
                  <p style=""text-align: center;"">₪11
                                                <br>45%</p>
                  <p id=""wtp"" style=""text-align:center; margin-top: 0px; margin-bottom: 0px; font-size: 40px"";>&ensp;</p>","-","viewing","0","6","14B,21C,25C","","","","","","","","","","","","","","","","",""
"","","","","","html-slider-response","88","251399","0.0-17.0-1.23","752e648a-0cfe-4ee3-a6ee-7aecd4d10ca1","1979","
                  <p style=""text-align: center;"">₪11
                                                <br>45%</p>
                  <p id=""wtp"" style=""text-align:center; margin-top: 0px; margin-bottom: 0px; font-size: 40px"";>מוכנים לשלם: <span id=""c_p_y""></span></p>","8","evaluation","31","6","14B,21C,25C","45","11","9","","","","","","","","","","","","","",""
"","","","","","html-keyboard-response","89","252324","0.0-17.0-2.23","752e648a-0cfe-4ee3-a6ee-7aecd4d10ca1","null","<p style=""text-align: center;"">+</p>","null","fixation","","","","","","","","","","","","","","","","","","","",""
"","","","","","html-slider-response","90","253332","0.0-17.0-0.24","752e648a-0cfe-4ee3-a6ee-7aecd4d10ca1","1000","
                  <p style=""text-align: center;"">₪4
                                                <br>50%</p>
                  <p id=""wtp"" style=""text-align:center; margin-top: 0px; margin-bottom: 0px; font-size: 40px"";>&ensp;</p>","-","viewing","0","2","4C,17B","","","","","","","","","","","","","","","","",""
"","","","","","html-slider-response","91","254695","0.0-17.0-1.24","752e648a-0cfe-4ee3-a6ee-7aecd4d10ca1","1362","
                  <p style=""text-align: center;"">₪4
                                                <br>50%</p>
                  <p id=""wtp"" style=""text-align:center; margin-top: 0px; margin-bottom: 0px; font-size: 40px"";>מוכנים לשלם: <span id=""c_p_y""></span></p>","2","evaluation","61","2","4C,17B","50","4","2","","","","","","","","","","","","","",""
"","","","","","html-keyboard-response","92","255932","0.0-17.0-2.24","752e648a-0cfe-4ee3-a6ee-7aecd4d10ca1","null","<p style=""text-align: center;"">+</p>","null","fixation","","","","","","","","","","","","","","","","","","","",""
"","","","","","html-slider-response","93","256934","0.0-17.0-0.25","752e648a-0cfe-4ee3-a6ee-7aecd4d10ca1","1000","
                  <p style=""text-align: center;"">₪4
                                                <br>75%</p>
                  <p id=""wtp"" style=""text-align:center; margin-top: 0px; margin-bottom: 0px; font-size: 40px"";>&ensp;</p>","-","viewing","0","3","12B,20B,23B,27C,29C","","","","","","","","","","","","","","","","",""
"","","","","","html-slider-response","94","258471","0.0-17.0-1.25","752e648a-0cfe-4ee3-a6ee-7aecd4d10ca1","1537","
                  <p style=""text-align: center;"">₪4
                                                <br>75%</p>
                  <p id=""wtp"" style=""text-align:center; margin-top: 0px; margin-bottom: 0px; font-size: 40px"";>מוכנים לשלם: <span id=""c_p_y""></span></p>","0","evaluation","49","3","12B,20B,23B,27C,29C","75","4","1","","","","","","","","","","","","","",""
"","","","","","html-keyboard-response","95","259335","0.0-17.0-2.25","752e648a-0cfe-4ee3-a6ee-7aecd4d10ca1","null","<p style=""text-align: center;"">+</p>","null","fixation","","","","","","","","","","","","","","","","","","","",""
"","","","","","html-slider-response","96","260336","0.0-17.0-0.26","752e648a-0cfe-4ee3-a6ee-7aecd4d10ca1","1000","
                  <p style=""text-align: center;"">₪4
                                                <br>25%</p>
                  <p id=""wtp"" style=""text-align:center; margin-top: 0px; margin-bottom: 0px; font-size: 40px"";>&ensp;</p>","-","viewing","0","1","6C,29B,30C","","","","","","","","","","","","","","","","",""
"","","","","","html-slider-response","97","261639","0.0-17.0-1.26","752e648a-0cfe-4ee3-a6ee-7aecd4d10ca1","1302","
                  <p style=""text-align: center;"">₪4
                                                <br>25%</p>
                  <p id=""wtp"" style=""text-align:center; margin-top: 0px; margin-bottom: 0px; font-size: 40px"";>מוכנים לשלם: <span id=""c_p_y""></span></p>","1","evaluation","80","1","6C,29B,30C","25","4","1","","","","","","","","","","","","","",""
"","","","","","html-keyboard-response","98","262810","0.0-17.0-2.26","752e648a-0cfe-4ee3-a6ee-7aecd4d10ca1","null","<p style=""text-align: center;"">+</p>","null","fixation","","","","","","","","","","","","","","","","","","","",""
"","","","","","html-slider-response","99","263818","0.0-17.0-0.27","752e648a-0cfe-4ee3-a6ee-7aecd4d10ca1","1000","
                  <p style=""text-align: center;"">₪18
                                                <br>25%</p>
                  <p id=""wtp"" style=""text-align:center; margin-top: 0px; margin-bottom: 0px; font-size: 40px"";>&ensp;</p>","-","viewing","0","9","14A,23A","","","","","","","","","","","","","","","","",""
"","","","","","html-slider-response","100","265807","0.0-17.0-1.27","752e648a-0cfe-4ee3-a6ee-7aecd4d10ca1","1988","
                  <p style=""text-align: center;"">₪18
                                                <br>25%</p>
                  <p id=""wtp"" style=""text-align:center; margin-top: 0px; margin-bottom: 0px; font-size: 40px"";>מוכנים לשלם: <span id=""c_p_y""></span></p>","4","evaluation","40","9","14A,23A","25","18","4","","","","","","","","","","","","","",""
"","","","","","html-keyboard-response","101","266614","0.0-17.0-2.27","752e648a-0cfe-4ee3-a6ee-7aecd4d10ca1","null","<p style=""text-align: center;"">+</p>","null","fixation","","","","","","","","","","","","","","","","","","","",""
"","","","","","html-slider-response","102","267618","0.0-17.0-0.28","752e648a-0cfe-4ee3-a6ee-7aecd4d10ca1","1000","
                  <p style=""text-align: center;"">₪39
                                                <br>65%</p>
                  <p id=""wtp"" style=""text-align:center; margin-top: 0px; margin-bottom: 0px; font-size: 40px"";>&ensp;</p>","-","viewing","0","16","1A,15A,26C","","","","","","","","","","","","","","","","",""
"","","","","","html-slider-response","103","268951","0.0-17.0-1.28","752e648a-0cfe-4ee3-a6ee-7aecd4d10ca1","1332","
                  <p style=""text-align: center;"">₪39
                                                <br>65%</p>
                  <p id=""wtp"" style=""text-align:center; margin-top: 0px; margin-bottom: 0px; font-size: 40px"";>מוכנים לשלם: <span id=""c_p_y""></span></p>","60","evaluation","67","16","1A,15A,26C","65","39","60","","","","","","","","","","","","","",""
"","","","","","html-keyboard-response","104","269624","0.0-17.0-2.28","752e648a-0cfe-4ee3-a6ee-7aecd4d10ca1","null","<p style=""text-align: center;"">+</p>","null","fixation","","","","","","","","","","","","","","","","","","","",""
"","","","","","html-slider-response","105","270639","0.0-17.0-0.29","752e648a-0cfe-4ee3-a6ee-7aecd4d10ca1","1000","
                  <p style=""text-align: center;"">₪36
                                                <br>60%</p>
                  <p id=""wtp"" style=""text-align:center; margin-top: 0px; margin-bottom: 0px; font-size: 40px"";>&ensp;</p>","-","viewing","0","12","1C,7C,15C","","","","","","","","","","","","","","","","",""
"","","","","","html-slider-response","106","272951","0.0-17.0-1.29","752e648a-0cfe-4ee3-a6ee-7aecd4d10ca1","2311","
                  <p style=""text-align: center;"">₪36
                                                <br>60%</p>
                  <p id=""wtp"" style=""text-align:center; margin-top: 0px; margin-bottom: 0px; font-size: 40px"";>מוכנים לשלם: <span id=""c_p_y""></span></p>","53","evaluation","51","12","1C,7C,15C","60","36","53","","","","","","","","","","","","","",""
"","","","","","html-keyboard-response","107","273869","0.0-17.0-2.29","752e648a-0cfe-4ee3-a6ee-7aecd4d10ca1","null","<p style=""text-align: center;"">+</p>","null","fixation","","","","","","","","","","","","","","","","","","","",""
"","","","","","html-slider-response","108","274873","0.0-17.0-0.30","752e648a-0cfe-4ee3-a6ee-7aecd4d10ca1","1000","
                  <p style=""text-align: center;"">₪58
                                                <br>45%</p>
                  <p id=""wtp"" style=""text-align:center; margin-top: 0px; margin-bottom: 0px; font-size: 40px"";>&ensp;</p>","-","viewing","0","21","11C,18C,25A","","","","","","","","","","","","","","","","",""
"","","","","","html-slider-response","109","277623","0.0-17.0-1.30","752e648a-0cfe-4ee3-a6ee-7aecd4d10ca1","2749","
                  <p style=""text-align: center;"">₪58
                                                <br>45%</p>
                  <p id=""wtp"" style=""text-align:center; margin-top: 0px; margin-bottom: 0px; font-size: 40px"";>מוכנים לשלם: <span id=""c_p_y""></span></p>","41","evaluation","37","21","11C,18C,25A","45","58","41","","","","","","","","","","","","","",""
"","","","","","html-keyboard-response","110","278842","0.0-17.0-2.30","752e648a-0cfe-4ee3-a6ee-7aecd4d10ca1","null","<p style=""text-align: center;"">+</p>","null","fixation","","","","","","","","","","","","","","","","","","","",""
"","","","","","html-keyboard-response","111","279854","0.0-18.0","752e648a-0cfe-4ee3-a6ee-7aecd4d10ca1","null","<p style=""text-align: center;"">+</p>","null","fixation","","","","","","","","","","","","","","","","","","","",""
"","","","","","html-keyboard-response","112","281135","0.0-19.0","752e648a-0cfe-4ee3-a6ee-7aecd4d10ca1","null","<p>הפסקה.
          <br>לחצו כדי להמשיך.</p>","1","scan_wait","","","","","","","","","","","","","","","","","","","",""
"","","","","","html-keyboard-response","113","282139","0.0-20.0","752e648a-0cfe-4ee3-a6ee-7aecd4d10ca1","null","<p style=""text-align: center;"">+</p>","null","fixation","","","","","","","","","","","","","","","","","","","",""
"","","","","","html-slider-response","114","283146","0.0-21.0-0.0","752e648a-0cfe-4ee3-a6ee-7aecd4d10ca1","1000","
                  <p style=""text-align: center;"">₪39
                                                <br>60%</p>
                  <p id=""wtp"" style=""text-align:center; margin-top: 0px; margin-bottom: 0px; font-size: 40px"";>&ensp;</p>","-","viewing","0","15","9C,25B","","","","","","","","","","","","","","","","",""
"","","","","","html-slider-response","115","285655","0.0-21.0-1.0","752e648a-0cfe-4ee3-a6ee-7aecd4d10ca1","2507","
                  <p style=""text-align: center;"">₪39
                                                <br>60%</p>
                  <p id=""wtp"" style=""text-align:center; margin-top: 0px; margin-bottom: 0px; font-size: 40px"";>מוכנים לשלם: <span id=""c_p_y""></span></p>","27","evaluation","74","15","9C,25B","60","39","27","","","","","","","","","","","","","",""
"","","","","","html-keyboard-response","116","286553","0.0-21.0-2.0","752e648a-0cfe-4ee3-a6ee-7aecd4d10ca1","null","<p style=""text-align: center;"">+</p>","null","fixation","","","","","","","","","","","","","","","","","","","",""
"","","","","","html-slider-response","117","287569","0.0-21.0-0.1","752e648a-0cfe-4ee3-a6ee-7aecd4d10ca1","1000","
                  <p style=""text-align: center;"">₪79
                                                <br>65%</p>
                  <p id=""wtp"" style=""text-align:center; margin-top: 0px; margin-bottom: 0px; font-size: 40px"";>&ensp;</p>","-","viewing","0","31","8A","","","","","","","","","","","","","","","","",""
"","","","","","html-slider-response","118","290159","0.0-21.0-1.1","752e648a-0cfe-4ee3-a6ee-7aecd4d10ca1","2589","
                  <p style=""text-align: center;"">₪79
                                                <br>65%</p>
                  <p id=""wtp"" style=""text-align:center; margin-top: 0px; margin-bottom: 0px; font-size: 40px"";>מוכנים לשלם: <span id=""c_p_y""></span></p>","56","evaluation","48","31","8A","65","79","56","","","","","","","","","","","","","",""
"","","","","","html-keyboard-response","119","291083","0.0-21.0-2.1","752e648a-0cfe-4ee3-a6ee-7aecd4d10ca1","null","<p style=""text-align: center;"">+</p>","null","fixation","","","","","","","","","","","","","","","","","","","",""
"","","","","","html-slider-response","120","292088","0.0-21.0-0.2","752e648a-0cfe-4ee3-a6ee-7aecd4d10ca1","1000","
                  <p style=""text-align: center;"">₪43
                                                <br>60%</p>
                  <p id=""wtp"" style=""text-align:center; margin-top: 0px; margin-bottom: 0px; font-size: 40px"";>&ensp;</p>","-","viewing","0","17","2A,7A,9A,15B","","","","","","","","","","","","","","","","",""
"","","","","","html-slider-response","121","293831","0.0-21.0-1.2","752e648a-0cfe-4ee3-a6ee-7aecd4d10ca1","1742","
                  <p style=""text-align: center;"">₪43
                                                <br>60%</p>
                  <p id=""wtp"" style=""text-align:center; margin-top: 0px; margin-bottom: 0px; font-size: 40px"";>מוכנים לשלם: <span id=""c_p_y""></span></p>","30","evaluation","35","17","2A,7A,9A,15B","60","43","30","","","","","","","","","","","","","",""
"","","","","","html-keyboard-response","122","294882","0.0-21.0-2.2","752e648a-0cfe-4ee3-a6ee-7aecd4d10ca1","null","<p style=""text-align: center;"">+</p>","null","fixation","","","","","","","","","","","","","","","","","","","",""
"","","","","","html-slider-response","123","295898","0.0-21.0-0.3","752e648a-0cfe-4ee3-a6ee-7aecd4d10ca1","1000","
                  <p style=""text-align: center;"">₪71
                                                <br>55%</p>
                  <p id=""wtp"" style=""text-align:center; margin-top: 0px; margin-bottom: 0px; font-size: 40px"";>&ensp;</p>","-","viewing","0","27","5B,18A","","","","","","","","","","","","","","","","",""
"","","","","","html-slider-response","124","299031","0.0-21.0-1.3","752e648a-0cfe-4ee3-a6ee-7aecd4d10ca1","3131","
                  <p style=""text-align: center;"">₪71
                                                <br>55%</p>
                  <p id=""wtp"" style=""text-align:center; margin-top: 0px; margin-bottom: 0px; font-size: 40px"";>מוכנים לשלם: <span id=""c_p_y""></span></p>","38","evaluation","36","27","5B,18A","55","71","38","","","","","","","","","","","","","",""
"","","","","","html-keyboard-response","125","299689","0.0-21.0-2.3","752e648a-0cfe-4ee3-a6ee-7aecd4d10ca1","null","<p style=""text-align: center;"">+</p>","null","fixation","","","","","","","","","","","","","","","","","","","",""
"","","","","","html-slider-response","126","300690","0.0-21.0-0.4","752e648a-0cfe-4ee3-a6ee-7aecd4d10ca1","1000","
                  <p style=""text-align: center;"">₪11
                                                <br>20%</p>
                  <p id=""wtp"" style=""text-align:center; margin-top: 0px; margin-bottom: 0px; font-size: 40px"";>&ensp;</p>","-","viewing","0","4","12C,17C,23C,28C","","","","","","","","","","","","","","","","",""
"","","","","","html-slider-response","127","302223","0.0-21.0-1.4","752e648a-0cfe-4ee3-a6ee-7aecd4d10ca1","1531","
                  <p style=""text-align: center;"">₪11
                                                <br>20%</p>
                  <p id=""wtp"" style=""text-align:center; margin-top: 0px; margin-bottom: 0px; font-size: 40px"";>מוכנים לשלם: <span id=""c_p_y""></span></p>","0","evaluation","61","4","12C,17C,23C,28C","20","11","0","","","","","","","","","","","","","",""
"","","","","","html-keyboard-response","128","303015","0.0-21.0-2.4","752e648a-0cfe-4ee3-a6ee-7aecd4d10ca1","null","<p style=""text-align: center;"">+</p>","null","fixation","","","","","","","","","","","","","","","","","","","",""
"","","","","","html-slider-response","129","304018","0.0-21.0-0.5","752e648a-0cfe-4ee3-a6ee-7aecd4d10ca1","1000","
                  <p style=""text-align: center;"">₪11
                                                <br>25%</p>
                  <p id=""wtp"" style=""text-align:center; margin-top: 0px; margin-bottom: 0px; font-size: 40px"";>&ensp;</p>","-","viewing","0","5","12A,27B,28B,30B","","","","","","","","","","","","","","","","",""
"","","","","","html-slider-response","130","304511","0.0-21.0-1.5","752e648a-0cfe-4ee3-a6ee-7aecd4d10ca1","491","
                  <p style=""text-align: center;"">₪11
                                                <br>25%</p>
                  <p id=""wtp"" style=""text-align:center; margin-top: 0px; margin-bottom: 0px; font-size: 40px"";>מוכנים לשלם: <span id=""c_p_y""></span></p>","0","evaluation","58","5","12A,27B,28B,30B","25","11","0","","","","","","","","","","","","","",""
"","","","","","html-keyboard-response","131","305118","0.0-21.0-2.5","752e648a-0cfe-4ee3-a6ee-7aecd4d10ca1","null","<p style=""text-align: center;"">+</p>","null","fixation","","","","","","","","","","","","","","","","","","","",""
"","","","","","html-slider-response","132","306122","0.0-21.0-0.6","752e648a-0cfe-4ee3-a6ee-7aecd4d10ca1","1000","
                  <p style=""text-align: center;"">₪58
                                                <br>30%</p>
                  <p id=""wtp"" style=""text-align:center; margin-top: 0px; margin-bottom: 0px; font-size: 40px"";>&ensp;</p>","-","viewing","0","19","13C,30A","","","","","","","","","","","","","","","","",""
"","","","","","html-slider-response","133","309207","0.0-21.0-1.6","752e648a-0cfe-4ee3-a6ee-7aecd4d10ca1","3084","
                  <p style=""text-align: center;"">₪58
                                                <br>30%</p>
                  <p id=""wtp"" style=""text-align:center; margin-top: 0px; margin-bottom: 0px; font-size: 40px"";>מוכנים לשלם: <span id=""c_p_y""></span></p>","7","evaluation","20","19","13C,30A","30","58","7","","","","","","","","","","","","","",""
"","","","","","html-keyboard-response","134","310699","0.0-21.0-2.6","752e648a-0cfe-4ee3-a6ee-7aecd4d10ca1","null","<p style=""text-align: center;"">+</p>","null","fixation","","","","","","","","","","","","","","","","","","","",""
"","","","","","html-slider-response","135","311712","0.0-21.0-0.7","752e648a-0cfe-4ee3-a6ee-7aecd4d10ca1","1000","
                  <p style=""text-align: center;"">₪4
                                                <br>50%</p>
                  <p id=""wtp"" style=""text-align:center; margin-top: 0px; margin-bottom: 0px; font-size: 40px"";>&ensp;</p>","-","viewing","0","2","4C,17B","","","","","","","","","","","","","","","","",""
"","","","","","html-slider-response","136","312391","0.0-21.0-1.7","752e648a-0cfe-4ee3-a6ee-7aecd4d10ca1","678","
                  <p style=""text-align: center;"">₪4
                                                <br>50%</p>
                  <p id=""wtp"" style=""text-align:center; margin-top: 0px; margin-bottom: 0px; font-size: 40px"";>מוכנים לשלם: <span id=""c_p_y""></span></p>","0","evaluation","62","2","4C,17B","50","4","0","","","","","","","","","","","","","",""
"","","","","","html-keyboard-response","137","313430","0.0-21.0-2.7","752e648a-0cfe-4ee3-a6ee-7aecd4d10ca1","null","<p style=""text-align: center;"">+</p>","null","fixation","","","","","","","","","","","","","","","","","","","",""
"","","","","","html-slider-response","138","314436","0.0-21.0-0.8","752e648a-0cfe-4ee3-a6ee-7aecd4d10ca1","1000","
                  <p style=""text-align: center;"">₪64
                                                <br>50%</p>
                  <p id=""wtp"" style=""text-align:center; margin-top: 0px; margin-bottom: 0px; font-size: 40px"";>&ensp;</p>","-","viewing","0","25","1B,3B,4A","","","","","","","","","","","","","","","","",""
"","","","","","html-slider-response","139","316087","0.0-21.0-1.8","752e648a-0cfe-4ee3-a6ee-7aecd4d10ca1","1650","
                  <p style=""text-align: center;"">₪64
                                                <br>50%</p>
                  <p id=""wtp"" style=""text-align:center; margin-top: 0px; margin-bottom: 0px; font-size: 40px"";>מוכנים לשלם: <span id=""c_p_y""></span></p>","21","evaluation","57","25","1B,3B,4A","50","64","21","","","","","","","","","","","","","",""
"","","","","","html-keyboard-response","140","317548","0.0-21.0-2.8","752e648a-0cfe-4ee3-a6ee-7aecd4d10ca1","null","<p style=""text-align: center;"">+</p>","null","fixation","","","","","","","","","","","","","","","","","","","",""
"","","","","","html-slider-response","141","318555","0.0-21.0-0.9","752e648a-0cfe-4ee3-a6ee-7aecd4d10ca1","1000","
                  <p style=""text-align: center;"">₪4
                                                <br>75%</p>
                  <p id=""wtp"" style=""text-align:center; margin-top: 0px; margin-bottom: 0px; font-size: 40px"";>&ensp;</p>","-","viewing","0","3","12B,20B,23B,27C,29C","","","","","","","","","","","","","","","","",""
"","","","","","html-slider-response","142","319127","0.0-21.0-1.9","752e648a-0cfe-4ee3-a6ee-7aecd4d10ca1","570","
                  <p style=""text-align: center;"">₪4
                                                <br>75%</p>
                  <p id=""wtp"" style=""text-align:center; margin-top: 0px; margin-bottom: 0px; font-size: 40px"";>מוכנים לשלם: <span id=""c_p_y""></span></p>","0","evaluation","26","3","12B,20B,23B,27C,29C","75","4","0","","","","","","","","","","","","","",""
"","","","","","html-keyboard-response","143","319910","0.0-21.0-2.9","752e648a-0cfe-4ee3-a6ee-7aecd4d10ca1","null","<p style=""text-align: center;"">+</p>","null","fixation","","","","","","","","","","","","","","","","","","","",""
"","","","","","html-slider-response","144","320918","0.0-21.0-0.10","752e648a-0cfe-4ee3-a6ee-7aecd4d10ca1","1000","
                  <p style=""text-align: center;"">₪58
                                                <br>45%</p>
                  <p id=""wtp"" style=""text-align:center; margin-top: 0px; margin-bottom: 0px; font-size: 40px"";>&ensp;</p>","-","viewing","0","21","11C,18C,25A","","","","","","","","","","","","","","","","",""
"","","","","","html-slider-response","145","323166","0.0-21.0-1.10","752e648a-0cfe-4ee3-a6ee-7aecd4d10ca1","2247","
                  <p style=""text-align: center;"">₪58
                                                <br>45%</p>
                  <p id=""wtp"" style=""text-align:center; margin-top: 0px; margin-bottom: 0px; font-size: 40px"";>מוכנים לשלם: <span id=""c_p_y""></span></p>","7","evaluation","0","21","11C,18C,25A","45","58","7","","","","","","","","","","","","","",""
"","","","","","html-keyboard-response","146","324009","0.0-21.0-2.10","752e648a-0cfe-4ee3-a6ee-7aecd4d10ca1","null","<p style=""text-align: center;"">+</p>","null","fixation","","","","","","","","","","","","","","","","","","","",""
"","","","","","html-slider-response","147","325024","0.0-21.0-0.11","752e648a-0cfe-4ee3-a6ee-7aecd4d10ca1","1000","
                  <p style=""text-align: center;"">₪18
                                                <br>50%</p>
                  <p id=""wtp"" style=""text-align:center; margin-top: 0px; margin-bottom: 0px; font-size: 40px"";>&ensp;</p>","-","viewing","0","10","2C,16C,22B,28A","","","","","","","","","","","","","","","","",""
"","","","","","html-slider-response","148","326663","0.0-21.0-1.11","752e648a-0cfe-4ee3-a6ee-7aecd4d10ca1","1638","
                  <p style=""text-align: center;"">₪18
                                                <br>50%</p>
                  <p id=""wtp"" style=""text-align:center; margin-top: 0px; margin-bottom: 0px; font-size: 40px"";>מוכנים לשלם: <span id=""c_p_y""></span></p>","1","evaluation","53","10","2C,16C,22B,28A","50","18","1","","","","","","","","","","","","","",""
"","","","","","html-keyboard-response","149","327539","0.0-21.0-2.11","752e648a-0cfe-4ee3-a6ee-7aecd4d10ca1","null","<p style=""text-align: center;"">+</p>","null","fixation","","","","","","","","","","","","","","","","","","","",""
"","","","","","html-slider-response","150","328544","0.0-21.0-0.12","752e648a-0cfe-4ee3-a6ee-7aecd4d10ca1","1000","
                  <p style=""text-align: center;"">₪39
                                                <br>65%</p>
                  <p id=""wtp"" style=""text-align:center; margin-top: 0px; margin-bottom: 0px; font-size: 40px"";>&ensp;</p>","-","viewing","0","16","1A,15A,26C","","","","","","","","","","","","","","","","",""
"","","","","","html-slider-response","151","330647","0.0-21.0-1.12","752e648a-0cfe-4ee3-a6ee-7aecd4d10ca1","2101","
                  <p style=""text-align: center;"">₪39
                                                <br>65%</p>
                  <p id=""wtp"" style=""text-align:center; margin-top: 0px; margin-bottom: 0px; font-size: 40px"";>מוכנים לשלם: <span id=""c_p_y""></span></p>","14","evaluation","54","16","1A,15A,26C","65","39","14","","","","","","","","","","","","","",""
"","","","","","html-keyboard-response","152","331666","0.0-21.0-2.12","752e648a-0cfe-4ee3-a6ee-7aecd4d10ca1","null","<p style=""text-align: center;"">+</p>","null","fixation","","","","","","","","","","","","","","","","","","","",""
"","","","","","html-slider-response","153","332682","0.0-21.0-0.13","752e648a-0cfe-4ee3-a6ee-7aecd4d10ca1","1000","
                  <p style=""text-align: center;"">₪36
                                                <br>30%</p>
                  <p id=""wtp"" style=""text-align:center; margin-top: 0px; margin-bottom: 0px; font-size: 40px"";>&ensp;</p>","-","viewing","0","11","3C,20A,22A","","","","","","","","","","","","","","","","",""
"","","","","","html-slider-response","154","333559","0.0-21.0-1.13","752e648a-0cfe-4ee3-a6ee-7aecd4d10ca1","876","
                  <p style=""text-align: center;"">₪36
                                                <br>30%</p>
                  <p id=""wtp"" style=""text-align:center; margin-top: 0px; margin-bottom: 0px; font-size: 40px"";>מוכנים לשלם: <span id=""c_p_y""></span></p>","1","evaluation","34","11","3C,20A,22A","30","36","1","","","","","","","","","","","","","",""
"","","","","","html-keyboard-response","155","334164","0.0-21.0-2.13","752e648a-0cfe-4ee3-a6ee-7aecd4d10ca1","null","<p style=""text-align: center;"">+</p>","null","fixation","","","","","","","","","","","","","","","","","","","",""
"","","","","","html-slider-response","156","335179","0.0-21.0-0.14","752e648a-0cfe-4ee3-a6ee-7aecd4d10ca1","1000","
                  <p style=""text-align: center;"">₪61
                                                <br>45%</p>
                  <p id=""wtp"" style=""text-align:center; margin-top: 0px; margin-bottom: 0px; font-size: 40px"";>&ensp;</p>","-","viewing","0","22","10A,11A","","","","","","","","","","","","","","","","",""
"","","","","","html-slider-response","157","336807","0.0-21.0-1.14","752e648a-0cfe-4ee3-a6ee-7aecd4d10ca1","1626","
                  <p style=""text-align: center;"">₪61
                                                <br>45%</p>
                  <p id=""wtp"" style=""text-align:center; margin-top: 0px; margin-bottom: 0px; font-size: 40px"";>מוכנים לשלם: <span id=""c_p_y""></span></p>","2","evaluation","39","22","10A,11A","45","61","2","","","","","","","","","","","","","",""
"","","","","","html-keyboard-response","158","338056","0.0-21.0-2.14","752e648a-0cfe-4ee3-a6ee-7aecd4d10ca1","null","<p style=""text-align: center;"">+</p>","null","fixation","","","","","","","","","","","","","","","","","","","",""
"","","","","","html-slider-response","159","339060","0.0-21.0-0.15","752e648a-0cfe-4ee3-a6ee-7aecd4d10ca1","1000","
                  <p style=""text-align: center;"">₪36
                                                <br>75%</p>
                  <p id=""wtp"" style=""text-align:center; margin-top: 0px; margin-bottom: 0px; font-size: 40px"";>&ensp;</p>","-","viewing","0","14","4B,5A,13B,16B","","","","","","","","","","","","","","","","",""
"","","","","","html-slider-response","160","341248","0.0-21.0-1.15","752e648a-0cfe-4ee3-a6ee-7aecd4d10ca1","2186","
                  <p style=""text-align: center;"">₪36
                                                <br>75%</p>
                  <p id=""wtp"" style=""text-align:center; margin-top: 0px; margin-bottom: 0px; font-size: 40px"";>מוכנים לשלם: <span id=""c_p_y""></span></p>","11","evaluation","9","14","4B,5A,13B,16B","75","36","11","","","","","","","","","","","","","",""
"","","","","","html-keyboard-response","161","342367","0.0-21.0-2.15","752e648a-0cfe-4ee3-a6ee-7aecd4d10ca1","null","<p style=""text-align: center;"">+</p>","null","fixation","","","","","","","","","","","","","","","","","","","",""
"","","","","","html-slider-response","162","343382","0.0-21.0-0.16","752e648a-0cfe-4ee3-a6ee-7aecd4d10ca1","1000","
                  <p style=""text-align: center;"">₪11
                                                <br>45%</p>
                  <p id=""wtp"" style=""text-align:center; margin-top: 0px; margin-bottom: 0px; font-size: 40px"";>&ensp;</p>","-","viewing","0","6","14B,21C,25C","","","","","","","","","","","","","","","","",""
"","","","","","html-slider-response","163","345207","0.0-21.0-1.16","752e648a-0cfe-4ee3-a6ee-7aecd4d10ca1","1824","
                  <p style=""text-align: center;"">₪11
                                                <br>45%</p>
                  <p id=""wtp"" style=""text-align:center; margin-top: 0px; margin-bottom: 0px; font-size: 40px"";>מוכנים לשלם: <span id=""c_p_y""></span></p>","0","evaluation","2","6","14B,21C,25C","45","11","1","","","","","","","","","","","","","",""
"","","","","","html-keyboard-response","164","346547","0.0-21.0-2.16","752e648a-0cfe-4ee3-a6ee-7aecd4d10ca1","null","<p style=""text-align: center;"">+</p>","null","fixation","","","","","","","","","","","","","","","","","","","",""
"","","","","","html-slider-response","165","347560","0.0-21.0-0.17","752e648a-0cfe-4ee3-a6ee-7aecd4d10ca1","1000","
                  <p style=""text-align: center;"">₪61
                                                <br>55%</p>
                  <p id=""wtp"" style=""text-align:center; margin-top: 0px; margin-bottom: 0px; font-size: 40px"";>&ensp;</p>","-","viewing","0","23","7B,26B","","","","","","","","","","","","","","","","",""
"","","","","","html-slider-response","166","349454","0.0-21.0-1.17","752e648a-0cfe-4ee3-a6ee-7aecd4d10ca1","1893","
                  <p style=""text-align: center;"">₪61
                                                <br>55%</p>
                  <p id=""wtp"" style=""text-align:center; margin-top: 0px; margin-bottom: 0px; font-size: 40px"";>מוכנים לשלם: <span id=""c_p_y""></span></p>","24","evaluation","33","23","7B,26B","55","61","24","","","","","","","","","","","","","",""
"","","","","","html-keyboard-response","167","350168","0.0-21.0-2.17","752e648a-0cfe-4ee3-a6ee-7aecd4d10ca1","null","<p style=""text-align: center;"">+</p>","null","fixation","","","","","","","","","","","","","","","","","","","",""
"","","","","","html-slider-response","168","351170","0.0-21.0-0.18","752e648a-0cfe-4ee3-a6ee-7aecd4d10ca1","1000","
                  <p style=""text-align: center;"">₪79
                                                <br>40%</p>
                  <p id=""wtp"" style=""text-align:center; margin-top: 0px; margin-bottom: 0px; font-size: 40px"";>&ensp;</p>","-","viewing","0","30","9B","","","","","","","","","","","","","","","","",""
"","","","","","html-slider-response","169","353198","0.0-21.0-1.18","752e648a-0cfe-4ee3-a6ee-7aecd4d10ca1","2027","
                  <p style=""text-align: center;"">₪79
                                                <br>40%</p>
                  <p id=""wtp"" style=""text-align:center; margin-top: 0px; margin-bottom: 0px; font-size: 40px"";>מוכנים לשלם: <span id=""c_p_y""></span></p>","11","evaluation","72","30","9B","40","79","11","","","","","","","","","","","","","",""
"","","","","","html-keyboard-response","170","354633","0.0-21.0-2.18","752e648a-0cfe-4ee3-a6ee-7aecd4d10ca1","null","<p style=""text-align: center;"">+</p>","null","fixation","","","","","","","","","","","","","","","","","","","",""
"","","","","","html-slider-response","171","355644","0.0-21.0-0.19","752e648a-0cfe-4ee3-a6ee-7aecd4d10ca1","1000","
                  <p style=""text-align: center;"">₪11
                                                <br>75%</p>
                  <p id=""wtp"" style=""text-align:center; margin-top: 0px; margin-bottom: 0px; font-size: 40px"";>&ensp;</p>","-","viewing","0","7","6B,18B,22C,24C,29A","","","","","","","","","","","","","","","","",""
"","","","","","html-slider-response","172","356591","0.0-21.0-1.19","752e648a-0cfe-4ee3-a6ee-7aecd4d10ca1","945","
                  <p style=""text-align: center;"">₪11
                                                <br>75%</p>
                  <p id=""wtp"" style=""text-align:center; margin-top: 0px; margin-bottom: 0px; font-size: 40px"";>מוכנים לשלם: <span id=""c_p_y""></span></p>","0","evaluation","75","7","6B,18B,22C,24C,29A","75","11","0","","","","","","","","","","","","","",""
"","","","","","html-keyboard-response","173","357260","0.0-21.0-2.19","752e648a-0cfe-4ee3-a6ee-7aecd4d10ca1","null","<p style=""text-align: center;"">+</p>","null","fixation","","","","","","","","","","","","","","","","","","","",""
"","","","","","html-slider-response","174","358268","0.0-21.0-0.20","752e648a-0cfe-4ee3-a6ee-7aecd4d10ca1","1000","
                  <p style=""text-align: center;"">₪43
                                                <br>75%</p>
                  <p id=""wtp"" style=""text-align:center; margin-top: 0px; margin-bottom: 0px; font-size: 40px"";>&ensp;</p>","-","viewing","0","18","11B,19B,24A,26A","","","","","","","","","","","","","","","","",""
"","","","","","html-slider-response","175","360255","0.0-21.0-1.20","752e648a-0cfe-4ee3-a6ee-7aecd4d10ca1","1985","
                  <p style=""text-align: center;"">₪43
                                                <br>75%</p>
                  <p id=""wtp"" style=""text-align:center; margin-top: 0px; margin-bottom: 0px; font-size: 40px"";>מוכנים לשלם: <span id=""c_p_y""></span></p>","15","evaluation","67","18","11B,19B,24A,26A","75","43","15","","","","","","","","","","","","","",""
"","","","","","html-keyboard-response","176","360813","0.0-21.0-2.20","752e648a-0cfe-4ee3-a6ee-7aecd4d10ca1","null","<p style=""text-align: center;"">+</p>","null","fixation","","","","","","","","","","","","","","","","","","","",""
"","","","","","html-slider-response","177","361828","0.0-21.0-0.21","752e648a-0cfe-4ee3-a6ee-7aecd4d10ca1","1000","
                  <p style=""text-align: center;"">₪36
                                                <br>70%</p>
                  <p id=""wtp"" style=""text-align:center; margin-top: 0px; margin-bottom: 0px; font-size: 40px"";>&ensp;</p>","-","viewing","0","13","3A,5C,10B","","","","","","","","","","","","","","","","",""
"","","","","","html-slider-response","178","364207","0.0-21.0-1.21","752e648a-0cfe-4ee3-a6ee-7aecd4d10ca1","2377","
                  <p style=""text-align: center;"">₪36
                                                <br>70%</p>
                  <p id=""wtp"" style=""text-align:center; margin-top: 0px; margin-bottom: 0px; font-size: 40px"";>מוכנים לשלם: <span id=""c_p_y""></span></p>","20","evaluation","32","13","3A,5C,10B","70","36","20","","","","","","","","","","","","","",""
"","","","","","html-keyboard-response","179","365266","0.0-21.0-2.21","752e648a-0cfe-4ee3-a6ee-7aecd4d10ca1","null","<p style=""text-align: center;"">+</p>","null","fixation","","","","","","","","","","","","","","","","","","","",""
"","","","","","html-slider-response","180","366282","0.0-21.0-0.22","752e648a-0cfe-4ee3-a6ee-7aecd4d10ca1","1000","
                  <p style=""text-align: center;"">₪71
                                                <br>45%</p>
                  <p id=""wtp"" style=""text-align:center; margin-top: 0px; margin-bottom: 0px; font-size: 40px"";>&ensp;</p>","-","viewing","0","26","2B,16A","","","","","","","","","","","","","","","","",""
"","","","","","html-slider-response","181","367911","0.0-21.0-1.22","752e648a-0cfe-4ee3-a6ee-7aecd4d10ca1","1628","
                  <p style=""text-align: center;"">₪71
                                                <br>45%</p>
                  <p id=""wtp"" style=""text-align:center; margin-top: 0px; margin-bottom: 0px; font-size: 40px"";>מוכנים לשלם: <span id=""c_p_y""></span></p>","7","evaluation","14","26","2B,16A","45","71","7","","","","","","","","","","","","","",""
"","","","","","html-keyboard-response","182","368662","0.0-21.0-2.22","752e648a-0cfe-4ee3-a6ee-7aecd4d10ca1","null","<p style=""text-align: center;"">+</p>","null","fixation","","","","","","","","","","","","","","","","","","","",""
"","","","","","html-slider-response","183","369672","0.0-21.0-0.23","752e648a-0cfe-4ee3-a6ee-7aecd4d10ca1","1000","
                  <p style=""text-align: center;"">₪18
                                                <br>25%</p>
                  <p id=""wtp"" style=""text-align:center; margin-top: 0px; margin-bottom: 0px; font-size: 40px"";>&ensp;</p>","-","viewing","0","9","14A,23A","","","","","","","","","","","","","","","","",""
"","","","","","html-slider-response","184","371430","0.0-21.0-1.23","752e648a-0cfe-4ee3-a6ee-7aecd4d10ca1","1758","
                  <p style=""text-align: center;"">₪18
                                                <br>25%</p>
                  <p id=""wtp"" style=""text-align:center; margin-top: 0px; margin-bottom: 0px; font-size: 40px"";>מוכנים לשלם: <span id=""c_p_y""></span></p>","2","evaluation","45","9","14A,23A","25","18","3","","","","","","","","","","","","","",""
"","","","","","html-keyboard-response","185","372846","0.0-21.0-2.23","752e648a-0cfe-4ee3-a6ee-7aecd4d10ca1","null","<p style=""text-align: center;"">+</p>","null","fixation","","","","","","","","","","","","","","","","","","","",""
"","","","","","html-slider-response","186","373856","0.0-21.0-0.24","752e648a-0cfe-4ee3-a6ee-7aecd4d10ca1","1000","
                  <p style=""text-align: center;"">₪64
                                                <br>25%</p>
                  <p id=""wtp"" style=""text-align:center; margin-top: 0px; margin-bottom: 0px; font-size: 40px"";>&ensp;</p>","-","viewing","0","24","6A,21A","","","","","","","","","","","","","","","","",""
"","","","","","html-slider-response","187","375487","0.0-21.0-1.24","752e648a-0cfe-4ee3-a6ee-7aecd4d10ca1","1629","
                  <p style=""text-align: center;"">₪64
                                                <br>25%</p>
                  <p id=""wtp"" style=""text-align:center; margin-top: 0px; margin-bottom: 0px; font-size: 40px"";>מוכנים לשלם: <span id=""c_p_y""></span></p>","8","evaluation","10","24","6A,21A","25","64","9","","","","","","","","","","","","","",""
"","","","","","html-keyboard-response","188","376924","0.0-21.0-2.24","752e648a-0cfe-4ee3-a6ee-7aecd4d10ca1","null","<p style=""text-align: center;"">+</p>","null","fixation","","","","","","","","","","","","","","","","","","","",""
"","","","","","html-slider-response","189","377928","0.0-21.0-0.25","752e648a-0cfe-4ee3-a6ee-7aecd4d10ca1","1000","
                  <p style=""text-align: center;"">₪36
                                                <br>60%</p>
                  <p id=""wtp"" style=""text-align:center; margin-top: 0px; margin-bottom: 0px; font-size: 40px"";>&ensp;</p>","-","viewing","0","12","1C,7C,15C","","","","","","","","","","","","","","","","",""
"","","","","","html-slider-response","190","379903","0.0-21.0-1.25","752e648a-0cfe-4ee3-a6ee-7aecd4d10ca1","1974","
                  <p style=""text-align: center;"">₪36
                                                <br>60%</p>
                  <p id=""wtp"" style=""text-align:center; margin-top: 0px; margin-bottom: 0px; font-size: 40px"";>מוכנים לשלם: <span id=""c_p_y""></span></p>","16","evaluation","71","12","1C,7C,15C","60","36","16","","","","","","","","","","","","","",""
"","","","","","html-keyboard-response","191","380443","0.0-21.0-2.25","752e648a-0cfe-4ee3-a6ee-7aecd4d10ca1","null","<p style=""text-align: center;"">+</p>","null","fixation","","","","","","","","","","","","","","","","","","","",""
"","","","","","html-slider-response","192","381450","0.0-21.0-0.26","752e648a-0cfe-4ee3-a6ee-7aecd4d10ca1","1000","
                  <p style=""text-align: center;"">₪71
                                                <br>75%</p>
                  <p id=""wtp"" style=""text-align:center; margin-top: 0px; margin-bottom: 0px; font-size: 40px"";>&ensp;</p>","-","viewing","0","28","8B","","","","","","","","","","","","","","","","",""
"","","","","","html-slider-response","193","384007","0.0-21.0-1.26","752e648a-0cfe-4ee3-a6ee-7aecd4d10ca1","2555","
                  <p style=""text-align: center;"">₪71
                                                <br>75%</p>
                  <p id=""wtp"" style=""text-align:center; margin-top: 0px; margin-bottom: 0px; font-size: 40px"";>מוכנים לשלם: <span id=""c_p_y""></span></p>","49","evaluation","56","28","8B","75","71","49","","","","","","","","","","","","","",""
"","","","","","html-keyboard-response","194","385471","0.0-21.0-2.26","752e648a-0cfe-4ee3-a6ee-7aecd4d10ca1","null","<p style=""text-align: center;"">+</p>","null","fixation","","","","","","","","","","","","","","","","","","","",""
"","","","","","html-slider-response","195","386475","0.0-21.0-0.27","752e648a-0cfe-4ee3-a6ee-7aecd4d10ca1","1000","
                  <p style=""text-align: center;"">₪58
                                                <br>40%</p>
                  <p id=""wtp"" style=""text-align:center; margin-top: 0px; margin-bottom: 0px; font-size: 40px"";>&ensp;</p>","-","viewing","0","20","10C,13A,19C,21B","","","","","","","","","","","","","","","","",""
"","","","","","html-slider-response","196","388742","0.0-21.0-1.27","752e648a-0cfe-4ee3-a6ee-7aecd4d10ca1","2267","
                  <p style=""text-align: center;"">₪58
                                                <br>40%</p>
                  <p id=""wtp"" style=""text-align:center; margin-top: 0px; margin-bottom: 0px; font-size: 40px"";>מוכנים לשלם: <span id=""c_p_y""></span></p>","26","evaluation","40","20","10C,13A,19C,21B","40","58","26","","","","","","","","","","","","","",""
"","","","","","html-keyboard-response","197","389398","0.0-21.0-2.27","752e648a-0cfe-4ee3-a6ee-7aecd4d10ca1","null","<p style=""text-align: center;"">+</p>","null","fixation","","","","","","","","","","","","","","","","","","","",""
"","","","","","html-slider-response","198","390409","0.0-21.0-0.28","752e648a-0cfe-4ee3-a6ee-7aecd4d10ca1","1000","
                  <p style=""text-align: center;"">₪76
                                                <br>65%</p>
                  <p id=""wtp"" style=""text-align:center; margin-top: 0px; margin-bottom: 0px; font-size: 40px"";>&ensp;</p>","-","viewing","0","29","8C,19A,24B","","","","","","","","","","","","","","","","",""
"","","","","","html-slider-response","199","393879","0.0-21.0-1.28","752e648a-0cfe-4ee3-a6ee-7aecd4d10ca1","3469","
                  <p style=""text-align: center;"">₪76
                                                <br>65%</p>
                  <p id=""wtp"" style=""text-align:center; margin-top: 0px; margin-bottom: 0px; font-size: 40px"";>מוכנים לשלם: <span id=""c_p_y""></span></p>","38","evaluation","33","29","8C,19A,24B","65","76","38","","","","","","","","","","","","","",""
"","","","","","html-keyboard-response","200","394391","0.0-21.0-2.28","752e648a-0cfe-4ee3-a6ee-7aecd4d10ca1","null","<p style=""text-align: center;"">+</p>","null","fixation","","","","","","","","","","","","","","","","","","","",""
"","","","","","html-slider-response","201","395399","0.0-21.0-0.29","752e648a-0cfe-4ee3-a6ee-7aecd4d10ca1","1000","
                  <p style=""text-align: center;"">₪4
                                                <br>25%</p>
                  <p id=""wtp"" style=""text-align:center; margin-top: 0px; margin-bottom: 0px; font-size: 40px"";>&ensp;</p>","-","viewing","0","1","6C,29B,30C","","","","","","","","","","","","","","","","",""
"","","","","","html-slider-response","202","395966","0.0-21.0-1.29","752e648a-0cfe-4ee3-a6ee-7aecd4d10ca1","566","
                  <p style=""text-align: center;"">₪4
                                                <br>25%</p>
                  <p id=""wtp"" style=""text-align:center; margin-top: 0px; margin-bottom: 0px; font-size: 40px"";>מוכנים לשלם: <span id=""c_p_y""></span></p>","1","evaluation","71","1","6C,29B,30C","25","4","1","","","","","","","","","","","","","",""
"","","","","","html-keyboard-response","203","396517","0.0-21.0-2.29","752e648a-0cfe-4ee3-a6ee-7aecd4d10ca1","null","<p style=""text-align: center;"">+</p>","null","fixation","","","","","","","","","","","","","","","","","","","",""
"","","","","","html-slider-response","204","397518","0.0-21.0-0.30","752e648a-0cfe-4ee3-a6ee-7aecd4d10ca1","1000","
                  <p style=""text-align: center;"">₪16
                                                <br>20%</p>
                  <p id=""wtp"" style=""text-align:center; margin-top: 0px; margin-bottom: 0px; font-size: 40px"";>&ensp;</p>","-","viewing","0","8","14C,17A,20C,27A","","","","","","","","","","","","","","","","",""
"","","","","","html-slider-response","205","397855","0.0-21.0-1.30","752e648a-0cfe-4ee3-a6ee-7aecd4d10ca1","335","
                  <p style=""text-align: center;"">₪16
                                                <br>20%</p>
                  <p id=""wtp"" style=""text-align:center; margin-top: 0px; margin-bottom: 0px; font-size: 40px"";>מוכנים לשלם: <span id=""c_p_y""></span></p>","0","evaluation","47","8","14C,17A,20C,27A","20","16","1","","","","","","","","","","","","","",""
"","","","","","html-keyboard-response","206","399004","0.0-21.0-2.30","752e648a-0cfe-4ee3-a6ee-7aecd4d10ca1","null","<p style=""text-align: center;"">+</p>","null","fixation","","","","","","","","","","","","","","","","","","","",""
"","","","","","html-keyboard-response","207","400007","0.0-22.0","752e648a-0cfe-4ee3-a6ee-7aecd4d10ca1","null","<p style=""text-align: center;"">+</p>","null","fixation","","","","","","","","","","","","","","","","","","","",""
"","","","","","html-keyboard-response","208","400766","0.0-23.0","752e648a-0cfe-4ee3-a6ee-7aecd4d10ca1","null","<p>הפסקה.
          <br>לחצו כדי להמשיך.</p>","1","scan_wait","","","","","","","","","","","","","","","","","","","",""
"","","","","","html-keyboard-response","209","401783","0.0-24.0","752e648a-0cfe-4ee3-a6ee-7aecd4d10ca1","null","<p style=""text-align: center;"">+</p>","null","fixation","","","","","","","","","","","","","","","","","","","",""
"","","","","","html-slider-response","210","402790","0.0-25.0-0.0","752e648a-0cfe-4ee3-a6ee-7aecd4d10ca1","1000","
                  <p style=""text-align: center;"">₪36
                                                <br>30%</p>
                  <p id=""wtp"" style=""text-align:center; margin-top: 0px; margin-bottom: 0px; font-size: 40px"";>&ensp;</p>","-","viewing","0","11","3C,20A,22A","","","","","","","","","","","","","","","","",""
"","","","","","html-slider-response","211","404999","0.0-25.0-1.0","752e648a-0cfe-4ee3-a6ee-7aecd4d10ca1","2208","
                  <p style=""text-align: center;"">₪36
                                                <br>30%</p>
                  <p id=""wtp"" style=""text-align:center; margin-top: 0px; margin-bottom: 0px; font-size: 40px"";>מוכנים לשלם: <span id=""c_p_y""></span></p>","7","evaluation","73","11","3C,20A,22A","30","36","7","","","","","","","","","","","","","",""
"","","","","","html-keyboard-response","212","406409","0.0-25.0-2.0","752e648a-0cfe-4ee3-a6ee-7aecd4d10ca1","null","<p style=""text-align: center;"">+</p>","null","fixation","","","","","","","","","","","","","","","","","","","",""
"","","","","","html-slider-response","213","407422","0.0-25.0-0.1","752e648a-0cfe-4ee3-a6ee-7aecd4d10ca1","1000","
                  <p style=""text-align: center;"">₪71
                                                <br>75%</p>
                  <p id=""wtp"" style=""text-align:center; margin-top: 0px; margin-bottom: 0px; font-size: 40px"";>&ensp;</p>","-","viewing","0","28","8B","","","","","","","","","","","","","","","","",""
"","","","","","html-slider-response","214","410327","0.0-25.0-1.1","752e648a-0cfe-4ee3-a6ee-7aecd4d10ca1","2904","
                  <p style=""text-align: center;"">₪71
                                                <br>75%</p>
                  <p id=""wtp"" style=""text-align:center; margin-top: 0px; margin-bottom: 0px; font-size: 40px"";>מוכנים לשלם: <span id=""c_p_y""></span></p>","30","evaluation","60","28","8B","75","71","30","","","","","","","","","","","","","",""
"","","","","","html-keyboard-response","215","411725","0.0-25.0-2.1","752e648a-0cfe-4ee3-a6ee-7aecd4d10ca1","null","<p style=""text-align: center;"">+</p>","null","fixation","","","","","","","","","","","","","","","","","","","",""
"","","","","","html-slider-response","216","412742","0.0-25.0-0.2","752e648a-0cfe-4ee3-a6ee-7aecd4d10ca1","1000","
                  <p style=""text-align: center;"">₪4
                                                <br>25%</p>
                  <p id=""wtp"" style=""text-align:center; margin-top: 0px; margin-bottom: 0px; font-size: 40px"";>&ensp;</p>","-","viewing","0","1","6C,29B,30C","","","","","","","","","","","","","","","","",""
"","","","","","html-slider-response","217","413847","0.0-25.0-1.2","752e648a-0cfe-4ee3-a6ee-7aecd4d10ca1","1104","
                  <p style=""text-align: center;"">₪4
                                                <br>25%</p>
                  <p id=""wtp"" style=""text-align:center; margin-top: 0px; margin-bottom: 0px; font-size: 40px"";>מוכנים לשלם: <span id=""c_p_y""></span></p>","0","evaluation","26","1","6C,29B,30C","25","4","1","","","","","","","","","","","","","",""
"","","","","","html-keyboard-response","218","414842","0.0-25.0-2.2","752e648a-0cfe-4ee3-a6ee-7aecd4d10ca1","null","<p style=""text-align: center;"">+</p>","null","fixation","","","","","","","","","","","","","","","","","","","",""
"","","","","","html-slider-response","219","415853","0.0-25.0-0.3","752e648a-0cfe-4ee3-a6ee-7aecd4d10ca1","1000","
                  <p style=""text-align: center;"">₪36
                                                <br>60%</p>
                  <p id=""wtp"" style=""text-align:center; margin-top: 0px; margin-bottom: 0px; font-size: 40px"";>&ensp;</p>","-","viewing","0","12","1C,7C,15C","","","","","","","","","","","","","","","","",""
"","","","","","html-slider-response","220","417791","0.0-25.0-1.3","752e648a-0cfe-4ee3-a6ee-7aecd4d10ca1","1937","
                  <p style=""text-align: center;"">₪36
                                                <br>60%</p>
                  <p id=""wtp"" style=""text-align:center; margin-top: 0px; margin-bottom: 0px; font-size: 40px"";>מוכנים לשלם: <span id=""c_p_y""></span></p>","17","evaluation","31","12","1C,7C,15C","60","36","17","","","","","","","","","","","","","",""
"","","","","","html-keyboard-response","221","419135","0.0-25.0-2.3","752e648a-0cfe-4ee3-a6ee-7aecd4d10ca1","null","<p style=""text-align: center;"">+</p>","null","fixation","","","","","","","","","","","","","","","","","","","",""
"","","","","","html-slider-response","222","420145","0.0-25.0-0.4","752e648a-0cfe-4ee3-a6ee-7aecd4d10ca1","1000","
                  <p style=""text-align: center;"">₪64
                                                <br>50%</p>
                  <p id=""wtp"" style=""text-align:center; margin-top: 0px; margin-bottom: 0px; font-size: 40px"";>&ensp;</p>","-","viewing","0","25","1B,3B,4A","","","","","","","","","","","","","","","","",""
"","","","","","html-slider-response","223","421991","0.0-25.0-1.4","752e648a-0cfe-4ee3-a6ee-7aecd4d10ca1","1845","
                  <p style=""text-align: center;"">₪64
                                                <br>50%</p>
                  <p id=""wtp"" style=""text-align:center; margin-top: 0px; margin-bottom: 0px; font-size: 40px"";>מוכנים לשלם: <span id=""c_p_y""></span></p>","21","evaluation","18","25","1B,3B,4A","50","64","21","","","","","","","","","","","","","",""
"","","","","","html-keyboard-response","224","423143","0.0-25.0-2.4","752e648a-0cfe-4ee3-a6ee-7aecd4d10ca1","null","<p style=""text-align: center;"">+</p>","null","fixation","","","","","","","","","","","","","","","","","","","",""
"","","","","","html-slider-response","225","424153","0.0-25.0-0.5","752e648a-0cfe-4ee3-a6ee-7aecd4d10ca1","1000","
                  <p style=""text-align: center;"">₪79
                                                <br>40%</p>
                  <p id=""wtp"" style=""text-align:center; margin-top: 0px; margin-bottom: 0px; font-size: 40px"";>&ensp;</p>","-","viewing","0","30","9B","","","","","","","","","","","","","","","","",""
"","","","","","html-slider-response","226","425279","0.0-25.0-1.5","752e648a-0cfe-4ee3-a6ee-7aecd4d10ca1","1124","
                  <p style=""text-align: center;"">₪79
                                                <br>40%</p>
                  <p id=""wtp"" style=""text-align:center; margin-top: 0px; margin-bottom: 0px; font-size: 40px"";>מוכנים לשלם: <span id=""c_p_y""></span></p>","13","evaluation","78","30","9B","40","79","13","","","","","","","","","","","","","",""
"","","","","","html-keyboard-response","227","426022","0.0-25.0-2.5","752e648a-0cfe-4ee3-a6ee-7aecd4d10ca1","null","<p style=""text-align: center;"">+</p>","null","fixation","","","","","","","","","","","","","","","","","","","",""
"","","","","","html-slider-response","228","427028","0.0-25.0-0.6","752e648a-0cfe-4ee3-a6ee-7aecd4d10ca1","1000","
                  <p style=""text-align: center;"">₪61
                                                <br>45%</p>
                  <p id=""wtp"" style=""text-align:center; margin-top: 0px; margin-bottom: 0px; font-size: 40px"";>&ensp;</p>","-","viewing","0","22","10A,11A","","","","","","","","","","","","","","","","",""
"","","","","","html-slider-response","229","428807","0.0-25.0-1.6","752e648a-0cfe-4ee3-a6ee-7aecd4d10ca1","1778","
                  <p style=""text-align: center;"">₪61
                                                <br>45%</p>
                  <p id=""wtp"" style=""text-align:center; margin-top: 0px; margin-bottom: 0px; font-size: 40px"";>מוכנים לשלם: <span id=""c_p_y""></span></p>","25","evaluation","41","22","10A,11A","45","61","26","","","","","","","","","","","","","",""
"","","","","","html-keyboard-response","230","429661","0.0-25.0-2.6","752e648a-0cfe-4ee3-a6ee-7aecd4d10ca1","null","<p style=""text-align: center;"">+</p>","null","fixation","","","","","","","","","","","","","","","","","","","",""
"","","","","","html-slider-response","231","430666","0.0-25.0-0.7","752e648a-0cfe-4ee3-a6ee-7aecd4d10ca1","1000","
                  <p style=""text-align: center;"">₪18
                                                <br>50%</p>
                  <p id=""wtp"" style=""text-align:center; margin-top: 0px; margin-bottom: 0px; font-size: 40px"";>&ensp;</p>","-","viewing","0","10","2C,16C,22B,28A","","","","","","","","","","","","","","","","",""
"","","","","","html-slider-response","232","432271","0.0-25.0-1.7","752e648a-0cfe-4ee3-a6ee-7aecd4d10ca1","1604","
                  <p style=""text-align: center;"">₪18
                                                <br>50%</p>
                  <p id=""wtp"" style=""text-align:center; margin-top: 0px; margin-bottom: 0px; font-size: 40px"";>מוכנים לשלם: <span id=""c_p_y""></span></p>","11","evaluation","16","10","2C,16C,22B,28A","50","18","11","","","","","","","","","","","","","",""
"","","","","","html-keyboard-response","233","432994","0.0-25.0-2.7","752e648a-0cfe-4ee3-a6ee-7aecd4d10ca1","null","<p style=""text-align: center;"">+</p>","null","fixation","","","","","","","","","","","","","","","","","","","",""
"","","","","","html-slider-response","234","433997","0.0-25.0-0.8","752e648a-0cfe-4ee3-a6ee-7aecd4d10ca1","1000","
                  <p style=""text-align: center;"">₪36
                                                <br>75%</p>
                  <p id=""wtp"" style=""text-align:center; margin-top: 0px; margin-bottom: 0px; font-size: 40px"";>&ensp;</p>","-","viewing","0","14","4B,5A,13B,16B","","","","","","","","","","","","","","","","",""
"","","","","","html-slider-response","235","436103","0.0-25.0-1.8","752e648a-0cfe-4ee3-a6ee-7aecd4d10ca1","2105","
                  <p style=""text-align: center;"">₪36
                                                <br>75%</p>
                  <p id=""wtp"" style=""text-align:center; margin-top: 0px; margin-bottom: 0px; font-size: 40px"";>מוכנים לשלם: <span id=""c_p_y""></span></p>","24","evaluation","66","14","4B,5A,13B,16B","75","36","24","","","","","","","","","","","","","",""
"","","","","","html-keyboard-response","236","437022","0.0-25.0-2.8","752e648a-0cfe-4ee3-a6ee-7aecd4d10ca1","null","<p style=""text-align: center;"">+</p>","null","fixation","","","","","","","","","","","","","","","","","","","",""
"","","","","","html-slider-response","237","438030","0.0-25.0-0.9","752e648a-0cfe-4ee3-a6ee-7aecd4d10ca1","1000","
                  <p style=""text-align: center;"">₪43
                                                <br>75%</p>
                  <p id=""wtp"" style=""text-align:center; margin-top: 0px; margin-bottom: 0px; font-size: 40px"";>&ensp;</p>","-","viewing","0","18","11B,19B,24A,26A","","","","","","","","","","","","","","","","",""
"","","","","","html-slider-response","238","439127","0.0-25.0-1.9","752e648a-0cfe-4ee3-a6ee-7aecd4d10ca1","1096","
                  <p style=""text-align: center;"">₪43
                                                <br>75%</p>
                  <p id=""wtp"" style=""text-align:center; margin-top: 0px; margin-bottom: 0px; font-size: 40px"";>מוכנים לשלם: <span id=""c_p_y""></span></p>","29","evaluation","5","18","11B,19B,24A,26A","75","43","29","","","","","","","","","","","","","",""
"","","","","","html-keyboard-response","239","440217","0.0-25.0-2.9","752e648a-0cfe-4ee3-a6ee-7aecd4d10ca1","null","<p style=""text-align: center;"">+</p>","null","fixation","","","","","","","","","","","","","","","","","","","",""
"","","","","","html-slider-response","240","441224","0.0-25.0-0.10","752e648a-0cfe-4ee3-a6ee-7aecd4d10ca1","1000","
                  <p style=""text-align: center;"">₪16
                                                <br>20%</p>
                  <p id=""wtp"" style=""text-align:center; margin-top: 0px; margin-bottom: 0px; font-size: 40px"";>&ensp;</p>","-","viewing","0","8","14C,17A,20C,27A","","","","","","","","","","","","","","","","",""
"","","","","","html-slider-response","241","443311","0.0-25.0-1.10","752e648a-0cfe-4ee3-a6ee-7aecd4d10ca1","2086","
                  <p style=""text-align: center;"">₪16
                                                <br>20%</p>
                  <p id=""wtp"" style=""text-align:center; margin-top: 0px; margin-bottom: 0px; font-size: 40px"";>מוכנים לשלם: <span id=""c_p_y""></span></p>","7","evaluation","60","8","14C,17A,20C,27A","20","16","7","","","","","","","","","","","","","",""
"","","","","","html-keyboard-response","242","444161","0.0-25.0-2.10","752e648a-0cfe-4ee3-a6ee-7aecd4d10ca1","null","<p style=""text-align: center;"">+</p>","null","fixation","","","","","","","","","","","","","","","","","","","",""
"","","","","","html-slider-response","243","445166","0.0-25.0-0.11","752e648a-0cfe-4ee3-a6ee-7aecd4d10ca1","1000","
                  <p style=""text-align: center;"">₪36
                                                <br>70%</p>
                  <p id=""wtp"" style=""text-align:center; margin-top: 0px; margin-bottom: 0px; font-size: 40px"";>&ensp;</p>","-","viewing","0","13","3A,5C,10B","","","","","","","","","","","","","","","","",""
"","","","","","html-slider-response","244","446191","0.0-25.0-1.11","752e648a-0cfe-4ee3-a6ee-7aecd4d10ca1","1024","
                  <p style=""text-align: center;"">₪36
                                                <br>70%</p>
                  <p id=""wtp"" style=""text-align:center; margin-top: 0px; margin-bottom: 0px; font-size: 40px"";>מוכנים לשלם: <span id=""c_p_y""></span></p>","20","evaluation","78","13","3A,5C,10B","70","36","20","","","","","","","","","","","","","",""
"","","","","","html-keyboard-response","245","447489","0.0-25.0-2.11","752e648a-0cfe-4ee3-a6ee-7aecd4d10ca1","null","<p style=""text-align: center;"">+</p>","null","fixation","","","","","","","","","","","","","","","","","","","",""
"","","","","","html-slider-response","246","448504","0.0-25.0-0.12","752e648a-0cfe-4ee3-a6ee-7aecd4d10ca1","1000","
                  <p style=""text-align: center;"">₪11
                                                <br>20%</p>
                  <p id=""wtp"" style=""text-align:center; margin-top: 0px; margin-bottom: 0px; font-size: 40px"";>&ensp;</p>","-","viewing","0","4","12C,17C,23C,28C","","","","","","","","","","","","","","","","",""
"","","","","","html-slider-response","247","449823","0.0-25.0-1.12","752e648a-0cfe-4ee3-a6ee-7aecd4d10ca1","1318","
                  <p style=""text-align: center;"">₪11
                                                <br>20%</p>
                  <p id=""wtp"" style=""text-align:center; margin-top: 0px; margin-bottom: 0px; font-size: 40px"";>מוכנים לשלם: <span id=""c_p_y""></span></p>","0","evaluation","19","4","12C,17C,23C,28C","20","11","0","","","","","","","","","","","","","",""
"","","","","","html-keyboard-response","248","450343","0.0-25.0-2.12","752e648a-0cfe-4ee3-a6ee-7aecd4d10ca1","null","<p style=""text-align: center;"">+</p>","null","fixation","","","","","","","","","","","","","","","","","","","",""
"","","","","","html-slider-response","249","451354","0.0-25.0-0.13","752e648a-0cfe-4ee3-a6ee-7aecd4d10ca1","1000","
                  <p style=""text-align: center;"">₪71
                                                <br>55%</p>
                  <p id=""wtp"" style=""text-align:center; margin-top: 0px; margin-bottom: 0px; font-size: 40px"";>&ensp;</p>","-","viewing","0","27","5B,18A","","","","","","","","","","","","","","","","",""
"","","","","","html-slider-response","250","452255","0.0-25.0-1.13","752e648a-0cfe-4ee3-a6ee-7aecd4d10ca1","900","
                  <p style=""text-align: center;"">₪71
                                                <br>55%</p>
                  <p id=""wtp"" style=""text-align:center; margin-top: 0px; margin-bottom: 0px; font-size: 40px"";>מוכנים לשלם: <span id=""c_p_y""></span></p>","14","evaluation","19","27","5B,18A","55","71","14","","","","","","","","","","","","","",""
"","","","","","html-keyboard-response","251","453507","0.0-25.0-2.13","752e648a-0cfe-4ee3-a6ee-7aecd4d10ca1","null","<p style=""text-align: center;"">+</p>","null","fixation","","","","","","","","","","","","","","","","","","","",""
"","","","","","html-slider-response","252","454512","0.0-25.0-0.14","752e648a-0cfe-4ee3-a6ee-7aecd4d10ca1","1000","
                  <p style=""text-align: center;"">₪18
                                                <br>25%</p>
                  <p id=""wtp"" style=""text-align:center; margin-top: 0px; margin-bottom: 0px; font-size: 40px"";>&ensp;</p>","-","viewing","0","9","14A,23A","","","","","","","","","","","","","","","","",""
"","","","","","html-slider-response","253","457223","0.0-25.0-1.14","752e648a-0cfe-4ee3-a6ee-7aecd4d10ca1","2710","
                  <p style=""text-align: center;"">₪18
                                                <br>25%</p>
                  <p id=""wtp"" style=""text-align:center; margin-top: 0px; margin-bottom: 0px; font-size: 40px"";>מוכנים לשלם: <span id=""c_p_y""></span></p>","3","evaluation","18","9","14A,23A","25","18","3","","","","","","","","","","","","","",""
"","","","","","html-keyboard-response","254","457826","0.0-25.0-2.14","752e648a-0cfe-4ee3-a6ee-7aecd4d10ca1","null","<p style=""text-align: center;"">+</p>","null","fixation","","","","","","","","","","","","","","","","","","","",""
