"success","timeout","failed_images","failed_audio","failed_video","trial_type","trial_index","time_elapsed","internal_node_id","subject_id","rt","stimulus","response","part","slider_start","ID","set_ID","prob","amount","last_location","actual_choice","actual_EV","binary_id","trinary_id","catch","A_key","D_key","choice_prob","choice_amount","chosen_part","potential_prize_prob","potential_prize_amount","won_prize","total_prize","prize_cost","remaining_budget","accuracy"
"true","false","[]","[]","[]","preload","0","25","0.0-0.0","0fe03e9b-3bb0-4368-b749-8e9e3d5c49d2","","","","","","","","","","","","","","","","","","","","","","","","","","",""
"","","","","","html-keyboard-response","1","1064570","0.0-1.0","0fe03e9b-3bb0-4368-b749-8e9e3d5c49d2","null","
          <h1>שלום וברוכים הבאים!</h1>
          <p>לפניכם ניסוי בקבלת החלטות עם שני חלקים.
          <br><br>לחצו על העכבר כדי להמשיך.</p>","0","example","","","","","","","","","","","","","","","","","","","","","","",""
"","","","","","html-keyboard-response","2","1071089","0.0-2.0","0fe03e9b-3bb0-4368-b749-8e9e3d5c49d2","null","
        <h1>חלק 1</h1>
        <p>בקרוב יוצגו בפניכם הגרלות.
        <br>עליכם לבחור את המחיר המירבי שתהיו מוכנים לשלם כדי להשתתף בהגרלה שתוצג.
        <br>יש לכם תקציב של ₪80 לכל הגרלה. 
        <br>נסו להעריך כל הגרלה בנפרד ולחשוב כמה היא שווה עבורכם, ₪80 זמינים לכל הגרלה בנפרד.
        <br><br>לחצו על העכבר כדי להמשיך.</p>","1","instructions","","","","","","","","","","","","","","","","","","","","","","",""
"","","","","","html-keyboard-response","3","1077241","0.0-3.0","0fe03e9b-3bb0-4368-b749-8e9e3d5c49d2","null","
        <p>בסוף הניסוי, המחשב יבחר את אחת ההגרלות ויקבע מחיר לכרטיס עבורה. 
        <br>במידה והמחיר שבחרתם נמוך מהמחיר שנבחר על ידי המחשב, לא תשתתפו בהגרלה ותשארו עם מלוא התקציב.
        <br>במידה והמחיר שבחרתם גבוה מהמחיר שנבחר על ידי המחשב, תשלמו את המחיר שנקבע ותשתתפו בהגרלה.
        <br><br>לחצו על העכבר כדי להמשיך.</p>","1","instructions","","","","","","","","","","","","","","","","","","","","","","",""
"","","","","","html-slider-response","4","1093738","0.0-4.0","0fe03e9b-3bb0-4368-b749-8e9e3d5c49d2","16382","
        <p style=""font-size: 42px;"">נתחיל עם דוגמא: 
        <br>ההגרלה מטה מציעה 65% סיכוי לזכות ב-₪40 
        <br>&emsp;&emsp;&emsp;&emsp;&emsp;&emsp;&emsp;&emsp;&ensp;35% סיכוי לזכות ב-₪0.
        <br><br>מה המחיר המירבי שתהיו מוכנים לשלם על כרטיס להגרלה זו בין 0 ל-₪80?
        <br>הזיזו את העכבר על פני המלבן ולחצו כדי לבצע בחירה.</p>
        
        <p style=""text-align: center;"">₪40<br>65%</p>

        <p id=""wtp"" style=""text-align:center; margin-top: 0px; margin-bottom: 0px; font-size: 40px"";>מוכנים לשלם: <span id=""c_p_y""></span></p>","19","example","68","","","","","","","","","","","","","","","","","","","","","",""
"","","","","","html-keyboard-response","5","1101777","0.0-5.0","0fe03e9b-3bb0-4368-b749-8e9e3d5c49d2","null","<p>יפה מאוד!
                <br> בחרתם שתהיו מוכנים לשלם ₪19 כדי להשתתף בהגרלה:
                <br><p style=""text-align: center;"">₪40<br>65%</p>
                <p>נשמע נכון?
                <br>נניח שהגרלה זו נבחרה בסוף הניסוי.
                <br>כעת המחשב יקבע מחיר עבורה באקראי.
                <br>לחצו על העכבר להמשך.</p>","1","example","","","","","","","","","","","","","","","","","","","","","","",""
"","","","","","html-keyboard-response","6","1110449","0.0-6.0","0fe03e9b-3bb0-4368-b749-8e9e3d5c49d2","null","<p>המחשב קבע מחיר: ₪56
                <br>ואתם בחרתם לשלם לכל היותר: ₪19
                <br><br>מכיוון שהמחיר שבחרתם נמוך מהמחיר שנקבע, לא תתשתתפו בהגרלה.
                <br>במקרה כזה, בסוף הניסוי תקבלו את כל התקציב ההתחלתי של ₪80.
                <br><br>לחצו על העכבר להמשך.</p>","1","example","","","","","","","","","","","","","","","","","","","","","","",""
"","","","","","html-slider-response","7","1119385","0.0-7.0","0fe03e9b-3bb0-4368-b749-8e9e3d5c49d2","8672","<p style=""font-size: 42px;"">הנה עוד דוגמא:
                <br>ההגרלה מטה מציעה 35% סיכוי לזכות ב-₪18 
                <br>&emsp;&emsp;&emsp;&emsp;&emsp;&emsp;&emsp;&emsp;&ensp;65% סיכוי לזכות ב-₪0.</p>
        
                <p style=""text-align: center;"">₪18<br>35%</p>
                <p id=""wtp"" style=""text-align:center; margin-top: 0px; margin-bottom: 0px; font-size: 40px"";>מוכנים לשלם: <span id=""c_p_y""></span></p>","0","example","12","","","","","","","","","","","","","","","","","","","","","",""
"","","","","","html-keyboard-response","8","1122113","0.0-8.0","0fe03e9b-3bb0-4368-b749-8e9e3d5c49d2","null","<p>הייתם מוכנים לשלם  ₪0 כדי להשתתף בהגרלה:
                <p style=""text-align: center;"">₪18<br>35%</p>
                <p>כעת נניח שהמחשב בחר את ההגרלה הזו בסוף הניסוי, וקבע עבורה מחיר.
                <br><br>לחצו על העכבר כדי להמשיך.</p>","1","instructions","","","","","","","","","","","","","","","","","","","","","","",""
"","","","","","html-keyboard-response","9","1134889","0.0-9.0","0fe03e9b-3bb0-4368-b749-8e9e3d5c49d2","null","<p>המחשב קבע מחיר להגרלה: ₪0
                <br>ואתם בחרתם לשלם לכל היותר: ₪0
                <br><br>כעת המחיר שנקבע זהה לזה שבחרתם, אז תשלמו את המחיר שקבע המחשב (₪0) ותשתתפו בהגרלה.
                <br>במקרה כזה, תסיימו את הניסוי עם תקציב של ₪80 ועם סיכוי לזכות ב-₪18 נוספים מההגרלה.
                <br>כלומר, תוכלו לקבל ₪80 אם לא תזכו בהגרלה, או ₪98 אם תזכו בהגרלה.
                <br><br>לחצו על העכבר להמשך.</p>","1","example","","","","","","","","","","","","","","","","","","","","","","",""
"","","","","","html-keyboard-response","10","1143065","0.0-10.0","0fe03e9b-3bb0-4368-b749-8e9e3d5c49d2","null","<p>במהלך הניסוי, קודם תראו את ההגרלה ורק לאחר מכן תוכלו לבחור.
                <p>כמו כן, יהיו לכם מספר שניות מוגבל להגיב.
                <p>בואו ננסה זאת עם ההגרלה הקודמת.
                <br>לחצו על העכבר כדי להמשיך.</p>","1","instructions","","","","","","","","","","","","","","","","","","","","","","",""
"","","","","","html-slider-response","11","1144345","0.0-11.0","0fe03e9b-3bb0-4368-b749-8e9e3d5c49d2","1000","
                    <p style=""text-align: center;"">₪18<br>35%</p>
                    <p id=""wtp"" style=""text-align:center; margin-top: 0px; margin-bottom: 0px; font-size: 40px"";>&ensp;</p>","65","instructions","0","","","","","","","","","","","","","","","","","","","","","",""
"","","","","","html-slider-response","12","1147345","0.0-12.0","0fe03e9b-3bb0-4368-b749-8e9e3d5c49d2","2734","
                    <p style=""text-align: center;"">₪18<br>35%</p>
                    <p id=""wtp"" style=""text-align:center; margin-top: 0px; margin-bottom: 0px; font-size: 40px"";>מוכנים לשלם: <span id=""c_p_y""></span></p>","0","instructions","22","","","","","","","","","","","","","","","","","","","","","",""
"","","","","","html-keyboard-response","13","1149849","0.0-13.0","0fe03e9b-3bb0-4368-b749-8e9e3d5c49d2","null","<p>יפה. הפעם בחרתם לשלם לכל היותר ₪0.
                <br><br>לחצו על העכבר כדי להמשיך.</p>","1","instructions","","","","","","","","","","","","","","","","","","","","","","",""
"","","","","","html-keyboard-response","14","1157321","0.0-15.0","0fe03e9b-3bb0-4368-b749-8e9e3d5c49d2","null","<p>כעת נתחיל את הניסוי.
                <br><br>אתם תראו הגרלות ותתבקשו לבחור כמה תהיו מוכנים לשלם כדי להשתתף בהן.
                <br>יש לכם תקציב של ₪80 עבור כל הגרלה.
                <br>בסוף הניסוי הגרלה אחת תבחר באקראי ותשוחק.
                <br><br>לחצו על העכבר כדי להתחיל את הניסוי.</p>","1","instructions","","","","","","","","","","","","","","","","","","","","","","",""
"","","","","","html-keyboard-response","15","1158578","0.0-16.0","0fe03e9b-3bb0-4368-b749-8e9e3d5c49d2","null","<p style=""text-align: center;"">+</p>","null","fixation","","","","","","","","","","","","","","","","","","","","","","",""
"","","","","","html-slider-response","16","1159594","0.0-17.0-0.0","0fe03e9b-3bb0-4368-b749-8e9e3d5c49d2","1000","
                  <p style=""text-align: center;"">₪64
                                                <br>25%</p>
                  <p id=""wtp"" style=""text-align:center; margin-top: 0px; margin-bottom: 0px; font-size: 40px"";>&ensp;</p>","-","viewing","0","24","6A,21A","","","","","","","","","","","","","","","","","","","",""
"","","","","","html-slider-response","17","1163081","0.0-17.0-1.0","0fe03e9b-3bb0-4368-b749-8e9e3d5c49d2","3485","
                  <p style=""text-align: center;"">₪64
                                                <br>25%</p>
                  <p id=""wtp"" style=""text-align:center; margin-top: 0px; margin-bottom: 0px; font-size: 40px"";>מוכנים לשלם: <span id=""c_p_y""></span></p>","19","evaluation","28","24","6A,21A","25","64","19","","","","","","","","","","","","","","","","",""
"","","","","","html-keyboard-response","18","1163739","0.0-17.0-2.0","0fe03e9b-3bb0-4368-b749-8e9e3d5c49d2","null","<p style=""text-align: center;"">+</p>","null","fixation","","","","","","","","","","","","","","","","","","","","","","",""
"","","","","","html-slider-response","19","1164749","0.0-17.0-0.1","0fe03e9b-3bb0-4368-b749-8e9e3d5c49d2","1000","
                  <p style=""text-align: center;"">₪36
                                                <br>70%</p>
                  <p id=""wtp"" style=""text-align:center; margin-top: 0px; margin-bottom: 0px; font-size: 40px"";>&ensp;</p>","-","viewing","0","13","3A,5C,10B","","","","","","","","","","","","","","","","","","","",""
"","","","","","html-slider-response","20","1167873","0.0-17.0-1.1","0fe03e9b-3bb0-4368-b749-8e9e3d5c49d2","3123","
                  <p style=""text-align: center;"">₪36
                                                <br>70%</p>
                  <p id=""wtp"" style=""text-align:center; margin-top: 0px; margin-bottom: 0px; font-size: 40px"";>מוכנים לשלם: <span id=""c_p_y""></span></p>","21","evaluation","56","13","3A,5C,10B","70","36","21","","","","","","","","","","","","","","","","",""
"","","","","","html-keyboard-response","21","1168714","0.0-17.0-2.1","0fe03e9b-3bb0-4368-b749-8e9e3d5c49d2","null","<p style=""text-align: center;"">+</p>","null","fixation","","","","","","","","","","","","","","","","","","","","","","",""
"","","","","","html-slider-response","22","1169721","0.0-17.0-0.2","0fe03e9b-3bb0-4368-b749-8e9e3d5c49d2","1000","
                  <p style=""text-align: center;"">₪4
                                                <br>75%</p>
                  <p id=""wtp"" style=""text-align:center; margin-top: 0px; margin-bottom: 0px; font-size: 40px"";>&ensp;</p>","-","viewing","0","3","12B,20B,23B,27C,29C","","","","","","","","","","","","","","","","","","","",""
"","","","","","html-slider-response","23","1171393","0.0-17.0-1.2","0fe03e9b-3bb0-4368-b749-8e9e3d5c49d2","1671","
                  <p style=""text-align: center;"">₪4
                                                <br>75%</p>
                  <p id=""wtp"" style=""text-align:center; margin-top: 0px; margin-bottom: 0px; font-size: 40px"";>מוכנים לשלם: <span id=""c_p_y""></span></p>","0","evaluation","38","3","12B,20B,23B,27C,29C","75","4","0","","","","","","","","","","","","","","","","",""
"","","","","","html-keyboard-response","24","1172111","0.0-17.0-2.2","0fe03e9b-3bb0-4368-b749-8e9e3d5c49d2","null","<p style=""text-align: center;"">+</p>","null","fixation","","","","","","","","","","","","","","","","","","","","","","",""
"","","","","","html-slider-response","25","1173123","0.0-17.0-0.3","0fe03e9b-3bb0-4368-b749-8e9e3d5c49d2","1000","
                  <p style=""text-align: center;"">₪61
                                                <br>55%</p>
                  <p id=""wtp"" style=""text-align:center; margin-top: 0px; margin-bottom: 0px; font-size: 40px"";>&ensp;</p>","-","viewing","0","23","7B,26B","","","","","","","","","","","","","","","","","","","",""
"","","","","","html-slider-response","26","1175409","0.0-17.0-1.3","0fe03e9b-3bb0-4368-b749-8e9e3d5c49d2","2285","
                  <p style=""text-align: center;"">₪61
                                                <br>55%</p>
                  <p id=""wtp"" style=""text-align:center; margin-top: 0px; margin-bottom: 0px; font-size: 40px"";>מוכנים לשלם: <span id=""c_p_y""></span></p>","50","evaluation","36","23","7B,26B","55","61","50","","","","","","","","","","","","","","","","",""
"","","","","","html-keyboard-response","27","1176349","0.0-17.0-2.3","0fe03e9b-3bb0-4368-b749-8e9e3d5c49d2","null","<p style=""text-align: center;"">+</p>","null","fixation","","","","","","","","","","","","","","","","","","","","","","",""
"","","","","","html-slider-response","28","1177361","0.0-17.0-0.4","0fe03e9b-3bb0-4368-b749-8e9e3d5c49d2","1000","
                  <p style=""text-align: center;"">₪39
                                                <br>65%</p>
                  <p id=""wtp"" style=""text-align:center; margin-top: 0px; margin-bottom: 0px; font-size: 40px"";>&ensp;</p>","-","viewing","0","16","1A,15A,26C","","","","","","","","","","","","","","","","","","","",""
"","","","","","html-slider-response","29","1178673","0.0-17.0-1.4","0fe03e9b-3bb0-4368-b749-8e9e3d5c49d2","1311","
                  <p style=""text-align: center;"">₪39
                                                <br>65%</p>
                  <p id=""wtp"" style=""text-align:center; margin-top: 0px; margin-bottom: 0px; font-size: 40px"";>מוכנים לשלם: <span id=""c_p_y""></span></p>","40","evaluation","58","16","1A,15A,26C","65","39","40","","","","","","","","","","","","","","","","",""
"","","","","","html-keyboard-response","30","1179274","0.0-17.0-2.4","0fe03e9b-3bb0-4368-b749-8e9e3d5c49d2","null","<p style=""text-align: center;"">+</p>","null","fixation","","","","","","","","","","","","","","","","","","","","","","",""
"","","","","","html-slider-response","31","1180280","0.0-17.0-0.5","0fe03e9b-3bb0-4368-b749-8e9e3d5c49d2","1000","
                  <p style=""text-align: center;"">₪18
                                                <br>50%</p>
                  <p id=""wtp"" style=""text-align:center; margin-top: 0px; margin-bottom: 0px; font-size: 40px"";>&ensp;</p>","-","viewing","0","10","2C,16C,22B,28A","","","","","","","","","","","","","","","","","","","",""
"","","","","","html-slider-response","32","1181697","0.0-17.0-1.5","0fe03e9b-3bb0-4368-b749-8e9e3d5c49d2","1416","
                  <p style=""text-align: center;"">₪18
                                                <br>50%</p>
                  <p id=""wtp"" style=""text-align:center; margin-top: 0px; margin-bottom: 0px; font-size: 40px"";>מוכנים לשלם: <span id=""c_p_y""></span></p>","7","evaluation","79","10","2C,16C,22B,28A","50","18","7","","","","","","","","","","","","","","","","",""
"","","","","","html-keyboard-response","33","1182372","0.0-17.0-2.5","0fe03e9b-3bb0-4368-b749-8e9e3d5c49d2","null","<p style=""text-align: center;"">+</p>","null","fixation","","","","","","","","","","","","","","","","","","","","","","",""
"","","","","","html-slider-response","34","1183383","0.0-17.0-0.6","0fe03e9b-3bb0-4368-b749-8e9e3d5c49d2","1000","
                  <p style=""text-align: center;"">₪58
                                                <br>40%</p>
                  <p id=""wtp"" style=""text-align:center; margin-top: 0px; margin-bottom: 0px; font-size: 40px"";>&ensp;</p>","-","viewing","0","20","10C,13A,19C,21B","","","","","","","","","","","","","","","","","","","",""
"","","","","","html-slider-response","35","1184977","0.0-17.0-1.6","0fe03e9b-3bb0-4368-b749-8e9e3d5c49d2","1593","
                  <p style=""text-align: center;"">₪58
                                                <br>40%</p>
                  <p id=""wtp"" style=""text-align:center; margin-top: 0px; margin-bottom: 0px; font-size: 40px"";>מוכנים לשלם: <span id=""c_p_y""></span></p>","48","evaluation","37","20","10C,13A,19C,21B","40","58","48","","","","","","","","","","","","","","","","",""
"","","","","","html-keyboard-response","36","1185658","0.0-17.0-2.6","0fe03e9b-3bb0-4368-b749-8e9e3d5c49d2","null","<p style=""text-align: center;"">+</p>","null","fixation","","","","","","","","","","","","","","","","","","","","","","",""
"","","","","","html-slider-response","37","1186669","0.0-17.0-0.7","0fe03e9b-3bb0-4368-b749-8e9e3d5c49d2","1000","
                  <p style=""text-align: center;"">₪76
                                                <br>65%</p>
                  <p id=""wtp"" style=""text-align:center; margin-top: 0px; margin-bottom: 0px; font-size: 40px"";>&ensp;</p>","-","viewing","0","29","8C,19A,24B","","","","","","","","","","","","","","","","","","","",""
"","","","","","html-slider-response","38","1188753","0.0-17.0-1.7","0fe03e9b-3bb0-4368-b749-8e9e3d5c49d2","2082","
                  <p style=""text-align: center;"">₪76
                                                <br>65%</p>
                  <p id=""wtp"" style=""text-align:center; margin-top: 0px; margin-bottom: 0px; font-size: 40px"";>מוכנים לשלם: <span id=""c_p_y""></span></p>","59","evaluation","77","29","8C,19A,24B","65","76","59","","","","","","","","","","","","","","","","",""
"","","","","","html-keyboard-response","39","1189931","0.0-17.0-2.7","0fe03e9b-3bb0-4368-b749-8e9e3d5c49d2","null","<p style=""text-align: center;"">+</p>","null","fixation","","","","","","","","","","","","","","","","","","","","","","",""
"","","","","","html-slider-response","40","1190941","0.0-17.0-0.8","0fe03e9b-3bb0-4368-b749-8e9e3d5c49d2","1000","
                  <p style=""text-align: center;"">₪36
                                                <br>60%</p>
                  <p id=""wtp"" style=""text-align:center; margin-top: 0px; margin-bottom: 0px; font-size: 40px"";>&ensp;</p>","-","viewing","0","12","1C,7C,15C","","","","","","","","","","","","","","","","","","","",""
"","","","","","html-slider-response","41","1192368","0.0-17.0-1.8","0fe03e9b-3bb0-4368-b749-8e9e3d5c49d2","1427","
                  <p style=""text-align: center;"">₪36
                                                <br>60%</p>
                  <p id=""wtp"" style=""text-align:center; margin-top: 0px; margin-bottom: 0px; font-size: 40px"";>מוכנים לשלם: <span id=""c_p_y""></span></p>","20","evaluation","12","12","1C,7C,15C","60","36","20","","","","","","","","","","","","","","","","",""
"","","","","","html-keyboard-response","42","1193142","0.0-17.0-2.8","0fe03e9b-3bb0-4368-b749-8e9e3d5c49d2","null","<p style=""text-align: center;"">+</p>","null","fixation","","","","","","","","","","","","","","","","","","","","","","",""
"","","","","","html-slider-response","43","1194145","0.0-17.0-0.9","0fe03e9b-3bb0-4368-b749-8e9e3d5c49d2","1000","
                  <p style=""text-align: center;"">₪58
                                                <br>30%</p>
                  <p id=""wtp"" style=""text-align:center; margin-top: 0px; margin-bottom: 0px; font-size: 40px"";>&ensp;</p>","-","viewing","0","19","13C,30A","","","","","","","","","","","","","","","","","","","",""
"","","","","","html-slider-response","44","1196121","0.0-17.0-1.9","0fe03e9b-3bb0-4368-b749-8e9e3d5c49d2","1974","
                  <p style=""text-align: center;"">₪58
                                                <br>30%</p>
                  <p id=""wtp"" style=""text-align:center; margin-top: 0px; margin-bottom: 0px; font-size: 40px"";>מוכנים לשלם: <span id=""c_p_y""></span></p>","41","evaluation","18","19","13C,30A","30","58","41","","","","","","","","","","","","","","","","",""
"","","","","","html-keyboard-response","45","1197224","0.0-17.0-2.9","0fe03e9b-3bb0-4368-b749-8e9e3d5c49d2","null","<p style=""text-align: center;"">+</p>","null","fixation","","","","","","","","","","","","","","","","","","","","","","",""
"","","","","","html-slider-response","46","1198232","0.0-17.0-0.10","0fe03e9b-3bb0-4368-b749-8e9e3d5c49d2","1000","
                  <p style=""text-align: center;"">₪16
                                                <br>20%</p>
                  <p id=""wtp"" style=""text-align:center; margin-top: 0px; margin-bottom: 0px; font-size: 40px"";>&ensp;</p>","-","viewing","0","8","14C,17A,20C,27A","","","","","","","","","","","","","","","","","","","",""
"","","","","","html-slider-response","47","1199592","0.0-17.0-1.10","0fe03e9b-3bb0-4368-b749-8e9e3d5c49d2","1360","
                  <p style=""text-align: center;"">₪16
                                                <br>20%</p>
                  <p id=""wtp"" style=""text-align:center; margin-top: 0px; margin-bottom: 0px; font-size: 40px"";>מוכנים לשלם: <span id=""c_p_y""></span></p>","0","evaluation","18","8","14C,17A,20C,27A","20","16","0","","","","","","","","","","","","","","","","",""
"","","","","","html-keyboard-response","48","1200585","0.0-17.0-2.10","0fe03e9b-3bb0-4368-b749-8e9e3d5c49d2","null","<p style=""text-align: center;"">+</p>","null","fixation","","","","","","","","","","","","","","","","","","","","","","",""
"","","","","","html-slider-response","49","1201601","0.0-17.0-0.11","0fe03e9b-3bb0-4368-b749-8e9e3d5c49d2","1000","
                  <p style=""text-align: center;"">₪36
                                                <br>75%</p>
                  <p id=""wtp"" style=""text-align:center; margin-top: 0px; margin-bottom: 0px; font-size: 40px"";>&ensp;</p>","-","viewing","0","14","4B,5A,13B,16B","","","","","","","","","","","","","","","","","","","",""
"","","","","","html-slider-response","50","1203097","0.0-17.0-1.11","0fe03e9b-3bb0-4368-b749-8e9e3d5c49d2","1494","
                  <p style=""text-align: center;"">₪36
                                                <br>75%</p>
                  <p id=""wtp"" style=""text-align:center; margin-top: 0px; margin-bottom: 0px; font-size: 40px"";>מוכנים לשלם: <span id=""c_p_y""></span></p>","0","evaluation","53","14","4B,5A,13B,16B","75","36","0","","","","","","","","","","","","","","","","",""
"","","","","","html-keyboard-response","51","1203683","0.0-17.0-2.11","0fe03e9b-3bb0-4368-b749-8e9e3d5c49d2","null","<p style=""text-align: center;"">+</p>","null","fixation","","","","","","","","","","","","","","","","","","","","","","",""
"","","","","","html-slider-response","52","1204689","0.0-17.0-0.12","0fe03e9b-3bb0-4368-b749-8e9e3d5c49d2","1000","
                  <p style=""text-align: center;"">₪61
                                                <br>45%</p>
                  <p id=""wtp"" style=""text-align:center; margin-top: 0px; margin-bottom: 0px; font-size: 40px"";>&ensp;</p>","-","viewing","0","22","10A,11A","","","","","","","","","","","","","","","","","","","",""
"","","","","","html-slider-response","53","1206424","0.0-17.0-1.12","0fe03e9b-3bb0-4368-b749-8e9e3d5c49d2","1735","
                  <p style=""text-align: center;"">₪61
                                                <br>45%</p>
                  <p id=""wtp"" style=""text-align:center; margin-top: 0px; margin-bottom: 0px; font-size: 40px"";>מוכנים לשלם: <span id=""c_p_y""></span></p>","67","evaluation","70","22","10A,11A","45","61","67","","","","","","","","","","","","","","","","",""
"","","","","","html-keyboard-response","54","1207677","0.0-17.0-2.12","0fe03e9b-3bb0-4368-b749-8e9e3d5c49d2","null","<p style=""text-align: center;"">+</p>","null","fixation","","","","","","","","","","","","","","","","","","","","","","",""
"","","","","","html-slider-response","55","1208693","0.0-17.0-0.13","0fe03e9b-3bb0-4368-b749-8e9e3d5c49d2","1000","
                  <p style=""text-align: center;"">₪79
                                                <br>65%</p>
                  <p id=""wtp"" style=""text-align:center; margin-top: 0px; margin-bottom: 0px; font-size: 40px"";>&ensp;</p>","-","viewing","0","31","8A","","","","","","","","","","","","","","","","","","","",""
"","","","","","html-slider-response","56","1210401","0.0-17.0-1.13","0fe03e9b-3bb0-4368-b749-8e9e3d5c49d2","1707","
                  <p style=""text-align: center;"">₪79
                                                <br>65%</p>
                  <p id=""wtp"" style=""text-align:center; margin-top: 0px; margin-bottom: 0px; font-size: 40px"";>מוכנים לשלם: <span id=""c_p_y""></span></p>","80","evaluation","16","31","8A","65","79","80","","","","","","","","","","","","","","","","",""
"","","","","","html-keyboard-response","57","1211849","0.0-17.0-2.13","0fe03e9b-3bb0-4368-b749-8e9e3d5c49d2","null","<p style=""text-align: center;"">+</p>","null","fixation","","","","","","","","","","","","","","","","","","","","","","",""
"","","","","","html-slider-response","58","1212862","0.0-17.0-0.14","0fe03e9b-3bb0-4368-b749-8e9e3d5c49d2","1000","
                  <p style=""text-align: center;"">₪71
                                                <br>45%</p>
                  <p id=""wtp"" style=""text-align:center; margin-top: 0px; margin-bottom: 0px; font-size: 40px"";>&ensp;</p>","-","viewing","0","26","2B,16A","","","","","","","","","","","","","","","","","","","",""
"","","","","","html-slider-response","59","1214177","0.0-17.0-1.14","0fe03e9b-3bb0-4368-b749-8e9e3d5c49d2","1313","
                  <p style=""text-align: center;"">₪71
                                                <br>45%</p>
                  <p id=""wtp"" style=""text-align:center; margin-top: 0px; margin-bottom: 0px; font-size: 40px"";>מוכנים לשלם: <span id=""c_p_y""></span></p>","70","evaluation","79","26","2B,16A","45","71","70","","","","","","","","","","","","","","","","",""
"","","","","","html-keyboard-response","60","1215149","0.0-17.0-2.14","0fe03e9b-3bb0-4368-b749-8e9e3d5c49d2","null","<p style=""text-align: center;"">+</p>","null","fixation","","","","","","","","","","","","","","","","","","","","","","",""
"","","","","","html-slider-response","61","1216151","0.0-17.0-0.15","0fe03e9b-3bb0-4368-b749-8e9e3d5c49d2","1000","
                  <p style=""text-align: center;"">₪58
                                                <br>45%</p>
                  <p id=""wtp"" style=""text-align:center; margin-top: 0px; margin-bottom: 0px; font-size: 40px"";>&ensp;</p>","-","viewing","0","21","11C,18C,25A","","","","","","","","","","","","","","","","","","","",""
"","","","","","html-slider-response","62","1217521","0.0-17.0-1.15","0fe03e9b-3bb0-4368-b749-8e9e3d5c49d2","1368","
                  <p style=""text-align: center;"">₪58
                                                <br>45%</p>
                  <p id=""wtp"" style=""text-align:center; margin-top: 0px; margin-bottom: 0px; font-size: 40px"";>מוכנים לשלם: <span id=""c_p_y""></span></p>","54","evaluation","60","21","11C,18C,25A","45","58","54","","","","","","","","","","","","","","","","",""
"","","","","","html-keyboard-response","63","1218520","0.0-17.0-2.15","0fe03e9b-3bb0-4368-b749-8e9e3d5c49d2","null","<p style=""text-align: center;"">+</p>","null","fixation","","","","","","","","","","","","","","","","","","","","","","",""
"","","","","","html-slider-response","64","1219537","0.0-17.0-0.16","0fe03e9b-3bb0-4368-b749-8e9e3d5c49d2","1000","
                  <p style=""text-align: center;"">₪43
                                                <br>75%</p>
                  <p id=""wtp"" style=""text-align:center; margin-top: 0px; margin-bottom: 0px; font-size: 40px"";>&ensp;</p>","-","viewing","0","18","11B,19B,24A,26A","","","","","","","","","","","","","","","","","","","",""
"","","","","","html-slider-response","65","1220689","0.0-17.0-1.16","0fe03e9b-3bb0-4368-b749-8e9e3d5c49d2","1150","
                  <p style=""text-align: center;"">₪43
                                                <br>75%</p>
                  <p id=""wtp"" style=""text-align:center; margin-top: 0px; margin-bottom: 0px; font-size: 40px"";>מוכנים לשלם: <span id=""c_p_y""></span></p>","41","evaluation","8","18","11B,19B,24A,26A","75","43","41","","","","","","","","","","","","","","","","",""
"","","","","","html-keyboard-response","66","1221518","0.0-17.0-2.16","0fe03e9b-3bb0-4368-b749-8e9e3d5c49d2","null","<p style=""text-align: center;"">+</p>","null","fixation","","","","","","","","","","","","","","","","","","","","","","",""
"","","","","","html-slider-response","67","1222524","0.0-17.0-0.17","0fe03e9b-3bb0-4368-b749-8e9e3d5c49d2","1000","
                  <p style=""text-align: center;"">₪39
                                                <br>60%</p>
                  <p id=""wtp"" style=""text-align:center; margin-top: 0px; margin-bottom: 0px; font-size: 40px"";>&ensp;</p>","-","viewing","0","15","9C,25B","","","","","","","","","","","","","","","","","","","",""
"","","","","","html-slider-response","68","1224177","0.0-17.0-1.17","0fe03e9b-3bb0-4368-b749-8e9e3d5c49d2","1652","
                  <p style=""text-align: center;"">₪39
                                                <br>60%</p>
                  <p id=""wtp"" style=""text-align:center; margin-top: 0px; margin-bottom: 0px; font-size: 40px"";>מוכנים לשלם: <span id=""c_p_y""></span></p>","21","evaluation","36","15","9C,25B","60","39","21","","","","","","","","","","","","","","","","",""
"","","","","","html-keyboard-response","69","1225630","0.0-17.0-2.17","0fe03e9b-3bb0-4368-b749-8e9e3d5c49d2","null","<p style=""text-align: center;"">+</p>","null","fixation","","","","","","","","","","","","","","","","","","","","","","",""
"","","","","","html-slider-response","70","1226643","0.0-17.0-0.18","0fe03e9b-3bb0-4368-b749-8e9e3d5c49d2","1000","
                  <p style=""text-align: center;"">₪64
                                                <br>50%</p>
                  <p id=""wtp"" style=""text-align:center; margin-top: 0px; margin-bottom: 0px; font-size: 40px"";>&ensp;</p>","-","viewing","0","25","1B,3B,4A","","","","","","","","","","","","","","","","","","","",""
"","","","","","html-slider-response","71","1228017","0.0-17.0-1.18","0fe03e9b-3bb0-4368-b749-8e9e3d5c49d2","1373","
                  <p style=""text-align: center;"">₪64
                                                <br>50%</p>
                  <p id=""wtp"" style=""text-align:center; margin-top: 0px; margin-bottom: 0px; font-size: 40px"";>מוכנים לשלם: <span id=""c_p_y""></span></p>","69","evaluation","16","25","1B,3B,4A","50","64","68","","","","","","","","","","","","","","","","",""
"","","","","","html-keyboard-response","72","1229498","0.0-17.0-2.18","0fe03e9b-3bb0-4368-b749-8e9e3d5c49d2","null","<p style=""text-align: center;"">+</p>","null","fixation","","","","","","","","","","","","","","","","","","","","","","",""
"","","","","","html-slider-response","73","1230499","0.0-17.0-0.19","0fe03e9b-3bb0-4368-b749-8e9e3d5c49d2","1000","
                  <p style=""text-align: center;"">₪79
                                                <br>40%</p>
                  <p id=""wtp"" style=""text-align:center; margin-top: 0px; margin-bottom: 0px; font-size: 40px"";>&ensp;</p>","-","viewing","0","30","9B","","","","","","","","","","","","","","","","","","","",""
"","","","","","html-slider-response","74","1232144","0.0-17.0-1.19","0fe03e9b-3bb0-4368-b749-8e9e3d5c49d2","1644","
                  <p style=""text-align: center;"">₪79
                                                <br>40%</p>
                  <p id=""wtp"" style=""text-align:center; margin-top: 0px; margin-bottom: 0px; font-size: 40px"";>מוכנים לשלם: <span id=""c_p_y""></span></p>","80","evaluation","59","30","9B","40","79","80","","","","","","","","","","","","","","","","",""
"","","","","","html-keyboard-response","75","1233446","0.0-17.0-2.19","0fe03e9b-3bb0-4368-b749-8e9e3d5c49d2","null","<p style=""text-align: center;"">+</p>","null","fixation","","","","","","","","","","","","","","","","","","","","","","",""
"","","","","","html-slider-response","76","1234449","0.0-17.0-0.20","0fe03e9b-3bb0-4368-b749-8e9e3d5c49d2","1000","
                  <p style=""text-align: center;"">₪18
                                                <br>25%</p>
                  <p id=""wtp"" style=""text-align:center; margin-top: 0px; margin-bottom: 0px; font-size: 40px"";>&ensp;</p>","-","viewing","0","9","14A,23A","","","","","","","","","","","","","","","","","","","",""
"","","","","","html-slider-response","77","1235561","0.0-17.0-1.20","0fe03e9b-3bb0-4368-b749-8e9e3d5c49d2","1111","
                  <p style=""text-align: center;"">₪18
                                                <br>25%</p>
                  <p id=""wtp"" style=""text-align:center; margin-top: 0px; margin-bottom: 0px; font-size: 40px"";>מוכנים לשלם: <span id=""c_p_y""></span></p>","0","evaluation","40","9","14A,23A","25","18","0","","","","","","","","","","","","","","","","",""
"","","","","","html-keyboard-response","78","1236601","0.0-17.0-2.20","0fe03e9b-3bb0-4368-b749-8e9e3d5c49d2","null","<p style=""text-align: center;"">+</p>","null","fixation","","","","","","","","","","","","","","","","","","","","","","",""
"","","","","","html-slider-response","79","1237604","0.0-17.0-0.21","0fe03e9b-3bb0-4368-b749-8e9e3d5c49d2","1000","
                  <p style=""text-align: center;"">₪36
                                                <br>30%</p>
                  <p id=""wtp"" style=""text-align:center; margin-top: 0px; margin-bottom: 0px; font-size: 40px"";>&ensp;</p>","-","viewing","0","11","3C,20A,22A","","","","","","","","","","","","","","","","","","","",""
"","","","","","html-slider-response","80","1239120","0.0-17.0-1.21","0fe03e9b-3bb0-4368-b749-8e9e3d5c49d2","1516","
                  <p style=""text-align: center;"">₪36
                                                <br>30%</p>
                  <p id=""wtp"" style=""text-align:center; margin-top: 0px; margin-bottom: 0px; font-size: 40px"";>מוכנים לשלם: <span id=""c_p_y""></span></p>","0","evaluation","69","11","3C,20A,22A","30","36","0","","","","","","","","","","","","","","","","",""
"","","","","","html-keyboard-response","81","1240401","0.0-17.0-2.21","0fe03e9b-3bb0-4368-b749-8e9e3d5c49d2","null","<p style=""text-align: center;"">+</p>","null","fixation","","","","","","","","","","","","","","","","","","","","","","",""
"","","","","","html-slider-response","82","1241403","0.0-17.0-0.22","0fe03e9b-3bb0-4368-b749-8e9e3d5c49d2","1000","
                  <p style=""text-align: center;"">₪71
                                                <br>75%</p>
                  <p id=""wtp"" style=""text-align:center; margin-top: 0px; margin-bottom: 0px; font-size: 40px"";>&ensp;</p>","-","viewing","0","28","8B","","","","","","","","","","","","","","","","","","","",""
"","","","","","html-slider-response","83","1242289","0.0-17.0-1.22","0fe03e9b-3bb0-4368-b749-8e9e3d5c49d2","885","
                  <p style=""text-align: center;"">₪71
                                                <br>75%</p>
                  <p id=""wtp"" style=""text-align:center; margin-top: 0px; margin-bottom: 0px; font-size: 40px"";>מוכנים לשלם: <span id=""c_p_y""></span></p>","80","evaluation","80","28","8B","75","71","80","","","","","","","","","","","","","","","","",""
"","","","","","html-keyboard-response","84","1243747","0.0-17.0-2.22","0fe03e9b-3bb0-4368-b749-8e9e3d5c49d2","null","<p style=""text-align: center;"">+</p>","null","fixation","","","","","","","","","","","","","","","","","","","","","","",""
"","","","","","html-slider-response","85","1244749","0.0-17.0-0.23","0fe03e9b-3bb0-4368-b749-8e9e3d5c49d2","1000","
                  <p style=""text-align: center;"">₪4
                                                <br>50%</p>
                  <p id=""wtp"" style=""text-align:center; margin-top: 0px; margin-bottom: 0px; font-size: 40px"";>&ensp;</p>","-","viewing","0","2","4C,17B","","","","","","","","","","","","","","","","","","","",""
"","","","","","html-slider-response","86","1245945","0.0-17.0-1.23","0fe03e9b-3bb0-4368-b749-8e9e3d5c49d2","1196","
                  <p style=""text-align: center;"">₪4
                                                <br>50%</p>
                  <p id=""wtp"" style=""text-align:center; margin-top: 0px; margin-bottom: 0px; font-size: 40px"";>מוכנים לשלם: <span id=""c_p_y""></span></p>","0","evaluation","64","2","4C,17B","50","4","0","","","","","","","","","","","","","","","","",""
"","","","","","html-keyboard-response","87","1247105","0.0-17.0-2.23","0fe03e9b-3bb0-4368-b749-8e9e3d5c49d2","null","<p style=""text-align: center;"">+</p>","null","fixation","","","","","","","","","","","","","","","","","","","","","","",""
"","","","","","html-slider-response","88","1248112","0.0-17.0-0.24","0fe03e9b-3bb0-4368-b749-8e9e3d5c49d2","1000","
                  <p style=""text-align: center;"">₪11
                                                <br>20%</p>
                  <p id=""wtp"" style=""text-align:center; margin-top: 0px; margin-bottom: 0px; font-size: 40px"";>&ensp;</p>","-","viewing","0","4","12C,17C,23C,28C","","","","","","","","","","","","","","","","","","","",""
"","","","","","html-slider-response","89","1249457","0.0-17.0-1.24","0fe03e9b-3bb0-4368-b749-8e9e3d5c49d2","1343","
                  <p style=""text-align: center;"">₪11
                                                <br>20%</p>
                  <p id=""wtp"" style=""text-align:center; margin-top: 0px; margin-bottom: 0px; font-size: 40px"";>מוכנים לשלם: <span id=""c_p_y""></span></p>","0","evaluation","52","4","12C,17C,23C,28C","20","11","0","","","","","","","","","","","","","","","","",""
"","","","","","html-keyboard-response","90","1249968","0.0-17.0-2.24","0fe03e9b-3bb0-4368-b749-8e9e3d5c49d2","null","<p style=""text-align: center;"">+</p>","null","fixation","","","","","","","","","","","","","","","","","","","","","","",""
"","","","","","html-slider-response","91","1250969","0.0-17.0-0.25","0fe03e9b-3bb0-4368-b749-8e9e3d5c49d2","1000","
                  <p style=""text-align: center;"">₪71
                                                <br>55%</p>
                  <p id=""wtp"" style=""text-align:center; margin-top: 0px; margin-bottom: 0px; font-size: 40px"";>&ensp;</p>","-","viewing","0","27","5B,18A","","","","","","","","","","","","","","","","","","","",""
"","","","","","html-slider-response","92","1252249","0.0-17.0-1.25","0fe03e9b-3bb0-4368-b749-8e9e3d5c49d2","1279","
                  <p style=""text-align: center;"">₪71
                                                <br>55%</p>
                  <p id=""wtp"" style=""text-align:center; margin-top: 0px; margin-bottom: 0px; font-size: 40px"";>מוכנים לשלם: <span id=""c_p_y""></span></p>","80","evaluation","49","27","5B,18A","55","71","80","","","","","","","","","","","","","","","","",""
"","","","","","html-keyboard-response","93","1253108","0.0-17.0-2.25","0fe03e9b-3bb0-4368-b749-8e9e3d5c49d2","null","<p style=""text-align: center;"">+</p>","null","fixation","","","","","","","","","","","","","","","","","","","","","","",""
"","","","","","html-slider-response","94","1254110","0.0-17.0-0.26","0fe03e9b-3bb0-4368-b749-8e9e3d5c49d2","1000","
                  <p style=""text-align: center;"">₪43
                                                <br>60%</p>
                  <p id=""wtp"" style=""text-align:center; margin-top: 0px; margin-bottom: 0px; font-size: 40px"";>&ensp;</p>","-","viewing","0","17","2A,7A,9A,15B","","","","","","","","","","","","","","","","","","","",""
"","","","","","html-slider-response","95","1254977","0.0-17.0-1.26","0fe03e9b-3bb0-4368-b749-8e9e3d5c49d2","866","
                  <p style=""text-align: center;"">₪43
                                                <br>60%</p>
                  <p id=""wtp"" style=""text-align:center; margin-top: 0px; margin-bottom: 0px; font-size: 40px"";>מוכנים לשלם: <span id=""c_p_y""></span></p>","39","evaluation","46","17","2A,7A,9A,15B","60","43","39","","","","","","","","","","","","","","","","",""
"","","","","","html-keyboard-response","96","1255708","0.0-17.0-2.26","0fe03e9b-3bb0-4368-b749-8e9e3d5c49d2","null","<p style=""text-align: center;"">+</p>","null","fixation","","","","","","","","","","","","","","","","","","","","","","",""
"","","","","","html-slider-response","97","1256711","0.0-17.0-0.27","0fe03e9b-3bb0-4368-b749-8e9e3d5c49d2","1000","
                  <p style=""text-align: center;"">₪11
                                                <br>75%</p>
                  <p id=""wtp"" style=""text-align:center; margin-top: 0px; margin-bottom: 0px; font-size: 40px"";>&ensp;</p>","-","viewing","0","7","6B,18B,22C,24C,29A","","","","","","","","","","","","","","","","","","","",""
"","","","","","html-slider-response","98","1258441","0.0-17.0-1.27","0fe03e9b-3bb0-4368-b749-8e9e3d5c49d2","1730","
                  <p style=""text-align: center;"">₪11
                                                <br>75%</p>
                  <p id=""wtp"" style=""text-align:center; margin-top: 0px; margin-bottom: 0px; font-size: 40px"";>מוכנים לשלם: <span id=""c_p_y""></span></p>","0","evaluation","56","7","6B,18B,22C,24C,29A","75","11","0","","","","","","","","","","","","","","","","",""
"","","","","","html-keyboard-response","99","1259694","0.0-17.0-2.27","0fe03e9b-3bb0-4368-b749-8e9e3d5c49d2","null","<p style=""text-align: center;"">+</p>","null","fixation","","","","","","","","","","","","","","","","","","","","","","",""
"","","","","","html-slider-response","100","1260695","0.0-17.0-0.28","0fe03e9b-3bb0-4368-b749-8e9e3d5c49d2","1000","
                  <p style=""text-align: center;"">₪11
                                                <br>25%</p>
                  <p id=""wtp"" style=""text-align:center; margin-top: 0px; margin-bottom: 0px; font-size: 40px"";>&ensp;</p>","-","viewing","0","5","12A,27B,28B,30B","","","","","","","","","","","","","","","","","","","",""
"","","","","","html-slider-response","101","1261824","0.0-17.0-1.28","0fe03e9b-3bb0-4368-b749-8e9e3d5c49d2","1128","
                  <p style=""text-align: center;"">₪11
                                                <br>25%</p>
                  <p id=""wtp"" style=""text-align:center; margin-top: 0px; margin-bottom: 0px; font-size: 40px"";>מוכנים לשלם: <span id=""c_p_y""></span></p>","0","evaluation","28","5","12A,27B,28B,30B","25","11","0","","","","","","","","","","","","","","","","",""
"","","","","","html-keyboard-response","102","1262704","0.0-17.0-2.28","0fe03e9b-3bb0-4368-b749-8e9e3d5c49d2","null","<p style=""text-align: center;"">+</p>","null","fixation","","","","","","","","","","","","","","","","","","","","","","",""
"","","","","","html-slider-response","103","1263711","0.0-17.0-0.29","0fe03e9b-3bb0-4368-b749-8e9e3d5c49d2","1000","
                  <p style=""text-align: center;"">₪4
                                                <br>25%</p>
                  <p id=""wtp"" style=""text-align:center; margin-top: 0px; margin-bottom: 0px; font-size: 40px"";>&ensp;</p>","-","viewing","0","1","6C,29B,30C","","","","","","","","","","","","","","","","","","","",""
"","","","","","html-slider-response","104","1265713","0.0-17.0-1.29","0fe03e9b-3bb0-4368-b749-8e9e3d5c49d2","2000","
                  <p style=""text-align: center;"">₪4
                                                <br>25%</p>
                  <p id=""wtp"" style=""text-align:center; margin-top: 0px; margin-bottom: 0px; font-size: 40px"";>מוכנים לשלם: <span id=""c_p_y""></span></p>","0","evaluation","66","1","6C,29B,30C","25","4","0","","","","","","","","","","","","","","","","",""
"","","","","","html-keyboard-response","105","1266422","0.0-17.0-2.29","0fe03e9b-3bb0-4368-b749-8e9e3d5c49d2","null","<p style=""text-align: center;"">+</p>","null","fixation","","","","","","","","","","","","","","","","","","","","","","",""
"","","","","","html-slider-response","106","1267425","0.0-17.0-0.30","0fe03e9b-3bb0-4368-b749-8e9e3d5c49d2","1000","
                  <p style=""text-align: center;"">₪11
                                                <br>45%</p>
                  <p id=""wtp"" style=""text-align:center; margin-top: 0px; margin-bottom: 0px; font-size: 40px"";>&ensp;</p>","-","viewing","0","6","14B,21C,25C","","","","","","","","","","","","","","","","","","","",""
"","","","","","html-slider-response","107","1269041","0.0-17.0-1.30","0fe03e9b-3bb0-4368-b749-8e9e3d5c49d2","1615","
                  <p style=""text-align: center;"">₪11
                                                <br>45%</p>
                  <p id=""wtp"" style=""text-align:center; margin-top: 0px; margin-bottom: 0px; font-size: 40px"";>מוכנים לשלם: <span id=""c_p_y""></span></p>","0","evaluation","6","6","14B,21C,25C","45","11","0","","","","","","","","","","","","","","","","",""
"","","","","","html-keyboard-response","108","1269804","0.0-17.0-2.30","0fe03e9b-3bb0-4368-b749-8e9e3d5c49d2","null","<p style=""text-align: center;"">+</p>","null","fixation","","","","","","","","","","","","","","","","","","","","","","",""
"","","","","","html-keyboard-response","109","1270807","0.0-18.0","0fe03e9b-3bb0-4368-b749-8e9e3d5c49d2","null","<p style=""text-align: center;"">+</p>","null","fixation","","","","","","","","","","","","","","","","","","","","","","",""
"","","","","","html-keyboard-response","110","1273833","0.0-19.0","0fe03e9b-3bb0-4368-b749-8e9e3d5c49d2","null","<p>הפסקה.
          <br>לחצו כדי להמשיך.</p>","1","scan_wait","","","","","","","","","","","","","","","","","","","","","","",""
"","","","","","html-keyboard-response","111","1274842","0.0-20.0","0fe03e9b-3bb0-4368-b749-8e9e3d5c49d2","null","<p style=""text-align: center;"">+</p>","null","fixation","","","","","","","","","","","","","","","","","","","","","","",""
"","","","","","html-slider-response","112","1275857","0.0-21.0-0.0","0fe03e9b-3bb0-4368-b749-8e9e3d5c49d2","1000","
                  <p style=""text-align: center;"">₪36
                                                <br>60%</p>
                  <p id=""wtp"" style=""text-align:center; margin-top: 0px; margin-bottom: 0px; font-size: 40px"";>&ensp;</p>","-","viewing","0","12","1C,7C,15C","","","","","","","","","","","","","","","","","","","",""
"","","","","","html-slider-response","113","1276953","0.0-21.0-1.0","0fe03e9b-3bb0-4368-b749-8e9e3d5c49d2","1095","
                  <p style=""text-align: center;"">₪36
                                                <br>60%</p>
                  <p id=""wtp"" style=""text-align:center; margin-top: 0px; margin-bottom: 0px; font-size: 40px"";>מוכנים לשלם: <span id=""c_p_y""></span></p>","13","evaluation","73","12","1C,7C,15C","60","36","13","","","","","","","","","","","","","","","","",""
"","","","","","html-keyboard-response","114","1277806","0.0-21.0-2.0","0fe03e9b-3bb0-4368-b749-8e9e3d5c49d2","null","<p style=""text-align: center;"">+</p>","null","fixation","","","","","","","","","","","","","","","","","","","","","","",""
"","","","","","html-slider-response","115","1278807","0.0-21.0-0.1","0fe03e9b-3bb0-4368-b749-8e9e3d5c49d2","1000","
                  <p style=""text-align: center;"">₪71
                                                <br>75%</p>
                  <p id=""wtp"" style=""text-align:center; margin-top: 0px; margin-bottom: 0px; font-size: 40px"";>&ensp;</p>","-","viewing","0","28","8B","","","","","","","","","","","","","","","","","","","",""
"","","","","","html-slider-response","116","1279881","0.0-21.0-1.1","0fe03e9b-3bb0-4368-b749-8e9e3d5c49d2","1073","
                  <p style=""text-align: center;"">₪71
                                                <br>75%</p>
                  <p id=""wtp"" style=""text-align:center; margin-top: 0px; margin-bottom: 0px; font-size: 40px"";>מוכנים לשלם: <span id=""c_p_y""></span></p>","80","evaluation","36","28","8B","75","71","80","","","","","","","","","","","","","","","","",""
"","","","","","html-keyboard-response","117","1280756","0.0-21.0-2.1","0fe03e9b-3bb0-4368-b749-8e9e3d5c49d2","null","<p style=""text-align: center;"">+</p>","null","fixation","","","","","","","","","","","","","","","","","","","","","","",""
"","","","","","html-slider-response","118","1281764","0.0-21.0-0.2","0fe03e9b-3bb0-4368-b749-8e9e3d5c49d2","1000","
                  <p style=""text-align: center;"">₪64
                                                <br>50%</p>
                  <p id=""wtp"" style=""text-align:center; margin-top: 0px; margin-bottom: 0px; font-size: 40px"";>&ensp;</p>","-","viewing","0","25","1B,3B,4A","","","","","","","","","","","","","","","","","","","",""
"","","","","","html-slider-response","119","1282697","0.0-21.0-1.2","0fe03e9b-3bb0-4368-b749-8e9e3d5c49d2","931","
                  <p style=""text-align: center;"">₪64
                                                <br>50%</p>
                  <p id=""wtp"" style=""text-align:center; margin-top: 0px; margin-bottom: 0px; font-size: 40px"";>מוכנים לשלם: <span id=""c_p_y""></span></p>","80","evaluation","58","25","1B,3B,4A","50","64","80","","","","","","","","","","","","","","","","",""
"","","","","","html-keyboard-response","120","1283343","0.0-21.0-2.2","0fe03e9b-3bb0-4368-b749-8e9e3d5c49d2","null","<p style=""text-align: center;"">+</p>","null","fixation","","","","","","","","","","","","","","","","","","","","","","",""
"","","","","","html-slider-response","121","1284352","0.0-21.0-0.3","0fe03e9b-3bb0-4368-b749-8e9e3d5c49d2","1000","
                  <p style=""text-align: center;"">₪43
                                                <br>60%</p>
                  <p id=""wtp"" style=""text-align:center; margin-top: 0px; margin-bottom: 0px; font-size: 40px"";>&ensp;</p>","-","viewing","0","17","2A,7A,9A,15B","","","","","","","","","","","","","","","","","","","",""
"","","","","","html-slider-response","122","1286241","0.0-21.0-1.3","0fe03e9b-3bb0-4368-b749-8e9e3d5c49d2","1888","
                  <p style=""text-align: center;"">₪43
                                                <br>60%</p>
                  <p id=""wtp"" style=""text-align:center; margin-top: 0px; margin-bottom: 0px; font-size: 40px"";>מוכנים לשלם: <span id=""c_p_y""></span></p>","40","evaluation","8","17","2A,7A,9A,15B","60","43","40","","","","","","","","","","","","","","","","",""
"","","","","","html-keyboard-response","123","1286863","0.0-21.0-2.3","0fe03e9b-3bb0-4368-b749-8e9e3d5c49d2","null","<p style=""text-align: center;"">+</p>","null","fixation","","","","","","","","","","","","","","","","","","","","","","",""
"","","","","","html-slider-response","124","1287868","0.0-21.0-0.4","0fe03e9b-3bb0-4368-b749-8e9e3d5c49d2","1000","
                  <p style=""text-align: center;"">₪76
                                                <br>65%</p>
                  <p id=""wtp"" style=""text-align:center; margin-top: 0px; margin-bottom: 0px; font-size: 40px"";>&ensp;</p>","-","viewing","0","29","8C,19A,24B","","","","","","","","","","","","","","","","","","","",""
"","","","","","html-slider-response","125","1288841","0.0-21.0-1.4","0fe03e9b-3bb0-4368-b749-8e9e3d5c49d2","972","
                  <p style=""text-align: center;"">₪76
                                                <br>65%</p>
                  <p id=""wtp"" style=""text-align:center; margin-top: 0px; margin-bottom: 0px; font-size: 40px"";>מוכנים לשלם: <span id=""c_p_y""></span></p>","80","evaluation","23","29","8C,19A,24B","65","76","80","","","","","","","","","","","","","","","","",""
"","","","","","html-keyboard-response","126","1289857","0.0-21.0-2.4","0fe03e9b-3bb0-4368-b749-8e9e3d5c49d2","null","<p style=""text-align: center;"">+</p>","null","fixation","","","","","","","","","","","","","","","","","","","","","","",""
"","","","","","html-slider-response","127","1290860","0.0-21.0-0.5","0fe03e9b-3bb0-4368-b749-8e9e3d5c49d2","1000","
                  <p style=""text-align: center;"">₪11
                                                <br>75%</p>
                  <p id=""wtp"" style=""text-align:center; margin-top: 0px; margin-bottom: 0px; font-size: 40px"";>&ensp;</p>","-","viewing","0","7","6B,18B,22C,24C,29A","","","","","","","","","","","","","","","","","","","",""
"","","","","","html-slider-response","128","1292313","0.0-21.0-1.5","0fe03e9b-3bb0-4368-b749-8e9e3d5c49d2","1452","
                  <p style=""text-align: center;"">₪11
                                                <br>75%</p>
                  <p id=""wtp"" style=""text-align:center; margin-top: 0px; margin-bottom: 0px; font-size: 40px"";>מוכנים לשלם: <span id=""c_p_y""></span></p>","11","evaluation","43","7","6B,18B,22C,24C,29A","75","11","11","","","","","","","","","","","","","","","","",""
"","","","","","html-keyboard-response","129","1293530","0.0-21.0-2.5","0fe03e9b-3bb0-4368-b749-8e9e3d5c49d2","null","<p style=""text-align: center;"">+</p>","null","fixation","","","","","","","","","","","","","","","","","","","","","","",""
"","","","","","html-slider-response","130","1294545","0.0-21.0-0.6","0fe03e9b-3bb0-4368-b749-8e9e3d5c49d2","1000","
                  <p style=""text-align: center;"">₪43
                                                <br>75%</p>
                  <p id=""wtp"" style=""text-align:center; margin-top: 0px; margin-bottom: 0px; font-size: 40px"";>&ensp;</p>","-","viewing","0","18","11B,19B,24A,26A","","","","","","","","","","","","","","","","","","","",""
"","","","","","html-slider-response","131","1296441","0.0-21.0-1.6","0fe03e9b-3bb0-4368-b749-8e9e3d5c49d2","1896","
                  <p style=""text-align: center;"">₪43
                                                <br>75%</p>
                  <p id=""wtp"" style=""text-align:center; margin-top: 0px; margin-bottom: 0px; font-size: 40px"";>מוכנים לשלם: <span id=""c_p_y""></span></p>","40","evaluation","1","18","11B,19B,24A,26A","75","43","40","","","","","","","","","","","","","","","","",""
"","","","","","html-keyboard-response","132","1297725","0.0-21.0-2.6","0fe03e9b-3bb0-4368-b749-8e9e3d5c49d2","null","<p style=""text-align: center;"">+</p>","null","fixation","","","","","","","","","","","","","","","","","","","","","","",""
"","","","","","html-slider-response","133","1298732","0.0-21.0-0.7","0fe03e9b-3bb0-4368-b749-8e9e3d5c49d2","1000","
                  <p style=""text-align: center;"">₪39
                                                <br>60%</p>
                  <p id=""wtp"" style=""text-align:center; margin-top: 0px; margin-bottom: 0px; font-size: 40px"";>&ensp;</p>","-","viewing","0","15","9C,25B","","","","","","","","","","","","","","","","","","","",""
"","","","","","html-slider-response","134","1300665","0.0-21.0-1.7","0fe03e9b-3bb0-4368-b749-8e9e3d5c49d2","1931","
                  <p style=""text-align: center;"">₪39
                                                <br>60%</p>
                  <p id=""wtp"" style=""text-align:center; margin-top: 0px; margin-bottom: 0px; font-size: 40px"";>מוכנים לשלם: <span id=""c_p_y""></span></p>","20","evaluation","37","15","9C,25B","60","39","20","","","","","","","","","","","","","","","","",""
"","","","","","html-keyboard-response","135","1301940","0.0-21.0-2.7","0fe03e9b-3bb0-4368-b749-8e9e3d5c49d2","null","<p style=""text-align: center;"">+</p>","null","fixation","","","","","","","","","","","","","","","","","","","","","","",""
"","","","","","html-slider-response","136","1302953","0.0-21.0-0.8","0fe03e9b-3bb0-4368-b749-8e9e3d5c49d2","1000","
                  <p style=""text-align: center;"">₪58
                                                <br>30%</p>
                  <p id=""wtp"" style=""text-align:center; margin-top: 0px; margin-bottom: 0px; font-size: 40px"";>&ensp;</p>","-","viewing","0","19","13C,30A","","","","","","","","","","","","","","","","","","","",""
"","","","","","html-slider-response","137","1304481","0.0-21.0-1.8","0fe03e9b-3bb0-4368-b749-8e9e3d5c49d2","1527","
                  <p style=""text-align: center;"">₪58
                                                <br>30%</p>
                  <p id=""wtp"" style=""text-align:center; margin-top: 0px; margin-bottom: 0px; font-size: 40px"";>מוכנים לשלם: <span id=""c_p_y""></span></p>","68","evaluation","79","19","13C,30A","30","58","68","","","","","","","","","","","","","","","","",""
"","","","","","html-keyboard-response","138","1305895","0.0-21.0-2.8","0fe03e9b-3bb0-4368-b749-8e9e3d5c49d2","null","<p style=""text-align: center;"">+</p>","null","fixation","","","","","","","","","","","","","","","","","","","","","","",""
"","","","","","html-slider-response","139","1306898","0.0-21.0-0.9","0fe03e9b-3bb0-4368-b749-8e9e3d5c49d2","1000","
                  <p style=""text-align: center;"">₪61
                                                <br>45%</p>
                  <p id=""wtp"" style=""text-align:center; margin-top: 0px; margin-bottom: 0px; font-size: 40px"";>&ensp;</p>","-","viewing","0","22","10A,11A","","","","","","","","","","","","","","","","","","","",""
"","","","","","html-slider-response","140","1308113","0.0-21.0-1.9","0fe03e9b-3bb0-4368-b749-8e9e3d5c49d2","1214","
                  <p style=""text-align: center;"">₪61
                                                <br>45%</p>
                  <p id=""wtp"" style=""text-align:center; margin-top: 0px; margin-bottom: 0px; font-size: 40px"";>מוכנים לשלם: <span id=""c_p_y""></span></p>","42","evaluation","43","22","10A,11A","45","61","42","","","","","","","","","","","","","","","","",""
"","","","","","html-keyboard-response","141","1309017","0.0-21.0-2.9","0fe03e9b-3bb0-4368-b749-8e9e3d5c49d2","null","<p style=""text-align: center;"">+</p>","null","fixation","","","","","","","","","","","","","","","","","","","","","","",""
"","","","","","html-slider-response","142","1310027","0.0-21.0-0.10","0fe03e9b-3bb0-4368-b749-8e9e3d5c49d2","1000","
                  <p style=""text-align: center;"">₪4
                                                <br>50%</p>
                  <p id=""wtp"" style=""text-align:center; margin-top: 0px; margin-bottom: 0px; font-size: 40px"";>&ensp;</p>","-","viewing","0","2","4C,17B","","","","","","","","","","","","","","","","","","","",""
"","","","","","html-slider-response","143","1310977","0.0-21.0-1.10","0fe03e9b-3bb0-4368-b749-8e9e3d5c49d2","949","
                  <p style=""text-align: center;"">₪4
                                                <br>50%</p>
                  <p id=""wtp"" style=""text-align:center; margin-top: 0px; margin-bottom: 0px; font-size: 40px"";>מוכנים לשלם: <span id=""c_p_y""></span></p>","0","evaluation","65","2","4C,17B","50","4","0","","","","","","","","","","","","","","","","",""
"","","","","","html-keyboard-response","144","1312323","0.0-21.0-2.10","0fe03e9b-3bb0-4368-b749-8e9e3d5c49d2","null","<p style=""text-align: center;"">+</p>","null","fixation","","","","","","","","","","","","","","","","","","","","","","",""
"","","","","","html-slider-response","145","1313328","0.0-21.0-0.11","0fe03e9b-3bb0-4368-b749-8e9e3d5c49d2","1000","
                  <p style=""text-align: center;"">₪11
                                                <br>25%</p>
                  <p id=""wtp"" style=""text-align:center; margin-top: 0px; margin-bottom: 0px; font-size: 40px"";>&ensp;</p>","-","viewing","0","5","12A,27B,28B,30B","","","","","","","","","","","","","","","","","","","",""
"","","","","","html-slider-response","146","1314113","0.0-21.0-1.11","0fe03e9b-3bb0-4368-b749-8e9e3d5c49d2","783","
                  <p style=""text-align: center;"">₪11
                                                <br>25%</p>
                  <p id=""wtp"" style=""text-align:center; margin-top: 0px; margin-bottom: 0px; font-size: 40px"";>מוכנים לשלם: <span id=""c_p_y""></span></p>","0","evaluation","62","5","12A,27B,28B,30B","25","11","0","","","","","","","","","","","","","","","","",""
"","","","","","html-keyboard-response","147","1314694","0.0-21.0-2.11","0fe03e9b-3bb0-4368-b749-8e9e3d5c49d2","null","<p style=""text-align: center;"">+</p>","null","fixation","","","","","","","","","","","","","","","","","","","","","","",""
"","","","","","html-slider-response","148","1315701","0.0-21.0-0.12","0fe03e9b-3bb0-4368-b749-8e9e3d5c49d2","1000","
                  <p style=""text-align: center;"">₪61
                                                <br>55%</p>
                  <p id=""wtp"" style=""text-align:center; margin-top: 0px; margin-bottom: 0px; font-size: 40px"";>&ensp;</p>","-","viewing","0","23","7B,26B","","","","","","","","","","","","","","","","","","","",""
"","","","","","html-slider-response","149","1317417","0.0-21.0-1.12","0fe03e9b-3bb0-4368-b749-8e9e3d5c49d2","1715","
                  <p style=""text-align: center;"">₪61
                                                <br>55%</p>
                  <p id=""wtp"" style=""text-align:center; margin-top: 0px; margin-bottom: 0px; font-size: 40px"";>מוכנים לשלם: <span id=""c_p_y""></span></p>","60","evaluation","66","23","7B,26B","55","61","60","","","","","","","","","","","","","","","","",""
"","","","","","html-keyboard-response","150","1318774","0.0-21.0-2.12","0fe03e9b-3bb0-4368-b749-8e9e3d5c49d2","null","<p style=""text-align: center;"">+</p>","null","fixation","","","","","","","","","","","","","","","","","","","","","","",""
"","","","","","html-slider-response","151","1319776","0.0-21.0-0.13","0fe03e9b-3bb0-4368-b749-8e9e3d5c49d2","1000","
                  <p style=""text-align: center;"">₪11
                                                <br>45%</p>
                  <p id=""wtp"" style=""text-align:center; margin-top: 0px; margin-bottom: 0px; font-size: 40px"";>&ensp;</p>","-","viewing","0","6","14B,21C,25C","","","","","","","","","","","","","","","","","","","",""
"","","","","","html-slider-response","152","1321041","0.0-21.0-1.13","0fe03e9b-3bb0-4368-b749-8e9e3d5c49d2","1264","
                  <p style=""text-align: center;"">₪11
                                                <br>45%</p>
                  <p id=""wtp"" style=""text-align:center; margin-top: 0px; margin-bottom: 0px; font-size: 40px"";>מוכנים לשלם: <span id=""c_p_y""></span></p>","0","evaluation","72","6","14B,21C,25C","45","11","0","","","","","","","","","","","","","","","","",""
"","","","","","html-keyboard-response","153","1322181","0.0-21.0-2.13","0fe03e9b-3bb0-4368-b749-8e9e3d5c49d2","null","<p style=""text-align: center;"">+</p>","null","fixation","","","","","","","","","","","","","","","","","","","","","","",""
"","","","","","html-slider-response","154","1323190","0.0-21.0-0.14","0fe03e9b-3bb0-4368-b749-8e9e3d5c49d2","1000","
                  <p style=""text-align: center;"">₪71
                                                <br>45%</p>
                  <p id=""wtp"" style=""text-align:center; margin-top: 0px; margin-bottom: 0px; font-size: 40px"";>&ensp;</p>","-","viewing","0","26","2B,16A","","","","","","","","","","","","","","","","","","","",""
"","","","","","html-slider-response","155","1324481","0.0-21.0-1.14","0fe03e9b-3bb0-4368-b749-8e9e3d5c49d2","1290","
                  <p style=""text-align: center;"">₪71
                                                <br>45%</p>
                  <p id=""wtp"" style=""text-align:center; margin-top: 0px; margin-bottom: 0px; font-size: 40px"";>מוכנים לשלם: <span id=""c_p_y""></span></p>","80","evaluation","64","26","2B,16A","45","71","80","","","","","","","","","","","","","","","","",""
"","","","","","html-keyboard-response","156","1325055","0.0-21.0-2.14","0fe03e9b-3bb0-4368-b749-8e9e3d5c49d2","null","<p style=""text-align: center;"">+</p>","null","fixation","","","","","","","","","","","","","","","","","","","","","","",""
"","","","","","html-slider-response","157","1326056","0.0-21.0-0.15","0fe03e9b-3bb0-4368-b749-8e9e3d5c49d2","1000","
                  <p style=""text-align: center;"">₪4
                                                <br>75%</p>
                  <p id=""wtp"" style=""text-align:center; margin-top: 0px; margin-bottom: 0px; font-size: 40px"";>&ensp;</p>","-","viewing","0","3","12B,20B,23B,27C,29C","","","","","","","","","","","","","","","","","","","",""
"","","","","","html-slider-response","158","1327065","0.0-21.0-1.15","0fe03e9b-3bb0-4368-b749-8e9e3d5c49d2","1008","
                  <p style=""text-align: center;"">₪4
                                                <br>75%</p>
                  <p id=""wtp"" style=""text-align:center; margin-top: 0px; margin-bottom: 0px; font-size: 40px"";>מוכנים לשלם: <span id=""c_p_y""></span></p>","0","evaluation","18","3","12B,20B,23B,27C,29C","75","4","0","","","","","","","","","","","","","","","","",""
"","","","","","html-keyboard-response","159","1328250","0.0-21.0-2.15","0fe03e9b-3bb0-4368-b749-8e9e3d5c49d2","null","<p style=""text-align: center;"">+</p>","null","fixation","","","","","","","","","","","","","","","","","","","","","","",""
"","","","","","html-slider-response","160","1329251","0.0-21.0-0.16","0fe03e9b-3bb0-4368-b749-8e9e3d5c49d2","1000","
                  <p style=""text-align: center;"">₪79
                                                <br>65%</p>
                  <p id=""wtp"" style=""text-align:center; margin-top: 0px; margin-bottom: 0px; font-size: 40px"";>&ensp;</p>","-","viewing","0","31","8A","","","","","","","","","","","","","","","","","","","",""
"","","","","","html-slider-response","161","1330632","0.0-21.0-1.16","0fe03e9b-3bb0-4368-b749-8e9e3d5c49d2","1381","
                  <p style=""text-align: center;"">₪79
                                                <br>65%</p>
                  <p id=""wtp"" style=""text-align:center; margin-top: 0px; margin-bottom: 0px; font-size: 40px"";>מוכנים לשלם: <span id=""c_p_y""></span></p>","80","evaluation","73","31","8A","65","79","80","","","","","","","","","","","","","","","","",""
"","","","","","html-keyboard-response","162","1331783","0.0-21.0-2.16","0fe03e9b-3bb0-4368-b749-8e9e3d5c49d2","null","<p style=""text-align: center;"">+</p>","null","fixation","","","","","","","","","","","","","","","","","","","","","","",""
"","","","","","html-slider-response","163","1332800","0.0-21.0-0.17","0fe03e9b-3bb0-4368-b749-8e9e3d5c49d2","1000","
                  <p style=""text-align: center;"">₪79
                                                <br>40%</p>
                  <p id=""wtp"" style=""text-align:center; margin-top: 0px; margin-bottom: 0px; font-size: 40px"";>&ensp;</p>","-","viewing","0","30","9B","","","","","","","","","","","","","","","","","","","",""
"","","","","","html-slider-response","164","1333585","0.0-21.0-1.17","0fe03e9b-3bb0-4368-b749-8e9e3d5c49d2","784","
                  <p style=""text-align: center;"">₪79
                                                <br>40%</p>
                  <p id=""wtp"" style=""text-align:center; margin-top: 0px; margin-bottom: 0px; font-size: 40px"";>מוכנים לשלם: <span id=""c_p_y""></span></p>","80","evaluation","13","30","9B","40","79","80","","","","","","","","","","","","","","","","",""
"","","","","","html-keyboard-response","165","1334492","0.0-21.0-2.17","0fe03e9b-3bb0-4368-b749-8e9e3d5c49d2","null","<p style=""text-align: center;"">+</p>","null","fixation","","","","","","","","","","","","","","","","","","","","","","",""
"","","","","","html-slider-response","166","1335502","0.0-21.0-0.18","0fe03e9b-3bb0-4368-b749-8e9e3d5c49d2","1000","
                  <p style=""text-align: center;"">₪71
                                                <br>55%</p>
                  <p id=""wtp"" style=""text-align:center; margin-top: 0px; margin-bottom: 0px; font-size: 40px"";>&ensp;</p>","-","viewing","0","27","5B,18A","","","","","","","","","","","","","","","","","","","",""
"","","","","","html-slider-response","167","1336449","0.0-21.0-1.18","0fe03e9b-3bb0-4368-b749-8e9e3d5c49d2","946","
                  <p style=""text-align: center;"">₪71
                                                <br>55%</p>
                  <p id=""wtp"" style=""text-align:center; margin-top: 0px; margin-bottom: 0px; font-size: 40px"";>מוכנים לשלם: <span id=""c_p_y""></span></p>","80","evaluation","54","27","5B,18A","55","71","80","","","","","","","","","","","","","","","","",""
"","","","","","html-keyboard-response","168","1337095","0.0-21.0-2.18","0fe03e9b-3bb0-4368-b749-8e9e3d5c49d2","null","<p style=""text-align: center;"">+</p>","null","fixation","","","","","","","","","","","","","","","","","","","","","","",""
"","","","","","html-slider-response","169","1338105","0.0-21.0-0.19","0fe03e9b-3bb0-4368-b749-8e9e3d5c49d2","1000","
                  <p style=""text-align: center;"">₪18
                                                <br>25%</p>
                  <p id=""wtp"" style=""text-align:center; margin-top: 0px; margin-bottom: 0px; font-size: 40px"";>&ensp;</p>","-","viewing","0","9","14A,23A","","","","","","","","","","","","","","","","","","","",""
"","","","","","html-slider-response","170","1339977","0.0-21.0-1.19","0fe03e9b-3bb0-4368-b749-8e9e3d5c49d2","1872","
                  <p style=""text-align: center;"">₪18
                                                <br>25%</p>
                  <p id=""wtp"" style=""text-align:center; margin-top: 0px; margin-bottom: 0px; font-size: 40px"";>מוכנים לשלם: <span id=""c_p_y""></span></p>","3","evaluation","45","9","14A,23A","25","18","4","","","","","","","","","","","","","","","","",""
"","","","","","html-keyboard-response","171","1340788","0.0-21.0-2.19","0fe03e9b-3bb0-4368-b749-8e9e3d5c49d2","null","<p style=""text-align: center;"">+</p>","null","fixation","","","","","","","","","","","","","","","","","","","","","","",""
"","","","","","html-slider-response","172","1341793","0.0-21.0-0.20","0fe03e9b-3bb0-4368-b749-8e9e3d5c49d2","1000","
                  <p style=""text-align: center;"">₪18
                                                <br>50%</p>
                  <p id=""wtp"" style=""text-align:center; margin-top: 0px; margin-bottom: 0px; font-size: 40px"";>&ensp;</p>","-","viewing","0","10","2C,16C,22B,28A","","","","","","","","","","","","","","","","","","","",""
"","","","","","html-slider-response","173","1343969","0.0-21.0-1.20","0fe03e9b-3bb0-4368-b749-8e9e3d5c49d2","2175","
                  <p style=""text-align: center;"">₪18
                                                <br>50%</p>
                  <p id=""wtp"" style=""text-align:center; margin-top: 0px; margin-bottom: 0px; font-size: 40px"";>מוכנים לשלם: <span id=""c_p_y""></span></p>","9","evaluation","78","10","2C,16C,22B,28A","50","18","9","","","","","","","","","","","","","","","","",""
"","","","","","html-keyboard-response","174","1345416","0.0-21.0-2.20","0fe03e9b-3bb0-4368-b749-8e9e3d5c49d2","null","<p style=""text-align: center;"">+</p>","null","fixation","","","","","","","","","","","","","","","","","","","","","","",""
"","","","","","html-slider-response","175","1346430","0.0-21.0-0.21","0fe03e9b-3bb0-4368-b749-8e9e3d5c49d2","1000","
                  <p style=""text-align: center;"">₪36
                                                <br>30%</p>
                  <p id=""wtp"" style=""text-align:center; margin-top: 0px; margin-bottom: 0px; font-size: 40px"";>&ensp;</p>","-","viewing","0","11","3C,20A,22A","","","","","","","","","","","","","","","","","","","",""
"","","","","","html-slider-response","176","1348593","0.0-21.0-1.21","0fe03e9b-3bb0-4368-b749-8e9e3d5c49d2","2161","
                  <p style=""text-align: center;"">₪36
                                                <br>30%</p>
                  <p id=""wtp"" style=""text-align:center; margin-top: 0px; margin-bottom: 0px; font-size: 40px"";>מוכנים לשלם: <span id=""c_p_y""></span></p>","21","evaluation","67","11","3C,20A,22A","30","36","21","","","","","","","","","","","","","","","","",""
"","","","","","html-keyboard-response","177","1349954","0.0-21.0-2.21","0fe03e9b-3bb0-4368-b749-8e9e3d5c49d2","null","<p style=""text-align: center;"">+</p>","null","fixation","","","","","","","","","","","","","","","","","","","","","","",""
"","","","","","html-slider-response","178","1350967","0.0-21.0-0.22","0fe03e9b-3bb0-4368-b749-8e9e3d5c49d2","1000","
                  <p style=""text-align: center;"">₪16
                                                <br>20%</p>
                  <p id=""wtp"" style=""text-align:center; margin-top: 0px; margin-bottom: 0px; font-size: 40px"";>&ensp;</p>","-","viewing","0","8","14C,17A,20C,27A","","","","","","","","","","","","","","","","","","","",""
"","","","","","html-slider-response","179","1353025","0.0-21.0-1.22","0fe03e9b-3bb0-4368-b749-8e9e3d5c49d2","2057","
                  <p style=""text-align: center;"">₪16
                                                <br>20%</p>
                  <p id=""wtp"" style=""text-align:center; margin-top: 0px; margin-bottom: 0px; font-size: 40px"";>מוכנים לשלם: <span id=""c_p_y""></span></p>","15","evaluation","30","8","14C,17A,20C,27A","20","16","15","","","","","","","","","","","","","","","","",""
"","","","","","html-keyboard-response","180","1354225","0.0-21.0-2.22","0fe03e9b-3bb0-4368-b749-8e9e3d5c49d2","null","<p style=""text-align: center;"">+</p>","null","fixation","","","","","","","","","","","","","","","","","","","","","","",""
"","","","","","html-slider-response","181","1355239","0.0-21.0-0.23","0fe03e9b-3bb0-4368-b749-8e9e3d5c49d2","1000","
                  <p style=""text-align: center;"">₪4
                                                <br>25%</p>
                  <p id=""wtp"" style=""text-align:center; margin-top: 0px; margin-bottom: 0px; font-size: 40px"";>&ensp;</p>","-","viewing","0","1","6C,29B,30C","","","","","","","","","","","","","","","","","","","",""
"","","","","","html-slider-response","182","1356257","0.0-21.0-1.23","0fe03e9b-3bb0-4368-b749-8e9e3d5c49d2","1017","
                  <p style=""text-align: center;"">₪4
                                                <br>25%</p>
                  <p id=""wtp"" style=""text-align:center; margin-top: 0px; margin-bottom: 0px; font-size: 40px"";>מוכנים לשלם: <span id=""c_p_y""></span></p>","0","evaluation","70","1","6C,29B,30C","25","4","0","","","","","","","","","","","","","","","","",""
"","","","","","html-keyboard-response","183","1357118","0.0-21.0-2.23","0fe03e9b-3bb0-4368-b749-8e9e3d5c49d2","null","<p style=""text-align: center;"">+</p>","null","fixation","","","","","","","","","","","","","","","","","","","","","","",""
"","","","","","html-slider-response","184","1358126","0.0-21.0-0.24","0fe03e9b-3bb0-4368-b749-8e9e3d5c49d2","1000","
                  <p style=""text-align: center;"">₪58
                                                <br>45%</p>
                  <p id=""wtp"" style=""text-align:center; margin-top: 0px; margin-bottom: 0px; font-size: 40px"";>&ensp;</p>","-","viewing","0","21","11C,18C,25A","","","","","","","","","","","","","","","","","","","",""
"","","","","","html-slider-response","185","1360097","0.0-21.0-1.24","0fe03e9b-3bb0-4368-b749-8e9e3d5c49d2","1970","
                  <p style=""text-align: center;"">₪58
                                                <br>45%</p>
                  <p id=""wtp"" style=""text-align:center; margin-top: 0px; margin-bottom: 0px; font-size: 40px"";>מוכנים לשלם: <span id=""c_p_y""></span></p>","59","evaluation","40","21","11C,18C,25A","45","58","58","","","","","","","","","","","","","","","","",""
"","","","","","html-keyboard-response","186","1361283","0.0-21.0-2.24","0fe03e9b-3bb0-4368-b749-8e9e3d5c49d2","null","<p style=""text-align: center;"">+</p>","null","fixation","","","","","","","","","","","","","","","","","","","","","","",""
"","","","","","html-slider-response","187","1362295","0.0-21.0-0.25","0fe03e9b-3bb0-4368-b749-8e9e3d5c49d2","1000","
                  <p style=""text-align: center;"">₪64
                                                <br>25%</p>
                  <p id=""wtp"" style=""text-align:center; margin-top: 0px; margin-bottom: 0px; font-size: 40px"";>&ensp;</p>","-","viewing","0","24","6A,21A","","","","","","","","","","","","","","","","","","","",""
"","","","","","html-slider-response","188","1364377","0.0-21.0-1.25","0fe03e9b-3bb0-4368-b749-8e9e3d5c49d2","2080","
                  <p style=""text-align: center;"">₪64
                                                <br>25%</p>
                  <p id=""wtp"" style=""text-align:center; margin-top: 0px; margin-bottom: 0px; font-size: 40px"";>מוכנים לשלם: <span id=""c_p_y""></span></p>","66","evaluation","75","24","6A,21A","25","64","65","","","","","","","","","","","","","","","","",""
"","","","","","html-keyboard-response","189","1365322","0.0-21.0-2.25","0fe03e9b-3bb0-4368-b749-8e9e3d5c49d2","null","<p style=""text-align: center;"">+</p>","null","fixation","","","","","","","","","","","","","","","","","","","","","","",""
"","","","","","html-slider-response","190","1366324","0.0-21.0-0.26","0fe03e9b-3bb0-4368-b749-8e9e3d5c49d2","1000","
                  <p style=""text-align: center;"">₪58
                                                <br>40%</p>
                  <p id=""wtp"" style=""text-align:center; margin-top: 0px; margin-bottom: 0px; font-size: 40px"";>&ensp;</p>","-","viewing","0","20","10C,13A,19C,21B","","","","","","","","","","","","","","","","","","","",""
"","","","","","html-slider-response","191","1367945","0.0-21.0-1.26","0fe03e9b-3bb0-4368-b749-8e9e3d5c49d2","1620","
                  <p style=""text-align: center;"">₪58
                                                <br>40%</p>
                  <p id=""wtp"" style=""text-align:center; margin-top: 0px; margin-bottom: 0px; font-size: 40px"";>מוכנים לשלם: <span id=""c_p_y""></span></p>","60","evaluation","39","20","10C,13A,19C,21B","40","58","60","","","","","","","","","","","","","","","","",""
"","","","","","html-keyboard-response","192","1369187","0.0-21.0-2.26","0fe03e9b-3bb0-4368-b749-8e9e3d5c49d2","null","<p style=""text-align: center;"">+</p>","null","fixation","","","","","","","","","","","","","","","","","","","","","","",""
"","","","","","html-slider-response","193","1370203","0.0-21.0-0.27","0fe03e9b-3bb0-4368-b749-8e9e3d5c49d2","1000","
                  <p style=""text-align: center;"">₪36
                                                <br>75%</p>
                  <p id=""wtp"" style=""text-align:center; margin-top: 0px; margin-bottom: 0px; font-size: 40px"";>&ensp;</p>","-","viewing","0","14","4B,5A,13B,16B","","","","","","","","","","","","","","","","","","","",""
"","","","","","html-slider-response","194","1372385","0.0-21.0-1.27","0fe03e9b-3bb0-4368-b749-8e9e3d5c49d2","2180","
                  <p style=""text-align: center;"">₪36
                                                <br>75%</p>
                  <p id=""wtp"" style=""text-align:center; margin-top: 0px; margin-bottom: 0px; font-size: 40px"";>מוכנים לשלם: <span id=""c_p_y""></span></p>","0","evaluation","13","14","4B,5A,13B,16B","75","36","0","","","","","","","","","","","","","","","","",""
"","","","","","html-keyboard-response","195","1373326","0.0-21.0-2.27","0fe03e9b-3bb0-4368-b749-8e9e3d5c49d2","null","<p style=""text-align: center;"">+</p>","null","fixation","","","","","","","","","","","","","","","","","","","","","","",""
"","","","","","html-slider-response","196","1374330","0.0-21.0-0.28","0fe03e9b-3bb0-4368-b749-8e9e3d5c49d2","1000","
                  <p style=""text-align: center;"">₪11
                                                <br>20%</p>
                  <p id=""wtp"" style=""text-align:center; margin-top: 0px; margin-bottom: 0px; font-size: 40px"";>&ensp;</p>","-","viewing","0","4","12C,17C,23C,28C","","","","","","","","","","","","","","","","","","","",""
"","","","","","html-slider-response","197","1375457","0.0-21.0-1.28","0fe03e9b-3bb0-4368-b749-8e9e3d5c49d2","1126","
                  <p style=""text-align: center;"">₪11
                                                <br>20%</p>
                  <p id=""wtp"" style=""text-align:center; margin-top: 0px; margin-bottom: 0px; font-size: 40px"";>מוכנים לשלם: <span id=""c_p_y""></span></p>","0","evaluation","16","4","12C,17C,23C,28C","20","11","0","","","","","","","","","","","","","","","","",""
"","","","","","html-keyboard-response","198","1375977","0.0-21.0-2.28","0fe03e9b-3bb0-4368-b749-8e9e3d5c49d2","null","<p style=""text-align: center;"">+</p>","null","fixation","","","","","","","","","","","","","","","","","","","","","","",""
"","","","","","html-slider-response","199","1376978","0.0-21.0-0.29","0fe03e9b-3bb0-4368-b749-8e9e3d5c49d2","1000","
                  <p style=""text-align: center;"">₪39
                                                <br>65%</p>
                  <p id=""wtp"" style=""text-align:center; margin-top: 0px; margin-bottom: 0px; font-size: 40px"";>&ensp;</p>","-","viewing","0","16","1A,15A,26C","","","","","","","","","","","","","","","","","","","",""
"","","","","","html-slider-response","200","1378385","0.0-21.0-1.29","0fe03e9b-3bb0-4368-b749-8e9e3d5c49d2","1406","
                  <p style=""text-align: center;"">₪39
                                                <br>65%</p>
                  <p id=""wtp"" style=""text-align:center; margin-top: 0px; margin-bottom: 0px; font-size: 40px"";>מוכנים לשלם: <span id=""c_p_y""></span></p>","20","evaluation","47","16","1A,15A,26C","65","39","20","","","","","","","","","","","","","","","","",""
"","","","","","html-keyboard-response","201","1379443","0.0-21.0-2.29","0fe03e9b-3bb0-4368-b749-8e9e3d5c49d2","null","<p style=""text-align: center;"">+</p>","null","fixation","","","","","","","","","","","","","","","","","","","","","","",""
"","","","","","html-slider-response","202","1380449","0.0-21.0-0.30","0fe03e9b-3bb0-4368-b749-8e9e3d5c49d2","1000","
                  <p style=""text-align: center;"">₪36
                                                <br>70%</p>
                  <p id=""wtp"" style=""text-align:center; margin-top: 0px; margin-bottom: 0px; font-size: 40px"";>&ensp;</p>","-","viewing","0","13","3A,5C,10B","","","","","","","","","","","","","","","","","","","",""
"","","","","","html-slider-response","203","1383481","0.0-21.0-1.30","0fe03e9b-3bb0-4368-b749-8e9e3d5c49d2","3030","
                  <p style=""text-align: center;"">₪36
                                                <br>70%</p>
                  <p id=""wtp"" style=""text-align:center; margin-top: 0px; margin-bottom: 0px; font-size: 40px"";>מוכנים לשלם: <span id=""c_p_y""></span></p>","15","evaluation","76","13","3A,5C,10B","70","36","15","","","","","","","","","","","","","","","","",""
"","","","","","html-keyboard-response","204","1384909","0.0-21.0-2.30","0fe03e9b-3bb0-4368-b749-8e9e3d5c49d2","null","<p style=""text-align: center;"">+</p>","null","fixation","","","","","","","","","","","","","","","","","","","","","","",""
"","","","","","html-keyboard-response","205","1385915","0.0-22.0","0fe03e9b-3bb0-4368-b749-8e9e3d5c49d2","null","<p style=""text-align: center;"">+</p>","null","fixation","","","","","","","","","","","","","","","","","","","","","","",""
"","","","","","html-keyboard-response","206","1387001","0.0-23.0","0fe03e9b-3bb0-4368-b749-8e9e3d5c49d2","null","<p>הפסקה.
          <br>לחצו כדי להמשיך.</p>","1","scan_wait","","","","","","","","","","","","","","","","","","","","","","",""
"","","","","","html-keyboard-response","207","1388007","0.0-24.0","0fe03e9b-3bb0-4368-b749-8e9e3d5c49d2","null","<p style=""text-align: center;"">+</p>","null","fixation","","","","","","","","","","","","","","","","","","","","","","",""
"","","","","","html-slider-response","208","1389022","0.0-25.0-0.0","0fe03e9b-3bb0-4368-b749-8e9e3d5c49d2","1000","
                  <p style=""text-align: center;"">₪58
                                                <br>30%</p>
                  <p id=""wtp"" style=""text-align:center; margin-top: 0px; margin-bottom: 0px; font-size: 40px"";>&ensp;</p>","-","viewing","0","19","13C,30A","","","","","","","","","","","","","","","","","","","",""
"","","","","","html-slider-response","209","1390937","0.0-25.0-1.0","0fe03e9b-3bb0-4368-b749-8e9e3d5c49d2","1913","
                  <p style=""text-align: center;"">₪58
                                                <br>30%</p>
                  <p id=""wtp"" style=""text-align:center; margin-top: 0px; margin-bottom: 0px; font-size: 40px"";>מוכנים לשלם: <span id=""c_p_y""></span></p>","61","evaluation","77","19","13C,30A","30","58","60","","","","","","","","","","","","","","","","",""
"","","","","","html-keyboard-response","210","1391651","0.0-25.0-2.0","0fe03e9b-3bb0-4368-b749-8e9e3d5c49d2","null","<p style=""text-align: center;"">+</p>","null","fixation","","","","","","","","","","","","","","","","","","","","","","",""
"","","","","","html-slider-response","211","1392660","0.0-25.0-0.1","0fe03e9b-3bb0-4368-b749-8e9e3d5c49d2","1000","
                  <p style=""text-align: center;"">₪36
                                                <br>70%</p>
                  <p id=""wtp"" style=""text-align:center; margin-top: 0px; margin-bottom: 0px; font-size: 40px"";>&ensp;</p>","-","viewing","0","13","3A,5C,10B","","","","","","","","","","","","","","","","","","","",""
"","","","","","html-slider-response","212","1395145","0.0-25.0-1.1","0fe03e9b-3bb0-4368-b749-8e9e3d5c49d2","2484","
                  <p style=""text-align: center;"">₪36
                                                <br>70%</p>
                  <p id=""wtp"" style=""text-align:center; margin-top: 0px; margin-bottom: 0px; font-size: 40px"";>מוכנים לשלם: <span id=""c_p_y""></span></p>","27","evaluation","12","13","3A,5C,10B","70","36","27","","","","","","","","","","","","","","","","",""
"","","","","","html-keyboard-response","213","1396179","0.0-25.0-2.1","0fe03e9b-3bb0-4368-b749-8e9e3d5c49d2","null","<p style=""text-align: center;"">+</p>","null","fixation","","","","","","","","","","","","","","","","","","","","","","",""
"","","","","","html-slider-response","214","1397182","0.0-25.0-0.2","0fe03e9b-3bb0-4368-b749-8e9e3d5c49d2","1000","
                  <p style=""text-align: center;"">₪58
                                                <br>45%</p>
                  <p id=""wtp"" style=""text-align:center; margin-top: 0px; margin-bottom: 0px; font-size: 40px"";>&ensp;</p>","-","viewing","0","21","11C,18C,25A","","","","","","","","","","","","","","","","","","","",""
"","","","","","html-slider-response","215","1399153","0.0-25.0-1.2","0fe03e9b-3bb0-4368-b749-8e9e3d5c49d2","1969","
                  <p style=""text-align: center;"">₪58
                                                <br>45%</p>
                  <p id=""wtp"" style=""text-align:center; margin-top: 0px; margin-bottom: 0px; font-size: 40px"";>מוכנים לשלם: <span id=""c_p_y""></span></p>","30","evaluation","20","21","11C,18C,25A","45","58","30","","","","","","","","","","","","","","","","",""
"","","","","","html-keyboard-response","216","1399870","0.0-25.0-2.2","0fe03e9b-3bb0-4368-b749-8e9e3d5c49d2","null","<p style=""text-align: center;"">+</p>","null","fixation","","","","","","","","","","","","","","","","","","","","","","",""
"","","","","","html-slider-response","217","1400884","0.0-25.0-0.3","0fe03e9b-3bb0-4368-b749-8e9e3d5c49d2","1000","
                  <p style=""text-align: center;"">₪4
                                                <br>75%</p>
                  <p id=""wtp"" style=""text-align:center; margin-top: 0px; margin-bottom: 0px; font-size: 40px"";>&ensp;</p>","-","viewing","0","3","12B,20B,23B,27C,29C","","","","","","","","","","","","","","","","","","","",""
"","","","","","html-slider-response","218","1401993","0.0-25.0-1.3","0fe03e9b-3bb0-4368-b749-8e9e3d5c49d2","1108","
                  <p style=""text-align: center;"">₪4
                                                <br>75%</p>
                  <p id=""wtp"" style=""text-align:center; margin-top: 0px; margin-bottom: 0px; font-size: 40px"";>מוכנים לשלם: <span id=""c_p_y""></span></p>","0","evaluation","69","3","12B,20B,23B,27C,29C","75","4","0","","","","","","","","","","","","","","","","",""
"","","","","","html-keyboard-response","219","1402566","0.0-25.0-2.3","0fe03e9b-3bb0-4368-b749-8e9e3d5c49d2","null","<p style=""text-align: center;"">+</p>","null","fixation","","","","","","","","","","","","","","","","","","","","","","",""
"","","","","","html-slider-response","220","1403572","0.0-25.0-0.4","0fe03e9b-3bb0-4368-b749-8e9e3d5c49d2","1000","
                  <p style=""text-align: center;"">₪11
                                                <br>75%</p>
                  <p id=""wtp"" style=""text-align:center; margin-top: 0px; margin-bottom: 0px; font-size: 40px"";>&ensp;</p>","-","viewing","0","7","6B,18B,22C,24C,29A","","","","","","","","","","","","","","","","","","","",""
"","","","","","html-slider-response","221","1404753","0.0-25.0-1.4","0fe03e9b-3bb0-4368-b749-8e9e3d5c49d2","1179","
                  <p style=""text-align: center;"">₪11
                                                <br>75%</p>
                  <p id=""wtp"" style=""text-align:center; margin-top: 0px; margin-bottom: 0px; font-size: 40px"";>מוכנים לשלם: <span id=""c_p_y""></span></p>","0","evaluation","26","7","6B,18B,22C,24C,29A","75","11","0","","","","","","","","","","","","","","","","",""
"","","","","","html-keyboard-response","222","1405806","0.0-25.0-2.4","0fe03e9b-3bb0-4368-b749-8e9e3d5c49d2","null","<p style=""text-align: center;"">+</p>","null","fixation","","","","","","","","","","","","","","","","","","","","","","",""
"","","","","","html-slider-response","223","1406808","0.0-25.0-0.5","0fe03e9b-3bb0-4368-b749-8e9e3d5c49d2","1000","
                  <p style=""text-align: center;"">₪39
                                                <br>65%</p>
                  <p id=""wtp"" style=""text-align:center; margin-top: 0px; margin-bottom: 0px; font-size: 40px"";>&ensp;</p>","-","viewing","0","16","1A,15A,26C","","","","","","","","","","","","","","","","","","","",""
"","","","","","html-slider-response","224","1408257","0.0-25.0-1.5","0fe03e9b-3bb0-4368-b749-8e9e3d5c49d2","1448","
                  <p style=""text-align: center;"">₪39
                                                <br>65%</p>
                  <p id=""wtp"" style=""text-align:center; margin-top: 0px; margin-bottom: 0px; font-size: 40px"";>מוכנים לשלם: <span id=""c_p_y""></span></p>","13","evaluation","51","16","1A,15A,26C","65","39","13","","","","","","","","","","","","","","","","",""
"","","","","","html-keyboard-response","225","1408852","0.0-25.0-2.5","0fe03e9b-3bb0-4368-b749-8e9e3d5c49d2","null","<p style=""text-align: center;"">+</p>","null","fixation","","","","","","","","","","","","","","","","","","","","","","",""
"","","","","","html-slider-response","226","1409861","0.0-25.0-0.6","0fe03e9b-3bb0-4368-b749-8e9e3d5c49d2","1000","
                  <p style=""text-align: center;"">₪79
                                                <br>65%</p>
                  <p id=""wtp"" style=""text-align:center; margin-top: 0px; margin-bottom: 0px; font-size: 40px"";>&ensp;</p>","-","viewing","0","31","8A","","","","","","","","","","","","","","","","","","","",""
"","","","","","html-slider-response","227","1411329","0.0-25.0-1.6","0fe03e9b-3bb0-4368-b749-8e9e3d5c49d2","1467","
                  <p style=""text-align: center;"">₪79
                                                <br>65%</p>
                  <p id=""wtp"" style=""text-align:center; margin-top: 0px; margin-bottom: 0px; font-size: 40px"";>מוכנים לשלם: <span id=""c_p_y""></span></p>","80","evaluation","7","31","8A","65","79","80","","","","","","","","","","","","","","","","",""
"","","","","","html-keyboard-response","228","1412429","0.0-25.0-2.6","0fe03e9b-3bb0-4368-b749-8e9e3d5c49d2","null","<p style=""text-align: center;"">+</p>","null","fixation","","","","","","","","","","","","","","","","","","","","","","",""
"","","","","","html-slider-response","229","1413430","0.0-25.0-0.7","0fe03e9b-3bb0-4368-b749-8e9e3d5c49d2","1000","
                  <p style=""text-align: center;"">₪11
                                                <br>25%</p>
                  <p id=""wtp"" style=""text-align:center; margin-top: 0px; margin-bottom: 0px; font-size: 40px"";>&ensp;</p>","-","viewing","0","5","12A,27B,28B,30B","","","","","","","","","","","","","","","","","","","",""
"","","","","","html-slider-response","230","1414793","0.0-25.0-1.7","0fe03e9b-3bb0-4368-b749-8e9e3d5c49d2","1362","
                  <p style=""text-align: center;"">₪11
                                                <br>25%</p>
                  <p id=""wtp"" style=""text-align:center; margin-top: 0px; margin-bottom: 0px; font-size: 40px"";>מוכנים לשלם: <span id=""c_p_y""></span></p>","0","evaluation","7","5","12A,27B,28B,30B","25","11","0","","","","","","","","","","","","","","","","",""
"","","","","","html-keyboard-response","231","1415971","0.0-25.0-2.7","0fe03e9b-3bb0-4368-b749-8e9e3d5c49d2","null","<p style=""text-align: center;"">+</p>","null","fixation","","","","","","","","","","","","","","","","","","","","","","",""
"","","","","","html-slider-response","232","1416983","0.0-25.0-0.8","0fe03e9b-3bb0-4368-b749-8e9e3d5c49d2","1000","
                  <p style=""text-align: center;"">₪76
                                                <br>65%</p>
                  <p id=""wtp"" style=""text-align:center; margin-top: 0px; margin-bottom: 0px; font-size: 40px"";>&ensp;</p>","-","viewing","0","29","8C,19A,24B","","","","","","","","","","","","","","","","","","","",""
"","","","","","html-slider-response","233","1419817","0.0-25.0-1.8","0fe03e9b-3bb0-4368-b749-8e9e3d5c49d2","2833","
                  <p style=""text-align: center;"">₪76
                                                <br>65%</p>
                  <p id=""wtp"" style=""text-align:center; margin-top: 0px; margin-bottom: 0px; font-size: 40px"";>מוכנים לשלם: <span id=""c_p_y""></span></p>","77","evaluation","0","29","8C,19A,24B","65","76","76","","","","","","","","","","","","","","","","",""
"","","","","","html-keyboard-response","234","1420992","0.0-25.0-2.8","0fe03e9b-3bb0-4368-b749-8e9e3d5c49d2","null","<p style=""text-align: center;"">+</p>","null","fixation","","","","","","","","","","","","","","","","","","","","","","",""
"","","","","","html-slider-response","235","1422005","0.0-25.0-0.9","0fe03e9b-3bb0-4368-b749-8e9e3d5c49d2","1000","
                  <p style=""text-align: center;"">₪71
                                                <br>55%</p>
                  <p id=""wtp"" style=""text-align:center; margin-top: 0px; margin-bottom: 0px; font-size: 40px"";>&ensp;</p>","-","viewing","0","27","5B,18A","","","","","","","","","","","","","","","","","","","",""
"","","","","","html-slider-response","236","1423080","0.0-25.0-1.9","0fe03e9b-3bb0-4368-b749-8e9e3d5c49d2","1075","
                  <p style=""text-align: center;"">₪71
                                                <br>55%</p>
                  <p id=""wtp"" style=""text-align:center; margin-top: 0px; margin-bottom: 0px; font-size: 40px"";>מוכנים לשלם: <span id=""c_p_y""></span></p>","80","evaluation","20","27","5B,18A","55","71","80","","","","","","","","","","","","","","","","",""
"","","","","","html-keyboard-response","237","1423872","0.0-25.0-2.9","0fe03e9b-3bb0-4368-b749-8e9e3d5c49d2","null","<p style=""text-align: center;"">+</p>","null","fixation","","","","","","","","","","","","","","","","","","","","","","",""
"","","","","","html-slider-response","238","1424876","0.0-25.0-0.10","0fe03e9b-3bb0-4368-b749-8e9e3d5c49d2","1000","
                  <p style=""text-align: center;"">₪4
                                                <br>50%</p>
                  <p id=""wtp"" style=""text-align:center; margin-top: 0px; margin-bottom: 0px; font-size: 40px"";>&ensp;</p>","-","viewing","0","2","4C,17B","","","","","","","","","","","","","","","","","","","",""
"","","","","","html-slider-response","239","1425872","0.0-25.0-1.10","0fe03e9b-3bb0-4368-b749-8e9e3d5c49d2","996","
                  <p style=""text-align: center;"">₪4
                                                <br>50%</p>
                  <p id=""wtp"" style=""text-align:center; margin-top: 0px; margin-bottom: 0px; font-size: 40px"";>מוכנים לשלם: <span id=""c_p_y""></span></p>","0","evaluation","44","2","4C,17B","50","4","0","","","","","","","","","","","","","","","","",""
"","","","","","html-keyboard-response","240","1427234","0.0-25.0-2.10","0fe03e9b-3bb0-4368-b749-8e9e3d5c49d2","null","<p style=""text-align: center;"">+</p>","null","fixation","","","","","","","","","","","","","","","","","","","","","","",""
"","","","","","html-slider-response","241","1428244","0.0-25.0-0.11","0fe03e9b-3bb0-4368-b749-8e9e3d5c49d2","1000","
                  <p style=""text-align: center;"">₪71
                                                <br>45%</p>
                  <p id=""wtp"" style=""text-align:center; margin-top: 0px; margin-bottom: 0px; font-size: 40px"";>&ensp;</p>","-","viewing","0","26","2B,16A","","","","","","","","","","","","","","","","","","","",""
"","","","","","html-slider-response","242","1429536","0.0-25.0-1.11","0fe03e9b-3bb0-4368-b749-8e9e3d5c49d2","1291","
                  <p style=""text-align: center;"">₪71
                                                <br>45%</p>
                  <p id=""wtp"" style=""text-align:center; margin-top: 0px; margin-bottom: 0px; font-size: 40px"";>מוכנים לשלם: <span id=""c_p_y""></span></p>","80","evaluation","62","26","2B,16A","45","71","80","","","","","","","","","","","","","","","","",""
"","","","","","html-keyboard-response","243","1430111","0.0-25.0-2.11","0fe03e9b-3bb0-4368-b749-8e9e3d5c49d2","null","<p style=""text-align: center;"">+</p>","null","fixation","","","","","","","","","","","","","","","","","","","","","","",""
"","","","","","html-slider-response","244","1431118","0.0-25.0-0.12","0fe03e9b-3bb0-4368-b749-8e9e3d5c49d2","1000","
                  <p style=""text-align: center;"">₪18
                                                <br>50%</p>
                  <p id=""wtp"" style=""text-align:center; margin-top: 0px; margin-bottom: 0px; font-size: 40px"";>&ensp;</p>","-","viewing","0","10","2C,16C,22B,28A","","","","","","","","","","","","","","","","","","","",""
"","","","","","html-slider-response","245","1432689","0.0-25.0-1.12","0fe03e9b-3bb0-4368-b749-8e9e3d5c49d2","1570","
                  <p style=""text-align: center;"">₪18
                                                <br>50%</p>
                  <p id=""wtp"" style=""text-align:center; margin-top: 0px; margin-bottom: 0px; font-size: 40px"";>מוכנים לשלם: <span id=""c_p_y""></span></p>","0","evaluation","3","10","2C,16C,22B,28A","50","18","0","","","","","","","","","","","","","","","","",""
"","","","","","html-keyboard-response","246","1434169","0.0-25.0-2.12","0fe03e9b-3bb0-4368-b749-8e9e3d5c49d2","null","<p style=""text-align: center;"">+</p>","null","fixation","","","","","","","","","","","","","","","","","","","","","","",""
"","","","","","html-slider-response","247","1435176","0.0-25.0-0.13","0fe03e9b-3bb0-4368-b749-8e9e3d5c49d2","1000","
                  <p style=""text-align: center;"">₪11
                                                <br>20%</p>
                  <p id=""wtp"" style=""text-align:center; margin-top: 0px; margin-bottom: 0px; font-size: 40px"";>&ensp;</p>","-","viewing","0","4","12C,17C,23C,28C","","","","","","","","","","","","","","","","","","","",""
"","","","","","html-slider-response","248","1436304","0.0-25.0-1.13","0fe03e9b-3bb0-4368-b749-8e9e3d5c49d2","1128","
                  <p style=""text-align: center;"">₪11
                                                <br>20%</p>
