"success","timeout","failed_images","failed_audio","failed_video","trial_type","trial_index","time_elapsed","internal_node_id","subject_id","rt","stimulus","response","part","slider_start","ID","set_ID","prob","amount","last_location","actual_choice","actual_EV","binary_id","trinary_id","catch","direction","A_key","S_key","D_key","choice_prob","choice_amount","chosen_part","won_prize","potential_prize_amount","potential_prize_prob","total_prize","accuracy"
"true","false","[]","[]","[]","preload","0","522","0.0-0.0","f6bc85fd-64e6-47fb-bc9c-79fe31547834","","","","","","","","","","","","","","","","","","","","","","","","","","",""
"","","","","","html-keyboard-response","1","8421613","0.0-1.0","f6bc85fd-64e6-47fb-bc9c-79fe31547834","null","
          <h1>שלום וברוכים הבאים!</h1>
          <p>לפניכם ניסוי בקבלת החלטות עם שני חלקים.
          <br><br>לחצו על העכבר כדי להמשיך.</p>","0","example","","","","","","","","","","","","","","","","","","","","","","",""
"","","","","","html-keyboard-response","2","8432669","0.0-2.0","f6bc85fd-64e6-47fb-bc9c-79fe31547834","null","
        <h1>חלק 1</h1>
        <p>בקרוב יוצגו בפניכם הגרלות.
        <br>עליכם לבחור את המחיר המירבי שתהיו מוכנים לשלם כדי להשתתף בהגרלה שתוצג.
        <br>יש לכם תקציב של ₪80 לכל הגרלה. 
        <br>נסו להעריך כל הגרלה בנפרד ולחשוב כמה היא שווה עבורכם, ₪80 זמינים לכל הגרלה בנפרד.
        <br><br>לחצו על העכבר כדי להמשיך.</p>","1","instructions","","","","","","","","","","","","","","","","","","","","","","",""
"","","","","","html-keyboard-response","3","8443941","0.0-3.0","f6bc85fd-64e6-47fb-bc9c-79fe31547834","null","
        <p>בסוף הניסוי, המחשב יבחר את אחת ההגרלות ויקבע מחיר לכרטיס עבורה. 
        <br>במידה והמחיר שבחרתם נמוך מהמחיר שנבחר על ידי המחשב, לא תשתתפו בהגרלה ותשארו עם מלוא התקציב.
        <br>במידה והמחיר שבחרתם גבוה מהמחיר שנבחר על ידי המחשב, תשלמו את המחיר שנקבע ותשתתפו בהגרלה.
        <br><br>לחצו על העכבר כדי להמשיך.</p>","1","instructions","","","","","","","","","","","","","","","","","","","","","","",""
"","","","","","html-slider-response","4","8456493","0.0-4.0","f6bc85fd-64e6-47fb-bc9c-79fe31547834","12440","
        <p style=""font-size: 42px;"">נתחיל עם דוגמא: 
        <br>ההגרלה מטה מציעה 65% סיכוי לזכות ב-₪40 
        <br>&emsp;&emsp;&emsp;&emsp;&emsp;&emsp;&emsp;&emsp;&ensp;35% סיכוי לזכות ב-₪0.
        <br><br>מה המחיר המירבי שתהיו מוכנים לשלם על כרטיס להגרלה זו בין 0 ל-₪80?
        <br>הזיזו את העכבר על פני המלבן ולחצו כדי לבצע בחירה.</p>
        
        <p style=""text-align: center;"">₪40<br>65%</p>

        <p id=""wtp"" style=""text-align:center; margin-top: 0px; margin-bottom: 0px; font-size: 40px"";>מוכנים לשלם: <span id=""c_p_y""></span></p>","20","example","15","","","","","","","","","","","","","","","","","","","","","",""
"","","","","","html-keyboard-response","5","8468308","0.0-5.0","f6bc85fd-64e6-47fb-bc9c-79fe31547834","null","<p>יפה מאוד!
                <br> בחרתם שתהיו מוכנים לשלם ₪20 כדי להשתתף בהגרלה:
                <br><p style=""text-align: center;"">₪40<br>65%</p>
                <p>נשמע נכון?
                <br>נניח שהגרלה זו נבחרה בסוף הניסוי.
                <br>כעת המחשב יקבע מחיר עבורה באקראי.
                <br>לחצו על העכבר להמשך.</p>","1","example","","","","","","","","","","","","","","","","","","","","","","",""
"","","","","","html-keyboard-response","6","8480284","0.0-6.0","f6bc85fd-64e6-47fb-bc9c-79fe31547834","null","<p>המחשב קבע מחיר: ₪24
                <br>ואתם בחרתם לשלם לכל היותר: ₪20
                <br><br>מכיוון שהמחיר שבחרתם נמוך מהמחיר שנקבע, לא תתשתתפו בהגרלה.
                <br>במקרה כזה, בסוף הניסוי תקבלו את כל התקציב ההתחלתי של ₪80.
                <br><br>לחצו על העכבר להמשך.</p>","1","example","","","","","","","","","","","","","","","","","","","","","","",""
"","","","","","html-slider-response","7","8490029","0.0-7.0","f6bc85fd-64e6-47fb-bc9c-79fe31547834","9485","<p style=""font-size: 42px;"">הנה עוד דוגמא:
                <br>ההגרלה מטה מציעה 35% סיכוי לזכות ב-₪18 
                <br>&emsp;&emsp;&emsp;&emsp;&emsp;&emsp;&emsp;&emsp;&ensp;65% סיכוי לזכות ב-₪0.</p>
        
                <p style=""text-align: center;"">₪18<br>35%</p>
                <p id=""wtp"" style=""text-align:center; margin-top: 0px; margin-bottom: 0px; font-size: 40px"";>מוכנים לשלם: <span id=""c_p_y""></span></p>","4","example","60","","","","","","","","","","","","","","","","","","","","","",""
"","","","","","html-keyboard-response","8","8494228","0.0-8.0","f6bc85fd-64e6-47fb-bc9c-79fe31547834","null","<p>הייתם מוכנים לשלם  ₪4 כדי להשתתף בהגרלה:
                <p style=""text-align: center;"">₪18<br>35%</p>
                <p>כעת נניח שהמחשב בחר את ההגרלה הזו בסוף הניסוי, וקבע עבורה מחיר.
                <br><br>לחצו על העכבר כדי להמשיך.</p>","1","instructions","","","","","","","","","","","","","","","","","","","","","","",""
"","","","","","html-keyboard-response","9","8511324","0.0-9.0","f6bc85fd-64e6-47fb-bc9c-79fe31547834","null","<p>המחשב קבע מחיר להגרלה: ₪4
                <br>ואתם בחרתם לשלם לכל היותר: ₪4
                <br><br>כעת המחיר שנקבע זהה לזה שבחרתם, אז תשלמו את המחיר שקבע המחשב (₪4) ותשתתפו בהגרלה.
                <br>במקרה כזה, תסיימו את הניסוי עם תקציב של ₪76 ועם סיכוי לזכות ב-₪18 נוספים מההגרלה.
                <br>כלומר, תוכלו לקבל ₪76 אם לא תזכו בהגרלה, או ₪94 אם תזכו בהגרלה.
                <br><br>לחצו על העכבר להמשך.</p>","1","example","","","","","","","","","","","","","","","","","","","","","","",""
"","","","","","html-keyboard-response","10","8523252","0.0-10.0","f6bc85fd-64e6-47fb-bc9c-79fe31547834","null","<p>במהלך הניסוי, קודם תראו את ההגרלה ורק לאחר מכן תוכלו לבחור.
                <p>כמו כן, יהיו לכם מספר שניות מוגבל להגיב.
                <p>בואו ננסה זאת עם ההגרלה הקודמת.
                <br>לחצו על העכבר כדי להמשיך.</p>","1","instructions","","","","","","","","","","","","","","","","","","","","","","",""
"","","","","","html-slider-response","11","8524517","0.0-11.0","f6bc85fd-64e6-47fb-bc9c-79fe31547834","1000","
                    <p style=""text-align: center;"">₪18<br>35%</p>
                    <p id=""wtp"" style=""text-align:center; margin-top: 0px; margin-bottom: 0px; font-size: 40px"";>&ensp;</p>","47","instructions","0","","","","","","","","","","","","","","","","","","","","","",""
"","","","","","html-slider-response","12","8528789","0.0-12.0","f6bc85fd-64e6-47fb-bc9c-79fe31547834","null","
                    <p style=""text-align: center;"">₪18<br>35%</p>
                    <p id=""wtp"" style=""text-align:center; margin-top: 0px; margin-bottom: 0px; font-size: 40px"";>מוכנים לשלם: <span id=""c_p_y""></span></p>","null","instructions","58","","","","","","","","","","","","","","","","","","","","","",""
"","","","","","html-keyboard-response","13","8534268","0.0-13.0","f6bc85fd-64e6-47fb-bc9c-79fe31547834","null","<p>לא הגבתם בזמן המוקצב לתגובה. 
                <br>נסו להגיב מהר יותר בפעם הבאה.
                <br><br>לחצו על העכבר כדי להמשיך.</p>","1","instructions","","","","","","","","","","","","","","","","","","","","","","",""
"","","","","","html-slider-response","14","8536413","0.0-14.0-0.0","f6bc85fd-64e6-47fb-bc9c-79fe31547834","1882","
                    <p style=""text-align: center;"">₪40<br>65%</p>
                    <p id=""wtp"" style=""text-align:center; margin-top: 0px; margin-bottom: 0px; font-size: 40px"";>מוכנים לשלם: <span id=""c_p_y""></span></p>","17","instructions","80","","","","","","","","","","","","","","","","","","","","","",""
"","","","","","html-keyboard-response","15","8540852","0.0-14.0-1.0","f6bc85fd-64e6-47fb-bc9c-79fe31547834","null","<p>יפה. הפעם בחרתם לשלם לכל היותר ₪17.
                <br><br>לחצו על העכבר כדי להמשיך.</p>","1","instructions","","","","","","","","","","","","","","","","","","","","","","",""
"","","","","","html-keyboard-response","16","8564044","0.0-15.0","f6bc85fd-64e6-47fb-bc9c-79fe31547834","null","<p>כעת נתחיל את הניסוי.
                <br><br>אתם תראו הגרלות ותתבקשו לבחור כמה תהיו מוכנים לשלם כדי להשתתף בהן.
                <br>יש לכם תקציב של ₪80 עבור כל הגרלה.
                <br>בסוף הניסוי הגרלה אחת תבחר באקראי ותשוחק.
                <br><br>לחצו על העכבר כדי להתחיל את הניסוי.</p>","1","instructions","","","","","","","","","","","","","","","","","","","","","","",""
"","","","","","html-keyboard-response","17","8565310","0.0-16.0","f6bc85fd-64e6-47fb-bc9c-79fe31547834","null","<p style=""text-align: center;"">+</p>","null","fixation","","","","","","","","","","","","","","","","","","","","","","",""
"","","","","","html-slider-response","18","8566317","0.0-17.0-0.0","f6bc85fd-64e6-47fb-bc9c-79fe31547834","1000","
                  <p style=""text-align: center;"">₪36
                                                <br>75%</p>
                  <p id=""wtp"" style=""text-align:center; margin-top: 0px; margin-bottom: 0px; font-size: 40px"";>&ensp;</p>","-","viewing","0","14","4B,5A,13B,16B","","","","","","","","","","","","","","","","","","","",""
"","","","","","html-slider-response","19","8569540","0.0-17.0-1.0","f6bc85fd-64e6-47fb-bc9c-79fe31547834","3222","
                  <p style=""text-align: center;"">₪36
                                                <br>75%</p>
                  <p id=""wtp"" style=""text-align:center; margin-top: 0px; margin-bottom: 0px; font-size: 40px"";>מוכנים לשלם: <span id=""c_p_y""></span></p>","54","evaluation","9","14","4B,5A,13B,16B","75","36","54","","","","","","","","","","","","","","","","",""
"","","","","","html-keyboard-response","20","8570847","0.0-17.0-2.0","f6bc85fd-64e6-47fb-bc9c-79fe31547834","null","<p style=""text-align: center;"">+</p>","null","fixation","","","","","","","","","","","","","","","","","","","","","","",""
"","","","","","html-slider-response","21","8571866","0.0-17.0-0.1","f6bc85fd-64e6-47fb-bc9c-79fe31547834","1000","
                  <p style=""text-align: center;"">₪39
                                                <br>65%</p>
                  <p id=""wtp"" style=""text-align:center; margin-top: 0px; margin-bottom: 0px; font-size: 40px"";>&ensp;</p>","-","viewing","0","16","1A,15A,26C","","","","","","","","","","","","","","","","","","","",""
"","","","","","html-slider-response","22","8574916","0.0-17.0-1.1","f6bc85fd-64e6-47fb-bc9c-79fe31547834","3049","
                  <p style=""text-align: center;"">₪39
                                                <br>65%</p>
                  <p id=""wtp"" style=""text-align:center; margin-top: 0px; margin-bottom: 0px; font-size: 40px"";>מוכנים לשלם: <span id=""c_p_y""></span></p>","42","evaluation","29","16","1A,15A,26C","65","39","42","","","","","","","","","","","","","","","","",""
"","","","","","html-keyboard-response","23","8575688","0.0-17.0-2.1","f6bc85fd-64e6-47fb-bc9c-79fe31547834","null","<p style=""text-align: center;"">+</p>","null","fixation","","","","","","","","","","","","","","","","","","","","","","",""
"","","","","","html-slider-response","24","8576704","0.0-17.0-0.2","f6bc85fd-64e6-47fb-bc9c-79fe31547834","1000","
                  <p style=""text-align: center;"">₪58
                                                <br>45%</p>
                  <p id=""wtp"" style=""text-align:center; margin-top: 0px; margin-bottom: 0px; font-size: 40px"";>&ensp;</p>","-","viewing","0","21","11C,18C,25A","","","","","","","","","","","","","","","","","","","",""
"","","","","","html-slider-response","25","8578668","0.0-17.0-1.2","f6bc85fd-64e6-47fb-bc9c-79fe31547834","1963","
                  <p style=""text-align: center;"">₪58
                                                <br>45%</p>
                  <p id=""wtp"" style=""text-align:center; margin-top: 0px; margin-bottom: 0px; font-size: 40px"";>מוכנים לשלם: <span id=""c_p_y""></span></p>","29","evaluation","57","21","11C,18C,25A","45","58","29","","","","","","","","","","","","","","","","",""
"","","","","","html-keyboard-response","26","8579797","0.0-17.0-2.2","f6bc85fd-64e6-47fb-bc9c-79fe31547834","null","<p style=""text-align: center;"">+</p>","null","fixation","","","","","","","","","","","","","","","","","","","","","","",""
"","","","","","html-slider-response","27","8580799","0.0-17.0-0.3","f6bc85fd-64e6-47fb-bc9c-79fe31547834","1000","
                  <p style=""text-align: center;"">₪11
                                                <br>75%</p>
                  <p id=""wtp"" style=""text-align:center; margin-top: 0px; margin-bottom: 0px; font-size: 40px"";>&ensp;</p>","-","viewing","0","7","6B,18B,22C,24C,29A","","","","","","","","","","","","","","","","","","","",""
"","","","","","html-slider-response","28","8584816","0.0-17.0-1.3","f6bc85fd-64e6-47fb-bc9c-79fe31547834","null","
                  <p style=""text-align: center;"">₪11
                                                <br>75%</p>
                  <p id=""wtp"" style=""text-align:center; margin-top: 0px; margin-bottom: 0px; font-size: 40px"";>מוכנים לשלם: <span id=""c_p_y""></span></p>","null","evaluation","74","7","6B,18B,22C,24C,29A","75","11","14","","","","","","","","","","","","","","","","",""
"","","","","","html-keyboard-response","29","8586180","0.0-17.0-2.3","f6bc85fd-64e6-47fb-bc9c-79fe31547834","null","<p style=""text-align: center;"">+</p>","null","fixation","","","","","","","","","","","","","","","","","","","","","","",""
"","","","","","html-slider-response","30","8587182","0.0-17.0-0.4","f6bc85fd-64e6-47fb-bc9c-79fe31547834","1000","
                  <p style=""text-align: center;"">₪79
                                                <br>40%</p>
                  <p id=""wtp"" style=""text-align:center; margin-top: 0px; margin-bottom: 0px; font-size: 40px"";>&ensp;</p>","-","viewing","0","30","9B","","","","","","","","","","","","","","","","","","","",""
"","","","","","html-slider-response","31","8589236","0.0-17.0-1.4","f6bc85fd-64e6-47fb-bc9c-79fe31547834","2053","
                  <p style=""text-align: center;"">₪79
                                                <br>40%</p>
                  <p id=""wtp"" style=""text-align:center; margin-top: 0px; margin-bottom: 0px; font-size: 40px"";>מוכנים לשלם: <span id=""c_p_y""></span></p>","32","evaluation","30","30","9B","40","79","32","","","","","","","","","","","","","","","","",""
"","","","","","html-keyboard-response","32","8589777","0.0-17.0-2.4","f6bc85fd-64e6-47fb-bc9c-79fe31547834","null","<p style=""text-align: center;"">+</p>","null","fixation","","","","","","","","","","","","","","","","","","","","","","",""
"","","","","","html-slider-response","33","8590781","0.0-17.0-0.5","f6bc85fd-64e6-47fb-bc9c-79fe31547834","1000","
                  <p style=""text-align: center;"">₪18
                                                <br>25%</p>
                  <p id=""wtp"" style=""text-align:center; margin-top: 0px; margin-bottom: 0px; font-size: 40px"";>&ensp;</p>","-","viewing","0","9","14A,23A","","","","","","","","","","","","","","","","","","","",""
"","","","","","html-slider-response","34","8592772","0.0-17.0-1.5","f6bc85fd-64e6-47fb-bc9c-79fe31547834","1990","
                  <p style=""text-align: center;"">₪18
                                                <br>25%</p>
                  <p id=""wtp"" style=""text-align:center; margin-top: 0px; margin-bottom: 0px; font-size: 40px"";>מוכנים לשלם: <span id=""c_p_y""></span></p>","22","evaluation","73","9","14A,23A","25","18","22","","","","","","","","","","","","","","","","",""
"","","","","","html-keyboard-response","35","8593356","0.0-17.0-2.5","f6bc85fd-64e6-47fb-bc9c-79fe31547834","null","<p style=""text-align: center;"">+</p>","null","fixation","","","","","","","","","","","","","","","","","","","","","","",""
"","","","","","html-slider-response","36","8594357","0.0-17.0-0.6","f6bc85fd-64e6-47fb-bc9c-79fe31547834","1000","
                  <p style=""text-align: center;"">₪36
                                                <br>30%</p>
                  <p id=""wtp"" style=""text-align:center; margin-top: 0px; margin-bottom: 0px; font-size: 40px"";>&ensp;</p>","-","viewing","0","11","3C,20A,22A","","","","","","","","","","","","","","","","","","","",""
"","","","","","html-slider-response","37","8596524","0.0-17.0-1.6","f6bc85fd-64e6-47fb-bc9c-79fe31547834","2166","
                  <p style=""text-align: center;"">₪36
                                                <br>30%</p>
                  <p id=""wtp"" style=""text-align:center; margin-top: 0px; margin-bottom: 0px; font-size: 40px"";>מוכנים לשלם: <span id=""c_p_y""></span></p>","18","evaluation","70","11","3C,20A,22A","30","36","18","","","","","","","","","","","","","","","","",""
"","","","","","html-keyboard-response","38","8597729","0.0-17.0-2.6","f6bc85fd-64e6-47fb-bc9c-79fe31547834","null","<p style=""text-align: center;"">+</p>","null","fixation","","","","","","","","","","","","","","","","","","","","","","",""
"","","","","","html-slider-response","39","8598743","0.0-17.0-0.7","f6bc85fd-64e6-47fb-bc9c-79fe31547834","1000","
                  <p style=""text-align: center;"">₪61
                                                <br>45%</p>
                  <p id=""wtp"" style=""text-align:center; margin-top: 0px; margin-bottom: 0px; font-size: 40px"";>&ensp;</p>","-","viewing","0","22","10A,11A","","","","","","","","","","","","","","","","","","","",""
"","","","","","html-slider-response","40","8601548","0.0-17.0-1.7","f6bc85fd-64e6-47fb-bc9c-79fe31547834","2804","
                  <p style=""text-align: center;"">₪61
                                                <br>45%</p>
                  <p id=""wtp"" style=""text-align:center; margin-top: 0px; margin-bottom: 0px; font-size: 40px"";>מוכנים לשלם: <span id=""c_p_y""></span></p>","38","evaluation","31","22","10A,11A","45","61","38","","","","","","","","","","","","","","","","",""
"","","","","","html-keyboard-response","41","8602961","0.0-17.0-2.7","f6bc85fd-64e6-47fb-bc9c-79fe31547834","null","<p style=""text-align: center;"">+</p>","null","fixation","","","","","","","","","","","","","","","","","","","","","","",""
"","","","","","html-slider-response","42","8603971","0.0-17.0-0.8","f6bc85fd-64e6-47fb-bc9c-79fe31547834","1000","
                  <p style=""text-align: center;"">₪11
                                                <br>45%</p>
                  <p id=""wtp"" style=""text-align:center; margin-top: 0px; margin-bottom: 0px; font-size: 40px"";>&ensp;</p>","-","viewing","0","6","14B,21C,25C","","","","","","","","","","","","","","","","","","","",""
"","","","","","html-slider-response","43","8606940","0.0-17.0-1.8","f6bc85fd-64e6-47fb-bc9c-79fe31547834","2969","
                  <p style=""text-align: center;"">₪11
                                                <br>45%</p>
                  <p id=""wtp"" style=""text-align:center; margin-top: 0px; margin-bottom: 0px; font-size: 40px"";>מוכנים לשלם: <span id=""c_p_y""></span></p>","9","evaluation","52","6","14B,21C,25C","45","11","9","","","","","","","","","","","","","","","","",""
"","","","","","html-keyboard-response","44","8608310","0.0-17.0-2.8","f6bc85fd-64e6-47fb-bc9c-79fe31547834","null","<p style=""text-align: center;"">+</p>","null","fixation","","","","","","","","","","","","","","","","","","","","","","",""
"","","","","","html-slider-response","45","8609312","0.0-17.0-0.9","f6bc85fd-64e6-47fb-bc9c-79fe31547834","1000","
                  <p style=""text-align: center;"">₪39
                                                <br>60%</p>
                  <p id=""wtp"" style=""text-align:center; margin-top: 0px; margin-bottom: 0px; font-size: 40px"";>&ensp;</p>","-","viewing","0","15","9C,25B","","","","","","","","","","","","","","","","","","","",""
"","","","","","html-slider-response","46","8610892","0.0-17.0-1.9","f6bc85fd-64e6-47fb-bc9c-79fe31547834","1580","
                  <p style=""text-align: center;"">₪39
                                                <br>60%</p>
                  <p id=""wtp"" style=""text-align:center; margin-top: 0px; margin-bottom: 0px; font-size: 40px"";>מוכנים לשלם: <span id=""c_p_y""></span></p>","32","evaluation","48","15","9C,25B","60","39","32","","","","","","","","","","","","","","","","",""
"","","","","","html-keyboard-response","47","8611918","0.0-17.0-2.9","f6bc85fd-64e6-47fb-bc9c-79fe31547834","null","<p style=""text-align: center;"">+</p>","null","fixation","","","","","","","","","","","","","","","","","","","","","","",""
"","","","","","html-slider-response","48","8612928","0.0-17.0-0.10","f6bc85fd-64e6-47fb-bc9c-79fe31547834","1000","
                  <p style=""text-align: center;"">₪4
                                                <br>50%</p>
                  <p id=""wtp"" style=""text-align:center; margin-top: 0px; margin-bottom: 0px; font-size: 40px"";>&ensp;</p>","-","viewing","0","2","4C,17B","","","","","","","","","","","","","","","","","","","",""
"","","","","","html-slider-response","49","8614204","0.0-17.0-1.10","f6bc85fd-64e6-47fb-bc9c-79fe31547834","1275","
                  <p style=""text-align: center;"">₪4
                                                <br>50%</p>
                  <p id=""wtp"" style=""text-align:center; margin-top: 0px; margin-bottom: 0px; font-size: 40px"";>מוכנים לשלם: <span id=""c_p_y""></span></p>","3","evaluation","2","2","4C,17B","50","4","3","","","","","","","","","","","","","","","","",""
"","","","","","html-keyboard-response","50","8615485","0.0-17.0-2.10","f6bc85fd-64e6-47fb-bc9c-79fe31547834","null","<p style=""text-align: center;"">+</p>","null","fixation","","","","","","","","","","","","","","","","","","","","","","",""
"","","","","","html-slider-response","51","8616488","0.0-17.0-0.11","f6bc85fd-64e6-47fb-bc9c-79fe31547834","1000","
                  <p style=""text-align: center;"">₪76
                                                <br>65%</p>
                  <p id=""wtp"" style=""text-align:center; margin-top: 0px; margin-bottom: 0px; font-size: 40px"";>&ensp;</p>","-","viewing","0","29","8C,19A,24B","","","","","","","","","","","","","","","","","","","",""
"","","","","","html-slider-response","52","8618468","0.0-17.0-1.11","f6bc85fd-64e6-47fb-bc9c-79fe31547834","1980","
                  <p style=""text-align: center;"">₪76
                                                <br>65%</p>
                  <p id=""wtp"" style=""text-align:center; margin-top: 0px; margin-bottom: 0px; font-size: 40px"";>מוכנים לשלם: <span id=""c_p_y""></span></p>","12","evaluation","28","29","8C,19A,24B","65","76","12","","","","","","","","","","","","","","","","",""
"","","","","","html-keyboard-response","53","8619685","0.0-17.0-2.11","f6bc85fd-64e6-47fb-bc9c-79fe31547834","null","<p style=""text-align: center;"">+</p>","null","fixation","","","","","","","","","","","","","","","","","","","","","","",""
"","","","","","html-slider-response","54","8620701","0.0-17.0-0.12","f6bc85fd-64e6-47fb-bc9c-79fe31547834","1000","
                  <p style=""text-align: center;"">₪79
                                                <br>65%</p>
                  <p id=""wtp"" style=""text-align:center; margin-top: 0px; margin-bottom: 0px; font-size: 40px"";>&ensp;</p>","-","viewing","0","31","8A","","","","","","","","","","","","","","","","","","","",""
"","","","","","html-slider-response","55","8621924","0.0-17.0-1.12","f6bc85fd-64e6-47fb-bc9c-79fe31547834","1222","
                  <p style=""text-align: center;"">₪79
                                                <br>65%</p>
                  <p id=""wtp"" style=""text-align:center; margin-top: 0px; margin-bottom: 0px; font-size: 40px"";>מוכנים לשלם: <span id=""c_p_y""></span></p>","60","evaluation","54","31","8A","65","79","60","","","","","","","","","","","","","","","","",""
"","","","","","html-keyboard-response","56","8622449","0.0-17.0-2.12","f6bc85fd-64e6-47fb-bc9c-79fe31547834","null","<p style=""text-align: center;"">+</p>","null","fixation","","","","","","","","","","","","","","","","","","","","","","",""
"","","","","","html-slider-response","57","8623464","0.0-17.0-0.13","f6bc85fd-64e6-47fb-bc9c-79fe31547834","1000","
                  <p style=""text-align: center;"">₪58
                                                <br>30%</p>
                  <p id=""wtp"" style=""text-align:center; margin-top: 0px; margin-bottom: 0px; font-size: 40px"";>&ensp;</p>","-","viewing","0","19","13C,30A","","","","","","","","","","","","","","","","","","","",""
"","","","","","html-slider-response","58","8625229","0.0-17.0-1.13","f6bc85fd-64e6-47fb-bc9c-79fe31547834","1763","
                  <p style=""text-align: center;"">₪58
                                                <br>30%</p>
                  <p id=""wtp"" style=""text-align:center; margin-top: 0px; margin-bottom: 0px; font-size: 40px"";>מוכנים לשלם: <span id=""c_p_y""></span></p>","36","evaluation","11","19","13C,30A","30","58","36","","","","","","","","","","","","","","","","",""
"","","","","","html-keyboard-response","59","8626384","0.0-17.0-2.13","f6bc85fd-64e6-47fb-bc9c-79fe31547834","null","<p style=""text-align: center;"">+</p>","null","fixation","","","","","","","","","","","","","","","","","","","","","","",""
"","","","","","html-slider-response","60","8627389","0.0-17.0-0.14","f6bc85fd-64e6-47fb-bc9c-79fe31547834","1000","
                  <p style=""text-align: center;"">₪71
                                                <br>45%</p>
                  <p id=""wtp"" style=""text-align:center; margin-top: 0px; margin-bottom: 0px; font-size: 40px"";>&ensp;</p>","-","viewing","0","26","2B,16A","","","","","","","","","","","","","","","","","","","",""
"","","","","","html-slider-response","61","8629508","0.0-17.0-1.14","f6bc85fd-64e6-47fb-bc9c-79fe31547834","2118","
                  <p style=""text-align: center;"">₪71
                                                <br>45%</p>
                  <p id=""wtp"" style=""text-align:center; margin-top: 0px; margin-bottom: 0px; font-size: 40px"";>מוכנים לשלם: <span id=""c_p_y""></span></p>","45","evaluation","69","26","2B,16A","45","71","45","","","","","","","","","","","","","","","","",""
"","","","","","html-keyboard-response","62","8630655","0.0-17.0-2.14","f6bc85fd-64e6-47fb-bc9c-79fe31547834","null","<p style=""text-align: center;"">+</p>","null","fixation","","","","","","","","","","","","","","","","","","","","","","",""
"","","","","","html-slider-response","63","8631661","0.0-17.0-0.15","f6bc85fd-64e6-47fb-bc9c-79fe31547834","1000","
                  <p style=""text-align: center;"">₪64
                                                <br>25%</p>
                  <p id=""wtp"" style=""text-align:center; margin-top: 0px; margin-bottom: 0px; font-size: 40px"";>&ensp;</p>","-","viewing","0","24","6A,21A","","","","","","","","","","","","","","","","","","","",""
"","","","","","html-slider-response","64","8632924","0.0-17.0-1.15","f6bc85fd-64e6-47fb-bc9c-79fe31547834","1262","
                  <p style=""text-align: center;"">₪64
                                                <br>25%</p>
                  <p id=""wtp"" style=""text-align:center; margin-top: 0px; margin-bottom: 0px; font-size: 40px"";>מוכנים לשלם: <span id=""c_p_y""></span></p>","22","evaluation","10","24","6A,21A","25","64","22","","","","","","","","","","","","","","","","",""
"","","","","","html-keyboard-response","65","8633962","0.0-17.0-2.15","f6bc85fd-64e6-47fb-bc9c-79fe31547834","null","<p style=""text-align: center;"">+</p>","null","fixation","","","","","","","","","","","","","","","","","","","","","","",""
"","","","","","html-slider-response","66","8634976","0.0-17.0-0.16","f6bc85fd-64e6-47fb-bc9c-79fe31547834","1000","
                  <p style=""text-align: center;"">₪4
                                                <br>25%</p>
                  <p id=""wtp"" style=""text-align:center; margin-top: 0px; margin-bottom: 0px; font-size: 40px"";>&ensp;</p>","-","viewing","0","1","6C,29B,30C","","","","","","","","","","","","","","","","","","","",""
"","","","","","html-slider-response","67","8636252","0.0-17.0-1.16","f6bc85fd-64e6-47fb-bc9c-79fe31547834","1275","
                  <p style=""text-align: center;"">₪4
                                                <br>25%</p>
                  <p id=""wtp"" style=""text-align:center; margin-top: 0px; margin-bottom: 0px; font-size: 40px"";>מוכנים לשלם: <span id=""c_p_y""></span></p>","3","evaluation","44","1","6C,29B,30C","25","4","3","","","","","","","","","","","","","","","","",""
"","","","","","html-keyboard-response","68","8637051","0.0-17.0-2.16","f6bc85fd-64e6-47fb-bc9c-79fe31547834","null","<p style=""text-align: center;"">+</p>","null","fixation","","","","","","","","","","","","","","","","","","","","","","",""
"","","","","","html-slider-response","69","8638052","0.0-17.0-0.17","f6bc85fd-64e6-47fb-bc9c-79fe31547834","1000","
                  <p style=""text-align: center;"">₪36
                                                <br>60%</p>
                  <p id=""wtp"" style=""text-align:center; margin-top: 0px; margin-bottom: 0px; font-size: 40px"";>&ensp;</p>","-","viewing","0","12","1C,7C,15C","","","","","","","","","","","","","","","","","","","",""
"","","","","","html-slider-response","70","8639716","0.0-17.0-1.17","f6bc85fd-64e6-47fb-bc9c-79fe31547834","1664","
                  <p style=""text-align: center;"">₪36
                                                <br>60%</p>
                  <p id=""wtp"" style=""text-align:center; margin-top: 0px; margin-bottom: 0px; font-size: 40px"";>מוכנים לשלם: <span id=""c_p_y""></span></p>","41","evaluation","67","12","1C,7C,15C","60","36","41","","","","","","","","","","","","","","","","",""
"","","","","","html-keyboard-response","71","8640541","0.0-17.0-2.17","f6bc85fd-64e6-47fb-bc9c-79fe31547834","null","<p style=""text-align: center;"">+</p>","null","fixation","","","","","","","","","","","","","","","","","","","","","","",""
"","","","","","html-slider-response","72","8641547","0.0-17.0-0.18","f6bc85fd-64e6-47fb-bc9c-79fe31547834","1000","
                  <p style=""text-align: center;"">₪61
                                                <br>55%</p>
                  <p id=""wtp"" style=""text-align:center; margin-top: 0px; margin-bottom: 0px; font-size: 40px"";>&ensp;</p>","-","viewing","0","23","7B,26B","","","","","","","","","","","","","","","","","","","",""
"","","","","","html-slider-response","73","8643364","0.0-17.0-1.18","f6bc85fd-64e6-47fb-bc9c-79fe31547834","1816","
                  <p style=""text-align: center;"">₪61
                                                <br>55%</p>
                  <p id=""wtp"" style=""text-align:center; margin-top: 0px; margin-bottom: 0px; font-size: 40px"";>מוכנים לשלם: <span id=""c_p_y""></span></p>","17","evaluation","13","23","7B,26B","55","61","17","","","","","","","","","","","","","","","","",""
"","","","","","html-keyboard-response","74","8644069","0.0-17.0-2.18","f6bc85fd-64e6-47fb-bc9c-79fe31547834","null","<p style=""text-align: center;"">+</p>","null","fixation","","","","","","","","","","","","","","","","","","","","","","",""
"","","","","","html-slider-response","75","8645082","0.0-17.0-0.19","f6bc85fd-64e6-47fb-bc9c-79fe31547834","1000","
                  <p style=""text-align: center;"">₪71
                                                <br>75%</p>
                  <p id=""wtp"" style=""text-align:center; margin-top: 0px; margin-bottom: 0px; font-size: 40px"";>&ensp;</p>","-","viewing","0","28","8B","","","","","","","","","","","","","","","","","","","",""
"","","","","","html-slider-response","76","8646444","0.0-17.0-1.19","f6bc85fd-64e6-47fb-bc9c-79fe31547834","1361","
                  <p style=""text-align: center;"">₪71
                                                <br>75%</p>
                  <p id=""wtp"" style=""text-align:center; margin-top: 0px; margin-bottom: 0px; font-size: 40px"";>מוכנים לשלם: <span id=""c_p_y""></span></p>","57","evaluation","55","28","8B","75","71","57","","","","","","","","","","","","","","","","",""
"","","","","","html-keyboard-response","77","8647617","0.0-17.0-2.19","f6bc85fd-64e6-47fb-bc9c-79fe31547834","null","<p style=""text-align: center;"">+</p>","null","fixation","","","","","","","","","","","","","","","","","","","","","","",""
"","","","","","html-slider-response","78","8648626","0.0-17.0-0.20","f6bc85fd-64e6-47fb-bc9c-79fe31547834","1000","
                  <p style=""text-align: center;"">₪58
                                                <br>40%</p>
                  <p id=""wtp"" style=""text-align:center; margin-top: 0px; margin-bottom: 0px; font-size: 40px"";>&ensp;</p>","-","viewing","0","20","10C,13A,19C,21B","","","","","","","","","","","","","","","","","","","",""
"","","","","","html-slider-response","79","8650044","0.0-17.0-1.20","f6bc85fd-64e6-47fb-bc9c-79fe31547834","1417","
                  <p style=""text-align: center;"">₪58
                                                <br>40%</p>
                  <p id=""wtp"" style=""text-align:center; margin-top: 0px; margin-bottom: 0px; font-size: 40px"";>מוכנים לשלם: <span id=""c_p_y""></span></p>","48","evaluation","51","20","10C,13A,19C,21B","40","58","48","","","","","","","","","","","","","","","","",""
"","","","","","html-keyboard-response","80","8651408","0.0-17.0-2.20","f6bc85fd-64e6-47fb-bc9c-79fe31547834","null","<p style=""text-align: center;"">+</p>","null","fixation","","","","","","","","","","","","","","","","","","","","","","",""
"","","","","","html-slider-response","81","8652413","0.0-17.0-0.21","f6bc85fd-64e6-47fb-bc9c-79fe31547834","1000","
                  <p style=""text-align: center;"">₪11
                                                <br>25%</p>
                  <p id=""wtp"" style=""text-align:center; margin-top: 0px; margin-bottom: 0px; font-size: 40px"";>&ensp;</p>","-","viewing","0","5","12A,27B,28B,30B","","","","","","","","","","","","","","","","","","","",""
"","","","","","html-slider-response","82","8653668","0.0-17.0-1.21","f6bc85fd-64e6-47fb-bc9c-79fe31547834","1254","
                  <p style=""text-align: center;"">₪11
                                                <br>25%</p>
                  <p id=""wtp"" style=""text-align:center; margin-top: 0px; margin-bottom: 0px; font-size: 40px"";>מוכנים לשלם: <span id=""c_p_y""></span></p>","8","evaluation","80","5","12A,27B,28B,30B","25","11","8","","","","","","","","","","","","","","","","",""
"","","","","","html-keyboard-response","83","8654913","0.0-17.0-2.21","f6bc85fd-64e6-47fb-bc9c-79fe31547834","null","<p style=""text-align: center;"">+</p>","null","fixation","","","","","","","","","","","","","","","","","","","","","","",""
"","","","","","html-slider-response","84","8655916","0.0-17.0-0.22","f6bc85fd-64e6-47fb-bc9c-79fe31547834","1000","
                  <p style=""text-align: center;"">₪43
                                                <br>60%</p>
                  <p id=""wtp"" style=""text-align:center; margin-top: 0px; margin-bottom: 0px; font-size: 40px"";>&ensp;</p>","-","viewing","0","17","2A,7A,9A,15B","","","","","","","","","","","","","","","","","","","",""
"","","","","","html-slider-response","85","8657156","0.0-17.0-1.22","f6bc85fd-64e6-47fb-bc9c-79fe31547834","1239","
                  <p style=""text-align: center;"">₪43
                                                <br>60%</p>
                  <p id=""wtp"" style=""text-align:center; margin-top: 0px; margin-bottom: 0px; font-size: 40px"";>מוכנים לשלם: <span id=""c_p_y""></span></p>","46","evaluation","80","17","2A,7A,9A,15B","60","43","46","","","","","","","","","","","","","","","","",""
"","","","","","html-keyboard-response","86","8657887","0.0-17.0-2.22","f6bc85fd-64e6-47fb-bc9c-79fe31547834","null","<p style=""text-align: center;"">+</p>","null","fixation","","","","","","","","","","","","","","","","","","","","","","",""
"","","","","","html-slider-response","87","8658902","0.0-17.0-0.23","f6bc85fd-64e6-47fb-bc9c-79fe31547834","1000","
                  <p style=""text-align: center;"">₪64
                                                <br>50%</p>
                  <p id=""wtp"" style=""text-align:center; margin-top: 0px; margin-bottom: 0px; font-size: 40px"";>&ensp;</p>","-","viewing","0","25","1B,3B,4A","","","","","","","","","","","","","","","","","","","",""
"","","","","","html-slider-response","88","8660484","0.0-17.0-1.23","f6bc85fd-64e6-47fb-bc9c-79fe31547834","1581","
                  <p style=""text-align: center;"">₪64
                                                <br>50%</p>
                  <p id=""wtp"" style=""text-align:center; margin-top: 0px; margin-bottom: 0px; font-size: 40px"";>מוכנים לשלם: <span id=""c_p_y""></span></p>","15","evaluation","52","25","1B,3B,4A","50","64","15","","","","","","","","","","","","","","","","",""
"","","","","","html-keyboard-response","89","8661709","0.0-17.0-2.23","f6bc85fd-64e6-47fb-bc9c-79fe31547834","null","<p style=""text-align: center;"">+</p>","null","fixation","","","","","","","","","","","","","","","","","","","","","","",""
"","","","","","html-slider-response","90","8662722","0.0-17.0-0.24","f6bc85fd-64e6-47fb-bc9c-79fe31547834","1000","
                  <p style=""text-align: center;"">₪18
                                                <br>50%</p>
                  <p id=""wtp"" style=""text-align:center; margin-top: 0px; margin-bottom: 0px; font-size: 40px"";>&ensp;</p>","-","viewing","0","10","2C,16C,22B,28A","","","","","","","","","","","","","","","","","","","",""
"","","","","","html-slider-response","91","8663572","0.0-17.0-1.24","f6bc85fd-64e6-47fb-bc9c-79fe31547834","849","
                  <p style=""text-align: center;"">₪18
                                                <br>50%</p>
                  <p id=""wtp"" style=""text-align:center; margin-top: 0px; margin-bottom: 0px; font-size: 40px"";>מוכנים לשלם: <span id=""c_p_y""></span></p>","9","evaluation","46","10","2C,16C,22B,28A","50","18","9","","","","","","","","","","","","","","","","",""
"","","","","","html-keyboard-response","92","8664373","0.0-17.0-2.24","f6bc85fd-64e6-47fb-bc9c-79fe31547834","null","<p style=""text-align: center;"">+</p>","null","fixation","","","","","","","","","","","","","","","","","","","","","","",""
"","","","","","html-slider-response","93","8665383","0.0-17.0-0.25","f6bc85fd-64e6-47fb-bc9c-79fe31547834","1000","
                  <p style=""text-align: center;"">₪11
                                                <br>20%</p>
                  <p id=""wtp"" style=""text-align:center; margin-top: 0px; margin-bottom: 0px; font-size: 40px"";>&ensp;</p>","-","viewing","0","4","12C,17C,23C,28C","","","","","","","","","","","","","","","","","","","",""
"","","","","","html-slider-response","94","8666532","0.0-17.0-1.25","f6bc85fd-64e6-47fb-bc9c-79fe31547834","1149","
                  <p style=""text-align: center;"">₪11
                                                <br>20%</p>
                  <p id=""wtp"" style=""text-align:center; margin-top: 0px; margin-bottom: 0px; font-size: 40px"";>מוכנים לשלם: <span id=""c_p_y""></span></p>","3","evaluation","13","4","12C,17C,23C,28C","20","11","3","","","","","","","","","","","","","","","","",""
"","","","","","html-keyboard-response","95","8667107","0.0-17.0-2.25","f6bc85fd-64e6-47fb-bc9c-79fe31547834","null","<p style=""text-align: center;"">+</p>","null","fixation","","","","","","","","","","","","","","","","","","","","","","",""
"","","","","","html-slider-response","96","8668110","0.0-17.0-0.26","f6bc85fd-64e6-47fb-bc9c-79fe31547834","1000","
                  <p style=""text-align: center;"">₪71
                                                <br>55%</p>
                  <p id=""wtp"" style=""text-align:center; margin-top: 0px; margin-bottom: 0px; font-size: 40px"";>&ensp;</p>","-","viewing","0","27","5B,18A","","","","","","","","","","","","","","","","","","","",""
"","","","","","html-slider-response","97","8669092","0.0-17.0-1.26","f6bc85fd-64e6-47fb-bc9c-79fe31547834","982","
                  <p style=""text-align: center;"">₪71
                                                <br>55%</p>
                  <p id=""wtp"" style=""text-align:center; margin-top: 0px; margin-bottom: 0px; font-size: 40px"";>מוכנים לשלם: <span id=""c_p_y""></span></p>","22","evaluation","66","27","5B,18A","55","71","22","","","","","","","","","","","","","","","","",""
"","","","","","html-keyboard-response","98","8669973","0.0-17.0-2.26","f6bc85fd-64e6-47fb-bc9c-79fe31547834","null","<p style=""text-align: center;"">+</p>","null","fixation","","","","","","","","","","","","","","","","","","","","","","",""
"","","","","","html-slider-response","99","8670987","0.0-17.0-0.27","f6bc85fd-64e6-47fb-bc9c-79fe31547834","1000","
                  <p style=""text-align: center;"">₪16
                                                <br>20%</p>
                  <p id=""wtp"" style=""text-align:center; margin-top: 0px; margin-bottom: 0px; font-size: 40px"";>&ensp;</p>","-","viewing","0","8","14C,17A,20C,27A","","","","","","","","","","","","","","","","","","","",""
"","","","","","html-slider-response","100","8672060","0.0-17.0-1.27","f6bc85fd-64e6-47fb-bc9c-79fe31547834","1073","
                  <p style=""text-align: center;"">₪16
                                                <br>20%</p>
                  <p id=""wtp"" style=""text-align:center; margin-top: 0px; margin-bottom: 0px; font-size: 40px"";>מוכנים לשלם: <span id=""c_p_y""></span></p>","25","evaluation","15","8","14C,17A,20C,27A","20","16","25","","","","","","","","","","","","","","","","",""
"","","","","","html-keyboard-response","101","8673131","0.0-17.0-2.27","f6bc85fd-64e6-47fb-bc9c-79fe31547834","null","<p style=""text-align: center;"">+</p>","null","fixation","","","","","","","","","","","","","","","","","","","","","","",""
"","","","","","html-slider-response","102","8674133","0.0-17.0-0.28","f6bc85fd-64e6-47fb-bc9c-79fe31547834","1000","
                  <p style=""text-align: center;"">₪43
                                                <br>75%</p>
                  <p id=""wtp"" style=""text-align:center; margin-top: 0px; margin-bottom: 0px; font-size: 40px"";>&ensp;</p>","-","viewing","0","18","11B,19B,24A,26A","","","","","","","","","","","","","","","","","","","",""
"","","","","","html-slider-response","103","8675444","0.0-17.0-1.28","f6bc85fd-64e6-47fb-bc9c-79fe31547834","1310","
                  <p style=""text-align: center;"">₪43
                                                <br>75%</p>
                  <p id=""wtp"" style=""text-align:center; margin-top: 0px; margin-bottom: 0px; font-size: 40px"";>מוכנים לשלם: <span id=""c_p_y""></span></p>","35","evaluation","29","18","11B,19B,24A,26A","75","43","35","","","","","","","","","","","","","","","","",""
"","","","","","html-keyboard-response","104","8676900","0.0-17.0-2.28","f6bc85fd-64e6-47fb-bc9c-79fe31547834","null","<p style=""text-align: center;"">+</p>","null","fixation","","","","","","","","","","","","","","","","","","","","","","",""
"","","","","","html-slider-response","105","8677906","0.0-17.0-0.29","f6bc85fd-64e6-47fb-bc9c-79fe31547834","1000","
                  <p style=""text-align: center;"">₪36
                                                <br>70%</p>
                  <p id=""wtp"" style=""text-align:center; margin-top: 0px; margin-bottom: 0px; font-size: 40px"";>&ensp;</p>","-","viewing","0","13","3A,5C,10B","","","","","","","","","","","","","","","","","","","",""
"","","","","","html-slider-response","106","8680364","0.0-17.0-1.29","f6bc85fd-64e6-47fb-bc9c-79fe31547834","2457","
                  <p style=""text-align: center;"">₪36
                                                <br>70%</p>
                  <p id=""wtp"" style=""text-align:center; margin-top: 0px; margin-bottom: 0px; font-size: 40px"";>מוכנים לשלם: <span id=""c_p_y""></span></p>","43","evaluation","73","13","3A,5C,10B","70","36","43","","","","","","","","","","","","","","","","",""
"","","","","","html-keyboard-response","107","8680932","0.0-17.0-2.29","f6bc85fd-64e6-47fb-bc9c-79fe31547834","null","<p style=""text-align: center;"">+</p>","null","fixation","","","","","","","","","","","","","","","","","","","","","","",""
"","","","","","html-slider-response","108","8681935","0.0-17.0-0.30","f6bc85fd-64e6-47fb-bc9c-79fe31547834","1000","
                  <p style=""text-align: center;"">₪4
                                                <br>75%</p>
                  <p id=""wtp"" style=""text-align:center; margin-top: 0px; margin-bottom: 0px; font-size: 40px"";>&ensp;</p>","-","viewing","0","3","12B,20B,23B,27C,29C","","","","","","","","","","","","","","","","","","","",""
"","","","","","html-slider-response","109","8682836","0.0-17.0-1.30","f6bc85fd-64e6-47fb-bc9c-79fe31547834","900","
                  <p style=""text-align: center;"">₪4
                                                <br>75%</p>
                  <p id=""wtp"" style=""text-align:center; margin-top: 0px; margin-bottom: 0px; font-size: 40px"";>מוכנים לשלם: <span id=""c_p_y""></span></p>","0","evaluation","71","3","12B,20B,23B,27C,29C","75","4","0","","","","","","","","","","","","","","","","",""
"","","","","","html-keyboard-response","110","8684323","0.0-17.0-2.30","f6bc85fd-64e6-47fb-bc9c-79fe31547834","null","<p style=""text-align: center;"">+</p>","null","fixation","","","","","","","","","","","","","","","","","","","","","","",""
"","","","","","html-keyboard-response","111","8685338","0.0-18.0","f6bc85fd-64e6-47fb-bc9c-79fe31547834","null","<p style=""text-align: center;"">+</p>","null","fixation","","","","","","","","","","","","","","","","","","","","","","",""
"","","","","","html-keyboard-response","112","8687164","0.0-19.0","f6bc85fd-64e6-47fb-bc9c-79fe31547834","null","<p>הפסקה.
          <br>לחצו כדי להמשיך.</p>","1","scan_wait","","","","","","","","","","","","","","","","","","","","","","",""
"","","","","","html-keyboard-response","113","8688169","0.0-20.0","f6bc85fd-64e6-47fb-bc9c-79fe31547834","null","<p style=""text-align: center;"">+</p>","null","fixation","","","","","","","","","","","","","","","","","","","","","","",""
"","","","","","html-slider-response","114","8689173","0.0-21.0-0.0","f6bc85fd-64e6-47fb-bc9c-79fe31547834","1000","
                  <p style=""text-align: center;"">₪71
                                                <br>45%</p>
                  <p id=""wtp"" style=""text-align:center; margin-top: 0px; margin-bottom: 0px; font-size: 40px"";>&ensp;</p>","-","viewing","0","26","2B,16A","","","","","","","","","","","","","","","","","","","",""
"","","","","","html-slider-response","115","8690668","0.0-21.0-1.0","f6bc85fd-64e6-47fb-bc9c-79fe31547834","1494","
                  <p style=""text-align: center;"">₪71
                                                <br>45%</p>
                  <p id=""wtp"" style=""text-align:center; margin-top: 0px; margin-bottom: 0px; font-size: 40px"";>מוכנים לשלם: <span id=""c_p_y""></span></p>","32","evaluation","53","26","2B,16A","45","71","32","","","","","","","","","","","","","","","","",""
"","","","","","html-keyboard-response","116","8692088","0.0-21.0-2.0","f6bc85fd-64e6-47fb-bc9c-79fe31547834","null","<p style=""text-align: center;"">+</p>","null","fixation","","","","","","","","","","","","","","","","","","","","","","",""
"","","","","","html-slider-response","117","8693092","0.0-21.0-0.1","f6bc85fd-64e6-47fb-bc9c-79fe31547834","1000","
                  <p style=""text-align: center;"">₪11
                                                <br>25%</p>
                  <p id=""wtp"" style=""text-align:center; margin-top: 0px; margin-bottom: 0px; font-size: 40px"";>&ensp;</p>","-","viewing","0","5","12A,27B,28B,30B","","","","","","","","","","","","","","","","","","","",""
"","","","","","html-slider-response","118","8693812","0.0-21.0-1.1","f6bc85fd-64e6-47fb-bc9c-79fe31547834","720","
                  <p style=""text-align: center;"">₪11
                                                <br>25%</p>
                  <p id=""wtp"" style=""text-align:center; margin-top: 0px; margin-bottom: 0px; font-size: 40px"";>מוכנים לשלם: <span id=""c_p_y""></span></p>","5","evaluation","60","5","12A,27B,28B,30B","25","11","5","","","","","","","","","","","","","","","","",""
"","","","","","html-keyboard-response","119","8694379","0.0-21.0-2.1","f6bc85fd-64e6-47fb-bc9c-79fe31547834","null","<p style=""text-align: center;"">+</p>","null","fixation","","","","","","","","","","","","","","","","","","","","","","",""
"","","","","","html-slider-response","120","8695381","0.0-21.0-0.2","f6bc85fd-64e6-47fb-bc9c-79fe31547834","1000","
                  <p style=""text-align: center;"">₪4
                                                <br>50%</p>
                  <p id=""wtp"" style=""text-align:center; margin-top: 0px; margin-bottom: 0px; font-size: 40px"";>&ensp;</p>","-","viewing","0","2","4C,17B","","","","","","","","","","","","","","","","","","","",""
"","","","","","html-slider-response","121","8696084","0.0-21.0-1.2","f6bc85fd-64e6-47fb-bc9c-79fe31547834","702","
                  <p style=""text-align: center;"">₪4
                                                <br>50%</p>
                  <p id=""wtp"" style=""text-align:center; margin-top: 0px; margin-bottom: 0px; font-size: 40px"";>מוכנים לשלם: <span id=""c_p_y""></span></p>","3","evaluation","62","2","4C,17B","50","4","3","","","","","","","","","","","","","","","","",""
"","","","","","html-keyboard-response","122","8697403","0.0-21.0-2.2","f6bc85fd-64e6-47fb-bc9c-79fe31547834","null","<p style=""text-align: center;"">+</p>","null","fixation","","","","","","","","","","","","","","","","","","","","","","",""
"","","","","","html-slider-response","123","8698406","0.0-21.0-0.3","f6bc85fd-64e6-47fb-bc9c-79fe31547834","1000","
                  <p style=""text-align: center;"">₪43
                                                <br>60%</p>
                  <p id=""wtp"" style=""text-align:center; margin-top: 0px; margin-bottom: 0px; font-size: 40px"";>&ensp;</p>","-","viewing","0","17","2A,7A,9A,15B","","","","","","","","","","","","","","","","","","","",""
"","","","","","html-slider-response","124","8699596","0.0-21.0-1.3","f6bc85fd-64e6-47fb-bc9c-79fe31547834","1190","
                  <p style=""text-align: center;"">₪43
                                                <br>60%</p>
                  <p id=""wtp"" style=""text-align:center; margin-top: 0px; margin-bottom: 0px; font-size: 40px"";>מוכנים לשלם: <span id=""c_p_y""></span></p>","20","evaluation","4","17","2A,7A,9A,15B","60","43","20","","","","","","","","","","","","","","","","",""
"","","","","","html-keyboard-response","125","8700611","0.0-21.0-2.3","f6bc85fd-64e6-47fb-bc9c-79fe31547834","null","<p style=""text-align: center;"">+</p>","null","fixation","","","","","","","","","","","","","","","","","","","","","","",""
"","","","","","html-slider-response","126","8701626","0.0-21.0-0.4","f6bc85fd-64e6-47fb-bc9c-79fe31547834","1000","
                  <p style=""text-align: center;"">₪64
                                                <br>25%</p>
                  <p id=""wtp"" style=""text-align:center; margin-top: 0px; margin-bottom: 0px; font-size: 40px"";>&ensp;</p>","-","viewing","0","24","6A,21A","","","","","","","","","","","","","","","","","","","",""
"","","","","","html-slider-response","127","8702476","0.0-21.0-1.4","f6bc85fd-64e6-47fb-bc9c-79fe31547834","849","
                  <p style=""text-align: center;"">₪64
                                                <br>25%</p>
                  <p id=""wtp"" style=""text-align:center; margin-top: 0px; margin-bottom: 0px; font-size: 40px"";>מוכנים לשלם: <span id=""c_p_y""></span></p>","18","evaluation","32","24","6A,21A","25","64","18","","","","","","","","","","","","","","","","",""
"","","","","","html-keyboard-response","128","8703803","0.0-21.0-2.4","f6bc85fd-64e6-47fb-bc9c-79fe31547834","null","<p style=""text-align: center;"">+</p>","null","fixation","","","","","","","","","","","","","","","","","","","","","","",""
"","","","","","html-slider-response","129","8704815","0.0-21.0-0.5","f6bc85fd-64e6-47fb-bc9c-79fe31547834","1000","
                  <p style=""text-align: center;"">₪58
                                                <br>40%</p>
                  <p id=""wtp"" style=""text-align:center; margin-top: 0px; margin-bottom: 0px; font-size: 40px"";>&ensp;</p>","-","viewing","0","20","10C,13A,19C,21B","","","","","","","","","","","","","","","","","","","",""
"","","","","","html-slider-response","130","8706132","0.0-21.0-1.5","f6bc85fd-64e6-47fb-bc9c-79fe31547834","1316","
                  <p style=""text-align: center;"">₪58
                                                <br>40%</p>
                  <p id=""wtp"" style=""text-align:center; margin-top: 0px; margin-bottom: 0px; font-size: 40px"";>מוכנים לשלם: <span id=""c_p_y""></span></p>","40","evaluation","2","20","10C,13A,19C,21B","40","58","40","","","","","","","","","","","","","","","","",""
"","","","","","html-keyboard-response","131","8706713","0.0-21.0-2.5","f6bc85fd-64e6-47fb-bc9c-79fe31547834","null","<p style=""text-align: center;"">+</p>","null","fixation","","","","","","","","","","","","","","","","","","","","","","",""
"","","","","","html-slider-response","132","8707717","0.0-21.0-0.6","f6bc85fd-64e6-47fb-bc9c-79fe31547834","1000","
                  <p style=""text-align: center;"">₪36
                                                <br>75%</p>
                  <p id=""wtp"" style=""text-align:center; margin-top: 0px; margin-bottom: 0px; font-size: 40px"";>&ensp;</p>","-","viewing","0","14","4B,5A,13B,16B","","","","","","","","","","","","","","","","","","","",""
"","","","","","html-slider-response","133","8708348","0.0-21.0-1.6","f6bc85fd-64e6-47fb-bc9c-79fe31547834","631","
                  <p style=""text-align: center;"">₪36
                                                <br>75%</p>
                  <p id=""wtp"" style=""text-align:center; margin-top: 0px; margin-bottom: 0px; font-size: 40px"";>מוכנים לשלם: <span id=""c_p_y""></span></p>","27","evaluation","15","14","4B,5A,13B,16B","75","36","27","","","","","","","","","","","","","","","","",""
"","","","","","html-keyboard-response","134","8709682","0.0-21.0-2.6","f6bc85fd-64e6-47fb-bc9c-79fe31547834","null","<p style=""text-align: center;"">+</p>","null","fixation","","","","","","","","","","","","","","","","","","","","","","",""
"","","","","","html-slider-response","135","8710685","0.0-21.0-0.7","f6bc85fd-64e6-47fb-bc9c-79fe31547834","1000","
                  <p style=""text-align: center;"">₪61
                                                <br>55%</p>
                  <p id=""wtp"" style=""text-align:center; margin-top: 0px; margin-bottom: 0px; font-size: 40px"";>&ensp;</p>","-","viewing","0","23","7B,26B","","","","","","","","","","","","","","","","","","","",""
"","","","","","html-slider-response","136","8712236","0.0-21.0-1.7","f6bc85fd-64e6-47fb-bc9c-79fe31547834","1550","
                  <p style=""text-align: center;"">₪61
                                                <br>55%</p>
                  <p id=""wtp"" style=""text-align:center; margin-top: 0px; margin-bottom: 0px; font-size: 40px"";>מוכנים לשלם: <span id=""c_p_y""></span></p>","39","evaluation","45","23","7B,26B","55","61","39","","","","","","","","","","","","","","","","",""
"","","","","","html-keyboard-response","137","8713258","0.0-21.0-2.7","f6bc85fd-64e6-47fb-bc9c-79fe31547834","null","<p style=""text-align: center;"">+</p>","null","fixation","","","","","","","","","","","","","","","","","","","","","","",""
"","","","","","html-slider-response","138","8714275","0.0-21.0-0.8","f6bc85fd-64e6-47fb-bc9c-79fe31547834","1000","
                  <p style=""text-align: center;"">₪79
                                                <br>65%</p>
                  <p id=""wtp"" style=""text-align:center; margin-top: 0px; margin-bottom: 0px; font-size: 40px"";>&ensp;</p>","-","viewing","0","31","8A","","","","","","","","","","","","","","","","","","","",""
"","","","","","html-slider-response","139","8715316","0.0-21.0-1.8","f6bc85fd-64e6-47fb-bc9c-79fe31547834","1041","
                  <p style=""text-align: center;"">₪79
                                                <br>65%</p>
                  <p id=""wtp"" style=""text-align:center; margin-top: 0px; margin-bottom: 0px; font-size: 40px"";>מוכנים לשלם: <span id=""c_p_y""></span></p>","47","evaluation","19","31","8A","65","79","47","","","","","","","","","","","","","","","","",""
"","","","","","html-keyboard-response","140","8716045","0.0-21.0-2.8","f6bc85fd-64e6-47fb-bc9c-79fe31547834","null","<p style=""text-align: center;"">+</p>","null","fixation","","","","","","","","","","","","","","","","","","","","","","",""
"","","","","","html-slider-response","141","8717060","0.0-21.0-0.9","f6bc85fd-64e6-47fb-bc9c-79fe31547834","1000","
                  <p style=""text-align: center;"">₪58
                                                <br>45%</p>
                  <p id=""wtp"" style=""text-align:center; margin-top: 0px; margin-bottom: 0px; font-size: 40px"";>&ensp;</p>","-","viewing","0","21","11C,18C,25A","","","","","","","","","","","","","","","","","","","",""
"","","","","","html-slider-response","142","8718692","0.0-21.0-1.9","f6bc85fd-64e6-47fb-bc9c-79fe31547834","1631","
                  <p style=""text-align: center;"">₪58
                                                <br>45%</p>
                  <p id=""wtp"" style=""text-align:center; margin-top: 0px; margin-bottom: 0px; font-size: 40px"";>מוכנים לשלם: <span id=""c_p_y""></span></p>","37","evaluation","21","21","11C,18C,25A","45","58","37","","","","","","","","","","","","","","","","",""
"","","","","","html-keyboard-response","143","8719277","0.0-21.0-2.9","f6bc85fd-64e6-47fb-bc9c-79fe31547834","null","<p style=""text-align: center;"">+</p>","null","fixation","","","","","","","","","","","","","","","","","","","","","","",""
"","","","","","html-slider-response","144","8720280","0.0-21.0-0.10","f6bc85fd-64e6-47fb-bc9c-79fe31547834","1000","
                  <p style=""text-align: center;"">₪18
                                                <br>25%</p>
                  <p id=""wtp"" style=""text-align:center; margin-top: 0px; margin-bottom: 0px; font-size: 40px"";>&ensp;</p>","-","viewing","0","9","14A,23A","","","","","","","","","","","","","","","","","","","",""
"","","","","","html-slider-response","145","8721316","0.0-21.0-1.10","f6bc85fd-64e6-47fb-bc9c-79fe31547834","1035","
                  <p style=""text-align: center;"">₪18
                                                <br>25%</p>
                  <p id=""wtp"" style=""text-align:center; margin-top: 0px; margin-bottom: 0px; font-size: 40px"";>מוכנים לשלם: <span id=""c_p_y""></span></p>","8","evaluation","15","9","14A,23A","25","18","8","","","","","","","","","","","","","","","","",""
"","","","","","html-keyboard-response","146","8721833","0.0-21.0-2.10","f6bc85fd-64e6-47fb-bc9c-79fe31547834","null","<p style=""text-align: center;"">+</p>","null","fixation","","","","","","","","","","","","","","","","","","","","","","",""
"","","","","","html-slider-response","147","8722843","0.0-21.0-0.11","f6bc85fd-64e6-47fb-bc9c-79fe31547834","1000","
                  <p style=""text-align: center;"">₪16
                                                <br>20%</p>
                  <p id=""wtp"" style=""text-align:center; margin-top: 0px; margin-bottom: 0px; font-size: 40px"";>&ensp;</p>","-","viewing","0","8","14C,17A,20C,27A","","","","","","","","","","","","","","","","","","","",""
"","","","","","html-slider-response","148","8723636","0.0-21.0-1.11","f6bc85fd-64e6-47fb-bc9c-79fe31547834","792","
                  <p style=""text-align: center;"">₪16
                                                <br>20%</p>
                  <p id=""wtp"" style=""text-align:center; margin-top: 0px; margin-bottom: 0px; font-size: 40px"";>מוכנים לשלם: <span id=""c_p_y""></span></p>","13","evaluation","0","8","14C,17A,20C,27A","20","16","14","","","","","","","","","","","","","","","","",""
"","","","","","html-keyboard-response","149","8724447","0.0-21.0-2.11","f6bc85fd-64e6-47fb-bc9c-79fe31547834","null","<p style=""text-align: center;"">+</p>","null","fixation","","","","","","","","","","","","","","","","","","","","","","",""
"","","","","","html-slider-response","150","8725459","0.0-21.0-0.12","f6bc85fd-64e6-47fb-bc9c-79fe31547834","1000","
                  <p style=""text-align: center;"">₪36
                                                <br>30%</p>
                  <p id=""wtp"" style=""text-align:center; margin-top: 0px; margin-bottom: 0px; font-size: 40px"";>&ensp;</p>","-","viewing","0","11","3C,20A,22A","","","","","","","","","","","","","","","","","","","",""
"","","","","","html-slider-response","151","8726188","0.0-21.0-1.12","f6bc85fd-64e6-47fb-bc9c-79fe31547834","728","
                  <p style=""text-align: center;"">₪36
                                                <br>30%</p>
                  <p id=""wtp"" style=""text-align:center; margin-top: 0px; margin-bottom: 0px; font-size: 40px"";>מוכנים לשלם: <span id=""c_p_y""></span></p>","13","evaluation","32","11","3C,20A,22A","30","36","13","","","","","","","","","","","","","","","","",""
"","","","","","html-keyboard-response","152","8727513","0.0-21.0-2.12","f6bc85fd-64e6-47fb-bc9c-79fe31547834","null","<p style=""text-align: center;"">+</p>","null","fixation","","","","","","","","","","","","","","","","","","","","","","",""
"","","","","","html-slider-response","153","8728520","0.0-21.0-0.13","f6bc85fd-64e6-47fb-bc9c-79fe31547834","1000","
                  <p style=""text-align: center;"">₪71
                                                <br>75%</p>
                  <p id=""wtp"" style=""text-align:center; margin-top: 0px; margin-bottom: 0px; font-size: 40px"";>&ensp;</p>","-","viewing","0","28","8B","","","","","","","","","","","","","","","","","","","",""
"","","","","","html-slider-response","154","8730268","0.0-21.0-1.13","f6bc85fd-64e6-47fb-bc9c-79fe31547834","1747","
                  <p style=""text-align: center;"">₪71
                                                <br>75%</p>
                  <p id=""wtp"" style=""text-align:center; margin-top: 0px; margin-bottom: 0px; font-size: 40px"";>מוכנים לשלם: <span id=""c_p_y""></span></p>","60","evaluation","13","28","8B","75","71","60","","","","","","","","","","","","","","","","",""
"","","","","","html-keyboard-response","155","8731180","0.0-21.0-2.13","f6bc85fd-64e6-47fb-bc9c-79fe31547834","null","<p style=""text-align: center;"">+</p>","null","fixation","","","","","","","","","","","","","","","","","","","","","","",""
"","","","","","html-slider-response","156","8732193","0.0-21.0-0.14","f6bc85fd-64e6-47fb-bc9c-79fe31547834","1000","
                  <p style=""text-align: center;"">₪11
                                                <br>20%</p>
                  <p id=""wtp"" style=""text-align:center; margin-top: 0px; margin-bottom: 0px; font-size: 40px"";>&ensp;</p>","-","viewing","0","4","12C,17C,23C,28C","","","","","","","","","","","","","","","","","","","",""
"","","","","","html-slider-response","157","8734204","0.0-21.0-1.14","f6bc85fd-64e6-47fb-bc9c-79fe31547834","2010","
                  <p style=""text-align: center;"">₪11
                                                <br>20%</p>
                  <p id=""wtp"" style=""text-align:center; margin-top: 0px; margin-bottom: 0px; font-size: 40px"";>מוכנים לשלם: <span id=""c_p_y""></span></p>","25","evaluation","21","4","12C,17C,23C,28C","20","11","25","","","","","","","","","","","","","","","","",""
"","","","","","html-keyboard-response","158","8735697","0.0-21.0-2.14","f6bc85fd-64e6-47fb-bc9c-79fe31547834","null","<p style=""text-align: center;"">+</p>","null","fixation","","","","","","","","","","","","","","","","","","","","","","",""
"","","","","","html-slider-response","159","8736701","0.0-21.0-0.15","f6bc85fd-64e6-47fb-bc9c-79fe31547834","1000","
                  <p style=""text-align: center;"">₪64
                                                <br>50%</p>
                  <p id=""wtp"" style=""text-align:center; margin-top: 0px; margin-bottom: 0px; font-size: 40px"";>&ensp;</p>","-","viewing","0","25","1B,3B,4A","","","","","","","","","","","","","","","","","","","",""
"","","","","","html-slider-response","160","8738172","0.0-21.0-1.15","f6bc85fd-64e6-47fb-bc9c-79fe31547834","1470","
                  <p style=""text-align: center;"">₪64
                                                <br>50%</p>
                  <p id=""wtp"" style=""text-align:center; margin-top: 0px; margin-bottom: 0px; font-size: 40px"";>מוכנים לשלם: <span id=""c_p_y""></span></p>","23","evaluation","51","25","1B,3B,4A","50","64","23","","","","","","","","","","","","","","","","",""
"","","","","","html-keyboard-response","161","8738808","0.0-21.0-2.15","f6bc85fd-64e6-47fb-bc9c-79fe31547834","null","<p style=""text-align: center;"">+</p>","null","fixation","","","","","","","","","","","","","","","","","","","","","","",""
"","","","","","html-slider-response","162","8739820","0.0-21.0-0.16","f6bc85fd-64e6-47fb-bc9c-79fe31547834","1000","
                  <p style=""text-align: center;"">₪61
                                                <br>45%</p>
                  <p id=""wtp"" style=""text-align:center; margin-top: 0px; margin-bottom: 0px; font-size: 40px"";>&ensp;</p>","-","viewing","0","22","10A,11A","","","","","","","","","","","","","","","","","","","",""
"","","","","","html-slider-response","163","8741068","0.0-21.0-1.16","f6bc85fd-64e6-47fb-bc9c-79fe31547834","1247","
                  <p style=""text-align: center;"">₪61
                                                <br>45%</p>
                  <p id=""wtp"" style=""text-align:center; margin-top: 0px; margin-bottom: 0px; font-size: 40px"";>מוכנים לשלם: <span id=""c_p_y""></span></p>","31","evaluation","10","22","10A,11A","45","61","31","","","","","","","","","","","","","","","","",""
"","","","","","html-keyboard-response","164","8742039","0.0-21.0-2.16","f6bc85fd-64e6-47fb-bc9c-79fe31547834","null","<p style=""text-align: center;"">+</p>","null","fixation","","","","","","","","","","","","","","","","","","","","","","",""
"","","","","","html-slider-response","165","8743051","0.0-21.0-0.17","f6bc85fd-64e6-47fb-bc9c-79fe31547834","1000","
                  <p style=""text-align: center;"">₪71
                                                <br>55%</p>
                  <p id=""wtp"" style=""text-align:center; margin-top: 0px; margin-bottom: 0px; font-size: 40px"";>&ensp;</p>","-","viewing","0","27","5B,18A","","","","","","","","","","","","","","","","","","","",""
"","","","","","html-slider-response","166","8744036","0.0-21.0-1.17","f6bc85fd-64e6-47fb-bc9c-79fe31547834","985","
                  <p style=""text-align: center;"">₪71
                                                <br>55%</p>
                  <p id=""wtp"" style=""text-align:center; margin-top: 0px; margin-bottom: 0px; font-size: 40px"";>מוכנים לשלם: <span id=""c_p_y""></span></p>","39","evaluation","68","27","5B,18A","55","71","39","","","","","","","","","","","","","","","","",""
"","","","","","html-keyboard-response","167","8744914","0.0-21.0-2.17","f6bc85fd-64e6-47fb-bc9c-79fe31547834","null","<p style=""text-align: center;"">+</p>","null","fixation","","","","","","","","","","","","","","","","","","","","","","",""
"","","","","","html-slider-response","168","8745922","0.0-21.0-0.18","f6bc85fd-64e6-47fb-bc9c-79fe31547834","1000","
                  <p style=""text-align: center;"">₪39
                                                <br>60%</p>
                  <p id=""wtp"" style=""text-align:center; margin-top: 0px; margin-bottom: 0px; font-size: 40px"";>&ensp;</p>","-","viewing","0","15","9C,25B","","","","","","","","","","","","","","","","","","","",""
"","","","","","html-slider-response","169","8747924","0.0-21.0-1.18","f6bc85fd-64e6-47fb-bc9c-79fe31547834","2001","
                  <p style=""text-align: center;"">₪39
                                                <br>60%</p>
                  <p id=""wtp"" style=""text-align:center; margin-top: 0px; margin-bottom: 0px; font-size: 40px"";>מוכנים לשלם: <span id=""c_p_y""></span></p>","45","evaluation","9","15","9C,25B","60","39","45","","","","","","","","","","","","","","","","",""
"","","","","","html-keyboard-response","170","8748661","0.0-21.0-2.18","f6bc85fd-64e6-47fb-bc9c-79fe31547834","null","<p style=""text-align: center;"">+</p>","null","fixation","","","","","","","","","","","","","","","","","","","","","","",""
"","","","","","html-slider-response","171","8749663","0.0-21.0-0.19","f6bc85fd-64e6-47fb-bc9c-79fe31547834","1000","
                  <p style=""text-align: center;"">₪18
                                                <br>50%</p>
                  <p id=""wtp"" style=""text-align:center; margin-top: 0px; margin-bottom: 0px; font-size: 40px"";>&ensp;</p>","-","viewing","0","10","2C,16C,22B,28A","","","","","","","","","","","","","","","","","","","",""
"","","","","","html-slider-response","172","8751636","0.0-21.0-1.19","f6bc85fd-64e6-47fb-bc9c-79fe31547834","1972","
                  <p style=""text-align: center;"">₪18
                                                <br>50%</p>
                  <p id=""wtp"" style=""text-align:center; margin-top: 0px; margin-bottom: 0px; font-size: 40px"";>מוכנים לשלם: <span id=""c_p_y""></span></p>","14","evaluation","8","10","2C,16C,22B,28A","50","18","14","","","","","","","","","","","","","","","","",""
"","","","","","html-keyboard-response","173","8752584","0.0-21.0-2.19","f6bc85fd-64e6-47fb-bc9c-79fe31547834","null","<p style=""text-align: center;"">+</p>","null","fixation","","","","","","","","","","","","","","","","","","","","","","",""
"","","","","","html-slider-response","174","8753597","0.0-21.0-0.20","f6bc85fd-64e6-47fb-bc9c-79fe31547834","1000","
                  <p style=""text-align: center;"">₪36
                                                <br>70%</p>
                  <p id=""wtp"" style=""text-align:center; margin-top: 0px; margin-bottom: 0px; font-size: 40px"";>&ensp;</p>","-","viewing","0","13","3A,5C,10B","","","","","","","","","","","","","","","","","","","",""
"","","","","","html-slider-response","175","8755572","0.0-21.0-1.20","f6bc85fd-64e6-47fb-bc9c-79fe31547834","1974","
                  <p style=""text-align: center;"">₪36
                                                <br>70%</p>
                  <p id=""wtp"" style=""text-align:center; margin-top: 0px; margin-bottom: 0px; font-size: 40px"";>מוכנים לשלם: <span id=""c_p_y""></span></p>","6","evaluation","57","13","3A,5C,10B","70","36","6","","","","","","","","","","","","","","","","",""
"","","","","","html-keyboard-response","176","8756714","0.0-21.0-2.20","f6bc85fd-64e6-47fb-bc9c-79fe31547834","null","<p style=""text-align: center;"">+</p>","null","fixation","","","","","","","","","","","","","","","","","","","","","","",""
"","","","","","html-slider-response","177","8757722","0.0-21.0-0.21","f6bc85fd-64e6-47fb-bc9c-79fe31547834","1000","
                  <p style=""text-align: center;"">₪4
                                                <br>25%</p>
                  <p id=""wtp"" style=""text-align:center; margin-top: 0px; margin-bottom: 0px; font-size: 40px"";>&ensp;</p>","-","viewing","0","1","6C,29B,30C","","","","","","","","","","","","","","","","","","","",""
"","","","","","html-slider-response","178","8758548","0.0-21.0-1.21","f6bc85fd-64e6-47fb-bc9c-79fe31547834","825","
                  <p style=""text-align: center;"">₪4
                                                <br>25%</p>
                  <p id=""wtp"" style=""text-align:center; margin-top: 0px; margin-bottom: 0px; font-size: 40px"";>מוכנים לשלם: <span id=""c_p_y""></span></p>","1","evaluation","46","1","6C,29B,30C","25","4","1","","","","","","","","","","","","","","","","",""
"","","","","","html-keyboard-response","179","8759700","0.0-21.0-2.21","f6bc85fd-64e6-47fb-bc9c-79fe31547834","null","<p style=""text-align: center;"">+</p>","null","fixation","","","","","","","","","","","","","","","","","","","","","","",""
"","","","","","html-slider-response","180","8760706","0.0-21.0-0.22","f6bc85fd-64e6-47fb-bc9c-79fe31547834","1000","
                  <p style=""text-align: center;"">₪39
                                                <br>65%</p>
                  <p id=""wtp"" style=""text-align:center; margin-top: 0px; margin-bottom: 0px; font-size: 40px"";>&ensp;</p>","-","viewing","0","16","1A,15A,26C","","","","","","","","","","","","","","","","","","","",""
"","","","","","html-slider-response","181","8762188","0.0-21.0-1.22","f6bc85fd-64e6-47fb-bc9c-79fe31547834","1481","
                  <p style=""text-align: center;"">₪39
                                                <br>65%</p>
                  <p id=""wtp"" style=""text-align:center; margin-top: 0px; margin-bottom: 0px; font-size: 40px"";>מוכנים לשלם: <span id=""c_p_y""></span></p>","14","evaluation","27","16","1A,15A,26C","65","39","14","","","","","","","","","","","","","","","","",""
"","","","","","html-keyboard-response","182","8763404","0.0-21.0-2.22","f6bc85fd-64e6-47fb-bc9c-79fe31547834","null","<p style=""text-align: center;"">+</p>","null","fixation","","","","","","","","","","","","","","","","","","","","","","",""
"","","","","","html-slider-response","183","8764406","0.0-21.0-0.23","f6bc85fd-64e6-47fb-bc9c-79fe31547834","1000","
                  <p style=""text-align: center;"">₪58
                                                <br>30%</p>
                  <p id=""wtp"" style=""text-align:center; margin-top: 0px; margin-bottom: 0px; font-size: 40px"";>&ensp;</p>","-","viewing","0","19","13C,30A","","","","","","","","","","","","","","","","","","","",""
"","","","","","html-slider-response","184","8766236","0.0-21.0-1.23","f6bc85fd-64e6-47fb-bc9c-79fe31547834","1829","
                  <p style=""text-align: center;"">₪58
                                                <br>30%</p>
                  <p id=""wtp"" style=""text-align:center; margin-top: 0px; margin-bottom: 0px; font-size: 40px"";>מוכנים לשלם: <span id=""c_p_y""></span></p>","24","evaluation","65","19","13C,30A","30","58","24","","","","","","","","","","","","","","","","",""
"","","","","","html-keyboard-response","185","8767463","0.0-21.0-2.23","f6bc85fd-64e6-47fb-bc9c-79fe31547834","null","<p style=""text-align: center;"">+</p>","null","fixation","","","","","","","","","","","","","","","","","","","","","","",""
"","","","","","html-slider-response","186","8768469","0.0-21.0-0.24","f6bc85fd-64e6-47fb-bc9c-79fe31547834","1000","
                  <p style=""text-align: center;"">₪11
                                                <br>75%</p>
                  <p id=""wtp"" style=""text-align:center; margin-top: 0px; margin-bottom: 0px; font-size: 40px"";>&ensp;</p>","-","viewing","0","7","6B,18B,22C,24C,29A","","","","","","","","","","","","","","","","","","","",""
"","","","","","html-slider-response","187","8769612","0.0-21.0-1.24","f6bc85fd-64e6-47fb-bc9c-79fe31547834","1142","
                  <p style=""text-align: center;"">₪11
                                                <br>75%</p>
                  <p id=""wtp"" style=""text-align:center; margin-top: 0px; margin-bottom: 0px; font-size: 40px"";>מוכנים לשלם: <span id=""c_p_y""></span></p>","11","evaluation","31","7","6B,18B,22C,24C,29A","75","11","11","","","","","","","","","","","","","","","","",""
"","","","","","html-keyboard-response","188","8770965","0.0-21.0-2.24","f6bc85fd-64e6-47fb-bc9c-79fe31547834","null","<p style=""text-align: center;"">+</p>","null","fixation","","","","","","","","","","","","","","","","","","","","","","",""
"","","","","","html-slider-response","189","8771966","0.0-21.0-0.25","f6bc85fd-64e6-47fb-bc9c-79fe31547834","1000","
                  <p style=""text-align: center;"">₪4
                                                <br>75%</p>
                  <p id=""wtp"" style=""text-align:center; margin-top: 0px; margin-bottom: 0px; font-size: 40px"";>&ensp;</p>","-","viewing","0","3","12B,20B,23B,27C,29C","","","","","","","","","","","","","","","","","","","",""
"","","","","","html-slider-response","190","8773628","0.0-21.0-1.25","f6bc85fd-64e6-47fb-bc9c-79fe31547834","1661","
                  <p style=""text-align: center;"">₪4
                                                <br>75%</p>
                  <p id=""wtp"" style=""text-align:center; margin-top: 0px; margin-bottom: 0px; font-size: 40px"";>מוכנים לשלם: <span id=""c_p_y""></span></p>","1","evaluation","66","3","12B,20B,23B,27C,29C","75","4","2","","","","","","","","","","","","","","","","",""
"","","","","","html-keyboard-response","191","8774872","0.0-21.0-2.25","f6bc85fd-64e6-47fb-bc9c-79fe31547834","null","<p style=""text-align: center;"">+</p>","null","fixation","","","","","","","","","","","","","","","","","","","","","","",""
"","","","","","html-slider-response","192","8775875","0.0-21.0-0.26","f6bc85fd-64e6-47fb-bc9c-79fe31547834","1000","
                  <p style=""text-align: center;"">₪76
                                                <br>65%</p>
                  <p id=""wtp"" style=""text-align:center; margin-top: 0px; margin-bottom: 0px; font-size: 40px"";>&ensp;</p>","-","viewing","0","29","8C,19A,24B","","","","","","","","","","","","","","","","","","","",""
"","","","","","html-slider-response","193","8777420","0.0-21.0-1.26","f6bc85fd-64e6-47fb-bc9c-79fe31547834","1544","
                  <p style=""text-align: center;"">₪76
                                                <br>65%</p>
                  <p id=""wtp"" style=""text-align:center; margin-top: 0px; margin-bottom: 0px; font-size: 40px"";>מוכנים לשלם: <span id=""c_p_y""></span></p>","32","evaluation","58","29","8C,19A,24B","65","76","32","","","","","","","","","","","","","","","","",""
"","","","","","html-keyboard-response","194","8778685","0.0-21.0-2.26","f6bc85fd-64e6-47fb-bc9c-79fe31547834","null","<p style=""text-align: center;"">+</p>","null","fixation","","","","","","","","","","","","","","","","","","","","","","",""
"","","","","","html-slider-response","195","8779692","0.0-21.0-0.27","f6bc85fd-64e6-47fb-bc9c-79fe31547834","1000","
                  <p style=""text-align: center;"">₪79
                                                <br>40%</p>
                  <p id=""wtp"" style=""text-align:center; margin-top: 0px; margin-bottom: 0px; font-size: 40px"";>&ensp;</p>","-","viewing","0","30","9B","","","","","","","","","","","","","","","","","","","",""
"","","","","","html-slider-response","196","8781124","0.0-21.0-1.27","f6bc85fd-64e6-47fb-bc9c-79fe31547834","1432","
                  <p style=""text-align: center;"">₪79
                                                <br>40%</p>
                  <p id=""wtp"" style=""text-align:center; margin-top: 0px; margin-bottom: 0px; font-size: 40px"";>מוכנים לשלם: <span id=""c_p_y""></span></p>","31","evaluation","56","30","9B","40","79","31","","","","","","","","","","","","","","","","",""
"","","","","","html-keyboard-response","197","8781995","0.0-21.0-2.27","f6bc85fd-64e6-47fb-bc9c-79fe31547834","null","<p style=""text-align: center;"">+</p>","null","fixation","","","","","","","","","","","","","","","","","","","","","","",""
"","","","","","html-slider-response","198","8783010","0.0-21.0-0.28","f6bc85fd-64e6-47fb-bc9c-79fe31547834","1000","
                  <p style=""text-align: center;"">₪11
                                                <br>45%</p>
                  <p id=""wtp"" style=""text-align:center; margin-top: 0px; margin-bottom: 0px; font-size: 40px"";>&ensp;</p>","-","viewing","0","6","14B,21C,25C","","","","","","","","","","","","","","","","","","","",""
"","","","","","html-slider-response","199","8784548","0.0-21.0-1.28","f6bc85fd-64e6-47fb-bc9c-79fe31547834","1537","
                  <p style=""text-align: center;"">₪11
                                                <br>45%</p>
                  <p id=""wtp"" style=""text-align:center; margin-top: 0px; margin-bottom: 0px; font-size: 40px"";>מוכנים לשלם: <span id=""c_p_y""></span></p>","5","evaluation","23","6","14B,21C,25C","45","11","5","","","","","","","","","","","","","","","","",""
"","","","","","html-keyboard-response","200","8785274","0.0-21.0-2.28","f6bc85fd-64e6-47fb-bc9c-79fe31547834","null","<p style=""text-align: center;"">+</p>","null","fixation","","","","","","","","","","","","","","","","","","","","","","",""
"","","","","","html-slider-response","201","8786281","0.0-21.0-0.29","f6bc85fd-64e6-47fb-bc9c-79fe31547834","1000","
                  <p style=""text-align: center;"">₪43
                                                <br>75%</p>
                  <p id=""wtp"" style=""text-align:center; margin-top: 0px; margin-bottom: 0px; font-size: 40px"";>&ensp;</p>","-","viewing","0","18","11B,19B,24A,26A","","","","","","","","","","","","","","","","","","","",""
"","","","","","html-slider-response","202","8788132","0.0-21.0-1.29","f6bc85fd-64e6-47fb-bc9c-79fe31547834","1850","
                  <p style=""text-align: center;"">₪43
                                                <br>75%</p>
                  <p id=""wtp"" style=""text-align:center; margin-top: 0px; margin-bottom: 0px; font-size: 40px"";>מוכנים לשלם: <span id=""c_p_y""></span></p>","23","evaluation","11","18","11B,19B,24A,26A","75","43","23","","","","","","","","","","","","","","","","",""
"","","","","","html-keyboard-response","203","8788872","0.0-21.0-2.29","f6bc85fd-64e6-47fb-bc9c-79fe31547834","null","<p style=""text-align: center;"">+</p>","null","fixation","","","","","","","","","","","","","","","","","","","","","","",""
"","","","","","html-slider-response","204","8789887","0.0-21.0-0.30","f6bc85fd-64e6-47fb-bc9c-79fe31547834","1000","
                  <p style=""text-align: center;"">₪36
                                                <br>60%</p>
                  <p id=""wtp"" style=""text-align:center; margin-top: 0px; margin-bottom: 0px; font-size: 40px"";>&ensp;</p>","-","viewing","0","12","1C,7C,15C","","","","","","","","","","","","","","","","","","","",""
"","","","","","html-slider-response","205","8791628","0.0-21.0-1.30","f6bc85fd-64e6-47fb-bc9c-79fe31547834","1740","
                  <p style=""text-align: center;"">₪36
                                                <br>60%</p>
                  <p id=""wtp"" style=""text-align:center; margin-top: 0px; margin-bottom: 0px; font-size: 40px"";>מוכנים לשלם: <span id=""c_p_y""></span></p>","30","evaluation","53","12","1C,7C,15C","60","36","30","","","","","","","","","","","","","","","","",""
"","","","","","html-keyboard-response","206","8792863","0.0-21.0-2.30","f6bc85fd-64e6-47fb-bc9c-79fe31547834","null","<p style=""text-align: center;"">+</p>","null","fixation","","","","","","","","","","","","","","","","","","","","","","",""
"","","","","","html-keyboard-response","207","8793879","0.0-22.0","f6bc85fd-64e6-47fb-bc9c-79fe31547834","null","<p style=""text-align: center;"">+</p>","null","fixation","","","","","","","","","","","","","","","","","","","","","","",""
"","","","","","html-keyboard-response","208","8795044","0.0-23.0","f6bc85fd-64e6-47fb-bc9c-79fe31547834","null","<p>הפסקה.
          <br>לחצו כדי להמשיך.</p>","1","scan_wait","","","","","","","","","","","","","","","","","","","","","","",""
"","","","","","html-keyboard-response","209","8796045","0.0-24.0","f6bc85fd-64e6-47fb-bc9c-79fe31547834","null","<p style=""text-align: center;"">+</p>","null","fixation","","","","","","","","","","","","","","","","","","","","","","",""
"","","","","","html-slider-response","210","8797058","0.0-25.0-0.0","f6bc85fd-64e6-47fb-bc9c-79fe31547834","1000","
                  <p style=""text-align: center;"">₪58
                                                <br>45%</p>
                  <p id=""wtp"" style=""text-align:center; margin-top: 0px; margin-bottom: 0px; font-size: 40px"";>&ensp;</p>","-","viewing","0","21","11C,18C,25A","","","","","","","","","","","","","","","","","","","",""
"","","","","","html-slider-response","211","8798532","0.0-25.0-1.0","f6bc85fd-64e6-47fb-bc9c-79fe31547834","1473","
                  <p style=""text-align: center;"">₪58
                                                <br>45%</p>
                  <p id=""wtp"" style=""text-align:center; margin-top: 0px; margin-bottom: 0px; font-size: 40px"";>מוכנים לשלם: <span id=""c_p_y""></span></p>","16","evaluation","11","21","11C,18C,25A","45","58","16","","","","","","","","","","","","","","","","",""
"","","","","","html-keyboard-response","212","8799637","0.0-25.0-2.0","f6bc85fd-64e6-47fb-bc9c-79fe31547834","null","<p style=""text-align: center;"">+</p>","null","fixation","","","","","","","","","","","","","","","","","","","","","","",""
"","","","","","html-slider-response","213","8800653","0.0-25.0-0.1","f6bc85fd-64e6-47fb-bc9c-79fe31547834","1000","
                  <p style=""text-align: center;"">₪36
                                                <br>30%</p>
                  <p id=""wtp"" style=""text-align:center; margin-top: 0px; margin-bottom: 0px; font-size: 40px"";>&ensp;</p>","-","viewing","0","11","3C,20A,22A","","","","","","","","","","","","","","","","","","","",""
"","","","","","html-slider-response","214","8803372","0.0-25.0-1.1","f6bc85fd-64e6-47fb-bc9c-79fe31547834","2718","
                  <p style=""text-align: center;"">₪36
                                                <br>30%</p>
                  <p id=""wtp"" style=""text-align:center; margin-top: 0px; margin-bottom: 0px; font-size: 40px"";>מוכנים לשלם: <span id=""c_p_y""></span></p>","26","evaluation","24","11","3C,20A,22A","30","36","26","","","","","","","","","","","","","","","","",""
"","","","","","html-keyboard-response","215","8804416","0.0-25.0-2.1","f6bc85fd-64e6-47fb-bc9c-79fe31547834","null","<p style=""text-align: center;"">+</p>","null","fixation","","","","","","","","","","","","","","","","","","","","","","",""
"","","","","","html-slider-response","216","8805417","0.0-25.0-0.2","f6bc85fd-64e6-47fb-bc9c-79fe31547834","1000","
                  <p style=""text-align: center;"">₪76
                                                <br>65%</p>
                  <p id=""wtp"" style=""text-align:center; margin-top: 0px; margin-bottom: 0px; font-size: 40px"";>&ensp;</p>","-","viewing","0","29","8C,19A,24B","","","","","","","","","","","","","","","","","","","",""
"","","","","","html-slider-response","217","8807500","0.0-25.0-1.2","f6bc85fd-64e6-47fb-bc9c-79fe31547834","2083","
                  <p style=""text-align: center;"">₪76
                                                <br>65%</p>
                  <p id=""wtp"" style=""text-align:center; margin-top: 0px; margin-bottom: 0px; font-size: 40px"";>מוכנים לשלם: <span id=""c_p_y""></span></p>","39","evaluation","22","29","8C,19A,24B","65","76","39","","","","","","","","","","","","","","","","",""
"","","","","","html-keyboard-response","218","8808096","0.0-25.0-2.2","f6bc85fd-64e6-47fb-bc9c-79fe31547834","null","<p style=""text-align: center;"">+</p>","null","fixation","","","","","","","","","","","","","","","","","","","","","","",""
"","","","","","html-slider-response","219","8809103","0.0-25.0-0.3","f6bc85fd-64e6-47fb-bc9c-79fe31547834","1000","
                  <p style=""text-align: center;"">₪36
                                                <br>60%</p>
                  <p id=""wtp"" style=""text-align:center; margin-top: 0px; margin-bottom: 0px; font-size: 40px"";>&ensp;</p>","-","viewing","0","12","1C,7C,15C","","","","","","","","","","","","","","","","","","","",""
"","","","","","html-slider-response","220","8810900","0.0-25.0-1.3","f6bc85fd-64e6-47fb-bc9c-79fe31547834","1796","
                  <p style=""text-align: center;"">₪36
                                                <br>60%</p>
                  <p id=""wtp"" style=""text-align:center; margin-top: 0px; margin-bottom: 0px; font-size: 40px"";>מוכנים לשלם: <span id=""c_p_y""></span></p>","20","evaluation","10","12","1C,7C,15C","60","36","20","","","","","","","","","","","","","","","","",""
"","","","","","html-keyboard-response","221","8812126","0.0-25.0-2.3","f6bc85fd-64e6-47fb-bc9c-79fe31547834","null","<p style=""text-align: center;"">+</p>","null","fixation","","","","","","","","","","","","","","","","","","","","","","",""
"","","","","","html-slider-response","222","8813139","0.0-25.0-0.4","f6bc85fd-64e6-47fb-bc9c-79fe31547834","1000","
                  <p style=""text-align: center;"">₪4
                                                <br>75%</p>
                  <p id=""wtp"" style=""text-align:center; margin-top: 0px; margin-bottom: 0px; font-size: 40px"";>&ensp;</p>","-","viewing","0","3","12B,20B,23B,27C,29C","","","","","","","","","","","","","","","","","","","",""
"","","","","","html-slider-response","223","8814756","0.0-25.0-1.4","f6bc85fd-64e6-47fb-bc9c-79fe31547834","1616","
                  <p style=""text-align: center;"">₪4
                                                <br>75%</p>
                  <p id=""wtp"" style=""text-align:center; margin-top: 0px; margin-bottom: 0px; font-size: 40px"";>מוכנים לשלם: <span id=""c_p_y""></span></p>","3","evaluation","9","3","12B,20B,23B,27C,29C","75","4","4","","","","","","","","","","","","","","","","",""
"","","","","","html-keyboard-response","224","8815940","0.0-25.0-2.4","f6bc85fd-64e6-47fb-bc9c-79fe31547834","null","<p style=""text-align: center;"">+</p>","null","fixation","","","","","","","","","","","","","","","","","","","","","","",""
"","","","","","html-slider-response","225","8816942","0.0-25.0-0.5","f6bc85fd-64e6-47fb-bc9c-79fe31547834","1000","
                  <p style=""text-align: center;"">₪71
                                                <br>45%</p>
                  <p id=""wtp"" style=""text-align:center; margin-top: 0px; margin-bottom: 0px; font-size: 40px"";>&ensp;</p>","-","viewing","0","26","2B,16A","","","","","","","","","","","","","","","","","","","",""
"","","","","","html-slider-response","226","8819292","0.0-25.0-1.5","f6bc85fd-64e6-47fb-bc9c-79fe31547834","2349","
                  <p style=""text-align: center;"">₪71
                                                <br>45%</p>
                  <p id=""wtp"" style=""text-align:center; margin-top: 0px; margin-bottom: 0px; font-size: 40px"";>מוכנים לשלם: <span id=""c_p_y""></span></p>","41","evaluation","29","26","2B,16A","45","71","41","","","","","","","","","","","","","","","","",""
"","","","","","html-keyboard-response","227","8820246","0.0-25.0-2.5","f6bc85fd-64e6-47fb-bc9c-79fe31547834","null","<p style=""text-align: center;"">+</p>","null","fixation","","","","","","","","","","","","","","","","","","","","","","",""
"","","","","","html-slider-response","228","8821249","0.0-25.0-0.6","f6bc85fd-64e6-47fb-bc9c-79fe31547834","1000","
                  <p style=""text-align: center;"">₪43
                                                <br>60%</p>
                  <p id=""wtp"" style=""text-align:center; margin-top: 0px; margin-bottom: 0px; font-size: 40px"";>&ensp;</p>","-","viewing","0","17","2A,7A,9A,15B","","","","","","","","","","","","","","","","","","","",""
"","","","","","html-slider-response","229","8822908","0.0-25.0-1.6","f6bc85fd-64e6-47fb-bc9c-79fe31547834","1658","
                  <p style=""text-align: center;"">₪43
                                                <br>60%</p>
                  <p id=""wtp"" style=""text-align:center; margin-top: 0px; margin-bottom: 0px; font-size: 40px"";>מוכנים לשלם: <span id=""c_p_y""></span></p>","14","evaluation","36","17","2A,7A,9A,15B","60","43","14","","","","","","","","","","","","","","","","",""
"","","","","","html-keyboard-response","230","8823686","0.0-25.0-2.6","f6bc85fd-64e6-47fb-bc9c-79fe31547834","null","<p style=""text-align: center;"">+</p>","null","fixation","","","","","","","","","","","","","","","","","","","","","","",""
"","","","","","html-slider-response","231","8824702","0.0-25.0-0.7","f6bc85fd-64e6-47fb-bc9c-79fe31547834","1000","
                  <p style=""text-align: center;"">₪58
                                                <br>40%</p>
                  <p id=""wtp"" style=""text-align:center; margin-top: 0px; margin-bottom: 0px; font-size: 40px"";>&ensp;</p>","-","viewing","0","20","10C,13A,19C,21B","","","","","","","","","","","","","","","","","","","",""
"","","","","","html-slider-response","232","8827780","0.0-25.0-1.7","f6bc85fd-64e6-47fb-bc9c-79fe31547834","3077","
                  <p style=""text-align: center;"">₪58
                                                <br>40%</p>
                  <p id=""wtp"" style=""text-align:center; margin-top: 0px; margin-bottom: 0px; font-size: 40px"";>מוכנים לשלם: <span id=""c_p_y""></span></p>","28","evaluation","57","20","10C,13A,19C,21B","40","58","28","","","","","","","","","","","","","","","","",""
"","","","","","html-keyboard-response","233","8828467","0.0-25.0-2.7","f6bc85fd-64e6-47fb-bc9c-79fe31547834","null","<p style=""text-align: center;"">+</p>","null","fixation","","","","","","","","","","","","","","","","","","","","","","",""
"","","","","","html-slider-response","234","8829471","0.0-25.0-0.8","f6bc85fd-64e6-47fb-bc9c-79fe31547834","1000","
                  <p style=""text-align: center;"">₪61
                                                <br>45%</p>
                  <p id=""wtp"" style=""text-align:center; margin-top: 0px; margin-bottom: 0px; font-size: 40px"";>&ensp;</p>","-","viewing","0","22","10A,11A","","","","","","","","","","","","","","","","","","","",""
"","","","","","html-slider-response","235","8830732","0.0-25.0-1.8","f6bc85fd-64e6-47fb-bc9c-79fe31547834","1261","
                  <p style=""text-align: center;"">₪61
                                                <br>45%</p>
                  <p id=""wtp"" style=""text-align:center; margin-top: 0px; margin-bottom: 0px; font-size: 40px"";>מוכנים לשלם: <span id=""c_p_y""></span></p>","20","evaluation","6","22","10A,11A","45","61","20","","","","","","","","","","","","","","","","",""
"","","","","","html-keyboard-response","236","8831544","0.0-25.0-2.8","f6bc85fd-64e6-47fb-bc9c-79fe31547834","null","<p style=""text-align: center;"">+</p>","null","fixation","","","","","","","","","","","","","","","","","","","","","","",""
"","","","","","html-slider-response","237","8832556","0.0-25.0-0.9","f6bc85fd-64e6-47fb-bc9c-79fe31547834","1000","
                  <p style=""text-align: center;"">₪4
                                                <br>50%</p>
                  <p id=""wtp"" style=""text-align:center; margin-top: 0px; margin-bottom: 0px; font-size: 40px"";>&ensp;</p>","-","viewing","0","2","4C,17B","","","","","","","","","","","","","","","","","","","",""
"","","","","","html-slider-response","238","8833852","0.0-25.0-1.9","f6bc85fd-64e6-47fb-bc9c-79fe31547834","1295","
                  <p style=""text-align: center;"">₪4
                                                <br>50%</p>
                  <p id=""wtp"" style=""text-align:center; margin-top: 0px; margin-bottom: 0px; font-size: 40px"";>מוכנים לשלם: <span id=""c_p_y""></span></p>","0","evaluation","56","2","4C,17B","50","4","0","","","","","","","","","","","","","","","","",""
"","","","","","html-keyboard-response","239","8835292","0.0-25.0-2.9","f6bc85fd-64e6-47fb-bc9c-79fe31547834","null","<p style=""text-align: center;"">+</p>","null","fixation","","","","","","","","","","","","","","","","","","","","","","",""
"","","","","","html-slider-response","240","8836297","0.0-25.0-0.10","f6bc85fd-64e6-47fb-bc9c-79fe31547834","1000","
                  <p style=""text-align: center;"">₪11
                                                <br>25%</p>
                  <p id=""wtp"" style=""text-align:center; margin-top: 0px; margin-bottom: 0px; font-size: 40px"";>&ensp;</p>","-","viewing","0","5","12A,27B,28B,30B","","","","","","","","","","","","","","","","","","","",""
"","","","","","html-slider-response","241","8838012","0.0-25.0-1.10","f6bc85fd-64e6-47fb-bc9c-79fe31547834","1714","
                  <p style=""text-align: center;"">₪11
                                                <br>25%</p>
                  <p id=""wtp"" style=""text-align:center; margin-top: 0px; margin-bottom: 0px; font-size: 40px"";>מוכנים לשלם: <span id=""c_p_y""></span></p>","7","evaluation","20","5","12A,27B,28B,30B","25","11","7","","","","","","","","","","","","","","","","",""
"","","","","","html-keyboard-response","242","8839017","0.0-25.0-2.10","f6bc85fd-64e6-47fb-bc9c-79fe31547834","null","<p style=""text-align: center;"">+</p>","null","fixation","","","","","","","","","","","","","","","","","","","","","","",""
"","","","","","html-slider-response","243","8840031","0.0-25.0-0.11","f6bc85fd-64e6-47fb-bc9c-79fe31547834","1000","
                  <p style=""text-align: center;"">₪11
                                                <br>20%</p>
                  <p id=""wtp"" style=""text-align:center; margin-top: 0px; margin-bottom: 0px; font-size: 40px"";>&ensp;</p>","-","viewing","0","4","12C,17C,23C,28C","","","","","","","","","","","","","","","","","","","",""
"","","","","","html-slider-response","244","8841372","0.0-25.0-1.11","f6bc85fd-64e6-47fb-bc9c-79fe31547834","1341","
                  <p style=""text-align: center;"">₪11
                                                <br>20%</p>
                  <p id=""wtp"" style=""text-align:center; margin-top: 0px; margin-bottom: 0px; font-size: 40px"";>מוכנים לשלם: <span id=""c_p_y""></span></p>","4","evaluation","39","4","12C,17C,23C,28C","20","11","4","","","","","","","","","","","","","","","","",""
"","","","","","html-keyboard-response","245","8842567","0.0-25.0-2.11","f6bc85fd-64e6-47fb-bc9c-79fe31547834","null","<p style=""text-align: center;"">+</p>","null","fixation","","","","","","","","","","","","","","","","","","","","","","",""
"","","","","","html-slider-response","246","8843571","0.0-25.0-0.12","f6bc85fd-64e6-47fb-bc9c-79fe31547834","1000","
                  <p style=""text-align: center;"">₪36
                                                <br>75%</p>
                  <p id=""wtp"" style=""text-align:center; margin-top: 0px; margin-bottom: 0px; font-size: 40px"";>&ensp;</p>","-","viewing","0","14","4B,5A,13B,16B","","","","","","","","","","","","","","","","","","","",""
"","","","","","html-slider-response","247","8845252","0.0-25.0-1.12","f6bc85fd-64e6-47fb-bc9c-79fe31547834","1680","
                  <p style=""text-align: center;"">₪36
                                                <br>75%</p>
                  <p id=""wtp"" style=""text-align:center; margin-top: 0px; margin-bottom: 0px; font-size: 40px"";>מוכנים לשלם: <span id=""c_p_y""></span></p>","28","evaluation","7","14","4B,5A,13B,16B","75","36","28","","","","","","","","","","","","","","","","",""
