"success","timeout","failed_images","failed_audio","failed_video","trial_type","trial_index","time_elapsed","internal_node_id","subject_id","rt","stimulus","response","part","slider_start","ID","set_ID","prob","amount","last_location","actual_choice","actual_EV","binary_id","trinary_id","catch","A_key","D_key","choice_prob","choice_amount","chosen_part","potential_prize_prob","potential_prize_amount","won_prize","total_prize","prize_cost","remaining_budget","accuracy"
"true","false","[]","[]","[]","preload","0","63","0.0-0.0","306d960c-8919-4e56-8baa-c540b885f4f0","","","","","","","","","","","","","","","","","","","","","","","","","","",""
"","","","","","html-keyboard-response","1","943442","0.0-1.0","306d960c-8919-4e56-8baa-c540b885f4f0","null","
          <h1>שלום וברוכים הבאים!</h1>
          <p>לפניכם ניסוי בקבלת החלטות עם שני חלקים.
          <br><br>לחצו על העכבר כדי להמשיך.</p>","0","example","","","","","","","","","","","","","","","","","","","","","","",""
"","","","","","html-keyboard-response","2","951201","0.0-2.0","306d960c-8919-4e56-8baa-c540b885f4f0","null","
        <h1>חלק 1</h1>
        <p>בקרוב יוצגו בפניכם הגרלות.
        <br>עליכם לבחור את המחיר המירבי שתהיו מוכנים לשלם כדי להשתתף בהגרלה שתוצג.
        <br>יש לכם תקציב של ₪80 לכל הגרלה. 
        <br>נסו להעריך כל הגרלה בנפרד ולחשוב כמה היא שווה עבורכם, ₪80 זמינים לכל הגרלה בנפרד.
        <br><br>לחצו על העכבר כדי להמשיך.</p>","1","instructions","","","","","","","","","","","","","","","","","","","","","","",""
"","","","","","html-keyboard-response","3","960513","0.0-3.0","306d960c-8919-4e56-8baa-c540b885f4f0","null","
        <p>בסוף הניסוי, המחשב יבחר את אחת ההגרלות ויקבע מחיר לכרטיס עבורה. 
        <br>במידה והמחיר שבחרתם נמוך מהמחיר שנבחר על ידי המחשב, לא תשתתפו בהגרלה ותשארו עם מלוא התקציב.
        <br>במידה והמחיר שבחרתם גבוה מהמחיר שנבחר על ידי המחשב, תשלמו את המחיר שנקבע ותשתתפו בהגרלה.
        <br><br>לחצו על העכבר כדי להמשיך.</p>","1","instructions","","","","","","","","","","","","","","","","","","","","","","",""
"","","","","","html-slider-response","4","979265","0.0-4.0","306d960c-8919-4e56-8baa-c540b885f4f0","18634","
        <p style=""font-size: 42px;"">נתחיל עם דוגמא: 
        <br>ההגרלה מטה מציעה 65% סיכוי לזכות ב-₪40 
        <br>&emsp;&emsp;&emsp;&emsp;&emsp;&emsp;&emsp;&emsp;&ensp;35% סיכוי לזכות ב-₪0.
        <br><br>מה המחיר המירבי שתהיו מוכנים לשלם על כרטיס להגרלה זו בין 0 ל-₪80?
        <br>הזיזו את העכבר על פני המלבן ולחצו כדי לבצע בחירה.</p>
        
        <p style=""text-align: center;"">₪40<br>65%</p>

        <p id=""wtp"" style=""text-align:center; margin-top: 0px; margin-bottom: 0px; font-size: 40px"";>מוכנים לשלם: <span id=""c_p_y""></span></p>","19","example","24","","","","","","","","","","","","","","","","","","","","","",""
"","","","","","html-keyboard-response","5","984449","0.0-5.0","306d960c-8919-4e56-8baa-c540b885f4f0","null","<p>יפה מאוד!
                <br> בחרתם שתהיו מוכנים לשלם ₪19 כדי להשתתף בהגרלה:
                <br><p style=""text-align: center;"">₪40<br>65%</p>
                <p>נשמע נכון?
                <br>נניח שהגרלה זו נבחרה בסוף הניסוי.
                <br>כעת המחשב יקבע מחיר עבורה באקראי.
                <br>לחצו על העכבר להמשך.</p>","1","example","","","","","","","","","","","","","","","","","","","","","","",""
"","","","","","html-keyboard-response","6","990865","0.0-6.0","306d960c-8919-4e56-8baa-c540b885f4f0","null","<p>המחשב קבע מחיר: ₪78
                <br>ואתם בחרתם לשלם לכל היותר: ₪19
                <br><br>מכיוון שהמחיר שבחרתם נמוך מהמחיר שנקבע, לא תתשתתפו בהגרלה.
                <br>במקרה כזה, בסוף הניסוי תקבלו את כל התקציב ההתחלתי של ₪80.
                <br><br>לחצו על העכבר להמשך.</p>","1","example","","","","","","","","","","","","","","","","","","","","","","",""
"","","","","","html-slider-response","7","997009","0.0-7.0","306d960c-8919-4e56-8baa-c540b885f4f0","5891","<p style=""font-size: 42px;"">הנה עוד דוגמא:
                <br>ההגרלה מטה מציעה 35% סיכוי לזכות ב-₪18 
                <br>&emsp;&emsp;&emsp;&emsp;&emsp;&emsp;&emsp;&emsp;&ensp;65% סיכוי לזכות ב-₪0.</p>
        
                <p style=""text-align: center;"">₪18<br>35%</p>
                <p id=""wtp"" style=""text-align:center; margin-top: 0px; margin-bottom: 0px; font-size: 40px"";>מוכנים לשלם: <span id=""c_p_y""></span></p>","5","example","26","","","","","","","","","","","","","","","","","","","","","",""
"","","","","","html-keyboard-response","8","1002257","0.0-8.0","306d960c-8919-4e56-8baa-c540b885f4f0","null","<p>הייתם מוכנים לשלם  ₪5 כדי להשתתף בהגרלה:
                <p style=""text-align: center;"">₪18<br>35%</p>
                <p>כעת נניח שהמחשב בחר את ההגרלה הזו בסוף הניסוי, וקבע עבורה מחיר.
                <br><br>לחצו על העכבר כדי להמשיך.</p>","1","instructions","","","","","","","","","","","","","","","","","","","","","","",""
"","","","","","html-keyboard-response","9","1011841","0.0-9.0","306d960c-8919-4e56-8baa-c540b885f4f0","null","<p>המחשב קבע מחיר להגרלה: ₪0<br>ואתם בחרתם לשלם לכל היותר: ₪5
                <br><br>כעת המחיר שנקבע נמוך מזה שבחרתם, אז תשלמו את המחיר שקבע המחשב (₪0) ותשתתפו בהגרלה.
                <br>במקרה כזה, תסיימו את הניסוי עם תקציב של ₪80 ועם סיכוי לזכות ב-₪18 נוספים מההגרלה.
                <br>כלומר, תוכלו לקבל ₪80 אם לא תזכו בהגרלה, או ₪98 אם תזכו בהגרלה.
                <br><br>לחצו על העכבר להמשך.</p>","1","example","","","","","","","","","","","","","","","","","","","","","","",""
"","","","","","html-keyboard-response","10","1016321","0.0-10.0","306d960c-8919-4e56-8baa-c540b885f4f0","null","<p>במהלך הניסוי, קודם תראו את ההגרלה ורק לאחר מכן תוכלו לבחור.
                <p>כמו כן, יהיו לכם מספר שניות מוגבל להגיב.
                <p>בואו ננסה זאת עם ההגרלה הקודמת.
                <br>לחצו על העכבר כדי להמשיך.</p>","1","instructions","","","","","","","","","","","","","","","","","","","","","","",""
"","","","","","html-slider-response","11","1017591","0.0-11.0","306d960c-8919-4e56-8baa-c540b885f4f0","1000","
                    <p style=""text-align: center;"">₪18<br>35%</p>
                    <p id=""wtp"" style=""text-align:center; margin-top: 0px; margin-bottom: 0px; font-size: 40px"";>&ensp;</p>","79","instructions","0","","","","","","","","","","","","","","","","","","","","","",""
"","","","","","html-slider-response","12","1020969","0.0-12.0","306d960c-8919-4e56-8baa-c540b885f4f0","3111","
                    <p style=""text-align: center;"">₪18<br>35%</p>
                    <p id=""wtp"" style=""text-align:center; margin-top: 0px; margin-bottom: 0px; font-size: 40px"";>מוכנים לשלם: <span id=""c_p_y""></span></p>","8","instructions","71","","","","","","","","","","","","","","","","","","","","","",""
"","","","","","html-keyboard-response","13","1023857","0.0-13.0","306d960c-8919-4e56-8baa-c540b885f4f0","null","<p>יפה. הפעם בחרתם לשלם לכל היותר ₪8.
                <br><br>לחצו על העכבר כדי להמשיך.</p>","1","instructions","","","","","","","","","","","","","","","","","","","","","","",""
"","","","","","html-keyboard-response","14","1028697","0.0-15.0","306d960c-8919-4e56-8baa-c540b885f4f0","null","<p>כעת נתחיל את הניסוי.
                <br><br>אתם תראו הגרלות ותתבקשו לבחור כמה תהיו מוכנים לשלם כדי להשתתף בהן.
                <br>יש לכם תקציב של ₪80 עבור כל הגרלה.
                <br>בסוף הניסוי הגרלה אחת תבחר באקראי ותשוחק.
                <br><br>לחצו על העכבר כדי להתחיל את הניסוי.</p>","1","instructions","","","","","","","","","","","","","","","","","","","","","","",""
"","","","","","html-keyboard-response","15","1029955","0.0-16.0","306d960c-8919-4e56-8baa-c540b885f4f0","null","<p style=""text-align: center;"">+</p>","null","fixation","","","","","","","","","","","","","","","","","","","","","","",""
"","","","","","html-slider-response","16","1030970","0.0-17.0-0.0","306d960c-8919-4e56-8baa-c540b885f4f0","1000","
                  <p style=""text-align: center;"">₪36
                                                <br>75%</p>
                  <p id=""wtp"" style=""text-align:center; margin-top: 0px; margin-bottom: 0px; font-size: 40px"";>&ensp;</p>","-","viewing","0","14","4B,5A,13B,16B","","","","","","","","","","","","","","","","","","","",""
"","","","","","html-slider-response","17","1034225","0.0-17.0-1.0","306d960c-8919-4e56-8baa-c540b885f4f0","3255","
                  <p style=""text-align: center;"">₪36
                                                <br>75%</p>
                  <p id=""wtp"" style=""text-align:center; margin-top: 0px; margin-bottom: 0px; font-size: 40px"";>מוכנים לשלם: <span id=""c_p_y""></span></p>","10","evaluation","63","14","4B,5A,13B,16B","75","36","10","","","","","","","","","","","","","","","","",""
"","","","","","html-keyboard-response","18","1035211","0.0-17.0-2.0","306d960c-8919-4e56-8baa-c540b885f4f0","null","<p style=""text-align: center;"">+</p>","null","fixation","","","","","","","","","","","","","","","","","","","","","","",""
"","","","","","html-slider-response","19","1036227","0.0-17.0-0.1","306d960c-8919-4e56-8baa-c540b885f4f0","1000","
                  <p style=""text-align: center;"">₪11
                                                <br>45%</p>
                  <p id=""wtp"" style=""text-align:center; margin-top: 0px; margin-bottom: 0px; font-size: 40px"";>&ensp;</p>","-","viewing","0","6","14B,21C,25C","","","","","","","","","","","","","","","","","","","",""
"","","","","","html-slider-response","20","1039913","0.0-17.0-1.1","306d960c-8919-4e56-8baa-c540b885f4f0","3685","
                  <p style=""text-align: center;"">₪11
                                                <br>45%</p>
                  <p id=""wtp"" style=""text-align:center; margin-top: 0px; margin-bottom: 0px; font-size: 40px"";>מוכנים לשלם: <span id=""c_p_y""></span></p>","10","evaluation","41","6","14B,21C,25C","45","11","10","","","","","","","","","","","","","","","","",""
"","","","","","html-keyboard-response","21","1041328","0.0-17.0-2.1","306d960c-8919-4e56-8baa-c540b885f4f0","null","<p style=""text-align: center;"">+</p>","null","fixation","","","","","","","","","","","","","","","","","","","","","","",""
"","","","","","html-slider-response","22","1042331","0.0-17.0-0.2","306d960c-8919-4e56-8baa-c540b885f4f0","1000","
                  <p style=""text-align: center;"">₪64
                                                <br>25%</p>
                  <p id=""wtp"" style=""text-align:center; margin-top: 0px; margin-bottom: 0px; font-size: 40px"";>&ensp;</p>","-","viewing","0","24","6A,21A","","","","","","","","","","","","","","","","","","","",""
"","","","","","html-slider-response","23","1045129","0.0-17.0-1.2","306d960c-8919-4e56-8baa-c540b885f4f0","2797","
                  <p style=""text-align: center;"">₪64
                                                <br>25%</p>
                  <p id=""wtp"" style=""text-align:center; margin-top: 0px; margin-bottom: 0px; font-size: 40px"";>מוכנים לשלם: <span id=""c_p_y""></span></p>","25","evaluation","53","24","6A,21A","25","64","25","","","","","","","","","","","","","","","","",""
"","","","","","html-keyboard-response","24","1046059","0.0-17.0-2.2","306d960c-8919-4e56-8baa-c540b885f4f0","null","<p style=""text-align: center;"">+</p>","null","fixation","","","","","","","","","","","","","","","","","","","","","","",""
"","","","","","html-slider-response","25","1047071","0.0-17.0-0.3","306d960c-8919-4e56-8baa-c540b885f4f0","1000","
                  <p style=""text-align: center;"">₪11
                                                <br>25%</p>
                  <p id=""wtp"" style=""text-align:center; margin-top: 0px; margin-bottom: 0px; font-size: 40px"";>&ensp;</p>","-","viewing","0","5","12A,27B,28B,30B","","","","","","","","","","","","","","","","","","","",""
"","","","","","html-slider-response","26","1051081","0.0-17.0-1.3","306d960c-8919-4e56-8baa-c540b885f4f0","null","
                  <p style=""text-align: center;"">₪11
                                                <br>25%</p>
                  <p id=""wtp"" style=""text-align:center; margin-top: 0px; margin-bottom: 0px; font-size: 40px"";>מוכנים לשלם: <span id=""c_p_y""></span></p>","null","evaluation","10","5","12A,27B,28B,30B","25","11","10","","","","","","","","","","","","","","","","",""
"","","","","","html-keyboard-response","27","1052199","0.0-17.0-2.3","306d960c-8919-4e56-8baa-c540b885f4f0","null","<p style=""text-align: center;"">+</p>","null","fixation","","","","","","","","","","","","","","","","","","","","","","",""
"","","","","","html-slider-response","28","1053210","0.0-17.0-0.4","306d960c-8919-4e56-8baa-c540b885f4f0","1000","
                  <p style=""text-align: center;"">₪36
                                                <br>70%</p>
                  <p id=""wtp"" style=""text-align:center; margin-top: 0px; margin-bottom: 0px; font-size: 40px"";>&ensp;</p>","-","viewing","0","13","3A,5C,10B","","","","","","","","","","","","","","","","","","","",""
"","","","","","html-slider-response","29","1055153","0.0-17.0-1.4","306d960c-8919-4e56-8baa-c540b885f4f0","1942","
                  <p style=""text-align: center;"">₪36
                                                <br>70%</p>
                  <p id=""wtp"" style=""text-align:center; margin-top: 0px; margin-bottom: 0px; font-size: 40px"";>מוכנים לשלם: <span id=""c_p_y""></span></p>","45","evaluation","31","13","3A,5C,10B","70","36","45","","","","","","","","","","","","","","","","",""
"","","","","","html-keyboard-response","30","1056147","0.0-17.0-2.4","306d960c-8919-4e56-8baa-c540b885f4f0","null","<p style=""text-align: center;"">+</p>","null","fixation","","","","","","","","","","","","","","","","","","","","","","",""
"","","","","","html-slider-response","31","1057164","0.0-17.0-0.5","306d960c-8919-4e56-8baa-c540b885f4f0","1000","
                  <p style=""text-align: center;"">₪79
                                                <br>65%</p>
                  <p id=""wtp"" style=""text-align:center; margin-top: 0px; margin-bottom: 0px; font-size: 40px"";>&ensp;</p>","-","viewing","0","31","8A","","","","","","","","","","","","","","","","","","","",""
"","","","","","html-slider-response","32","1059697","0.0-17.0-1.5","306d960c-8919-4e56-8baa-c540b885f4f0","2532","
                  <p style=""text-align: center;"">₪79
                                                <br>65%</p>
                  <p id=""wtp"" style=""text-align:center; margin-top: 0px; margin-bottom: 0px; font-size: 40px"";>מוכנים לשלם: <span id=""c_p_y""></span></p>","65","evaluation","28","31","8A","65","79","65","","","","","","","","","","","","","","","","",""
"","","","","","html-keyboard-response","33","1061173","0.0-17.0-2.5","306d960c-8919-4e56-8baa-c540b885f4f0","null","<p style=""text-align: center;"">+</p>","null","fixation","","","","","","","","","","","","","","","","","","","","","","",""
"","","","","","html-slider-response","34","1062186","0.0-17.0-0.6","306d960c-8919-4e56-8baa-c540b885f4f0","1000","
                  <p style=""text-align: center;"">₪4
                                                <br>75%</p>
                  <p id=""wtp"" style=""text-align:center; margin-top: 0px; margin-bottom: 0px; font-size: 40px"";>&ensp;</p>","-","viewing","0","3","12B,20B,23B,27C,29C","","","","","","","","","","","","","","","","","","","",""
"","","","","","html-slider-response","35","1064217","0.0-17.0-1.6","306d960c-8919-4e56-8baa-c540b885f4f0","2031","
                  <p style=""text-align: center;"">₪4
                                                <br>75%</p>
                  <p id=""wtp"" style=""text-align:center; margin-top: 0px; margin-bottom: 0px; font-size: 40px"";>מוכנים לשלם: <span id=""c_p_y""></span></p>","35","evaluation","26","3","12B,20B,23B,27C,29C","75","4","35","","","","","","","","","","","","","","","","",""
"","","","","","html-keyboard-response","36","1064846","0.0-17.0-2.6","306d960c-8919-4e56-8baa-c540b885f4f0","null","<p style=""text-align: center;"">+</p>","null","fixation","","","","","","","","","","","","","","","","","","","","","","",""
"","","","","","html-slider-response","37","1065856","0.0-17.0-0.7","306d960c-8919-4e56-8baa-c540b885f4f0","1000","
                  <p style=""text-align: center;"">₪4
                                                <br>50%</p>
                  <p id=""wtp"" style=""text-align:center; margin-top: 0px; margin-bottom: 0px; font-size: 40px"";>&ensp;</p>","-","viewing","0","2","4C,17B","","","","","","","","","","","","","","","","","","","",""
"","","","","","html-slider-response","38","1068305","0.0-17.0-1.7","306d960c-8919-4e56-8baa-c540b885f4f0","2448","
                  <p style=""text-align: center;"">₪4
                                                <br>50%</p>
                  <p id=""wtp"" style=""text-align:center; margin-top: 0px; margin-bottom: 0px; font-size: 40px"";>מוכנים לשלם: <span id=""c_p_y""></span></p>","18","evaluation","12","2","4C,17B","50","4","18","","","","","","","","","","","","","","","","",""
"","","","","","html-keyboard-response","39","1069233","0.0-17.0-2.7","306d960c-8919-4e56-8baa-c540b885f4f0","null","<p style=""text-align: center;"">+</p>","null","fixation","","","","","","","","","","","","","","","","","","","","","","",""
"","","","","","html-slider-response","40","1070244","0.0-17.0-0.8","306d960c-8919-4e56-8baa-c540b885f4f0","1000","
                  <p style=""text-align: center;"">₪64
                                                <br>50%</p>
                  <p id=""wtp"" style=""text-align:center; margin-top: 0px; margin-bottom: 0px; font-size: 40px"";>&ensp;</p>","-","viewing","0","25","1B,3B,4A","","","","","","","","","","","","","","","","","","","",""
"","","","","","html-slider-response","41","1071433","0.0-17.0-1.8","306d960c-8919-4e56-8baa-c540b885f4f0","1188","
                  <p style=""text-align: center;"">₪64
                                                <br>50%</p>
                  <p id=""wtp"" style=""text-align:center; margin-top: 0px; margin-bottom: 0px; font-size: 40px"";>מוכנים לשלם: <span id=""c_p_y""></span></p>","25","evaluation","8","25","1B,3B,4A","50","64","25","","","","","","","","","","","","","","","","",""
"","","","","","html-keyboard-response","42","1072290","0.0-17.0-2.8","306d960c-8919-4e56-8baa-c540b885f4f0","null","<p style=""text-align: center;"">+</p>","null","fixation","","","","","","","","","","","","","","","","","","","","","","",""
"","","","","","html-slider-response","43","1073297","0.0-17.0-0.9","306d960c-8919-4e56-8baa-c540b885f4f0","1000","
                  <p style=""text-align: center;"">₪71
                                                <br>55%</p>
                  <p id=""wtp"" style=""text-align:center; margin-top: 0px; margin-bottom: 0px; font-size: 40px"";>&ensp;</p>","-","viewing","0","27","5B,18A","","","","","","","","","","","","","","","","","","","",""
"","","","","","html-slider-response","44","1075665","0.0-17.0-1.9","306d960c-8919-4e56-8baa-c540b885f4f0","2367","
                  <p style=""text-align: center;"">₪71
                                                <br>55%</p>
                  <p id=""wtp"" style=""text-align:center; margin-top: 0px; margin-bottom: 0px; font-size: 40px"";>מוכנים לשלם: <span id=""c_p_y""></span></p>","30","evaluation","9","27","5B,18A","55","71","30","","","","","","","","","","","","","","","","",""
"","","","","","html-keyboard-response","45","1077137","0.0-17.0-2.9","306d960c-8919-4e56-8baa-c540b885f4f0","null","<p style=""text-align: center;"">+</p>","null","fixation","","","","","","","","","","","","","","","","","","","","","","",""
"","","","","","html-slider-response","46","1078151","0.0-17.0-0.10","306d960c-8919-4e56-8baa-c540b885f4f0","1000","
                  <p style=""text-align: center;"">₪11
                                                <br>20%</p>
                  <p id=""wtp"" style=""text-align:center; margin-top: 0px; margin-bottom: 0px; font-size: 40px"";>&ensp;</p>","-","viewing","0","4","12C,17C,23C,28C","","","","","","","","","","","","","","","","","","","",""
"","","","","","html-slider-response","47","1079665","0.0-17.0-1.10","306d960c-8919-4e56-8baa-c540b885f4f0","1513","
                  <p style=""text-align: center;"">₪11
                                                <br>20%</p>
                  <p id=""wtp"" style=""text-align:center; margin-top: 0px; margin-bottom: 0px; font-size: 40px"";>מוכנים לשלם: <span id=""c_p_y""></span></p>","9","evaluation","47","4","12C,17C,23C,28C","20","11","9","","","","","","","","","","","","","","","","",""
"","","","","","html-keyboard-response","48","1080390","0.0-17.0-2.10","306d960c-8919-4e56-8baa-c540b885f4f0","null","<p style=""text-align: center;"">+</p>","null","fixation","","","","","","","","","","","","","","","","","","","","","","",""
"","","","","","html-slider-response","49","1081405","0.0-17.0-0.11","306d960c-8919-4e56-8baa-c540b885f4f0","1000","
                  <p style=""text-align: center;"">₪58
                                                <br>30%</p>
                  <p id=""wtp"" style=""text-align:center; margin-top: 0px; margin-bottom: 0px; font-size: 40px"";>&ensp;</p>","-","viewing","0","19","13C,30A","","","","","","","","","","","","","","","","","","","",""
"","","","","","html-slider-response","50","1085407","0.0-17.0-1.11","306d960c-8919-4e56-8baa-c540b885f4f0","null","
                  <p style=""text-align: center;"">₪58
                                                <br>30%</p>
                  <p id=""wtp"" style=""text-align:center; margin-top: 0px; margin-bottom: 0px; font-size: 40px"";>מוכנים לשלם: <span id=""c_p_y""></span></p>","null","evaluation","21","19","13C,30A","30","58","8","","","","","","","","","","","","","","","","",""
"","","","","","html-keyboard-response","51","1086696","0.0-17.0-2.11","306d960c-8919-4e56-8baa-c540b885f4f0","null","<p style=""text-align: center;"">+</p>","null","fixation","","","","","","","","","","","","","","","","","","","","","","",""
"","","","","","html-slider-response","52","1087698","0.0-17.0-0.12","306d960c-8919-4e56-8baa-c540b885f4f0","1000","
                  <p style=""text-align: center;"">₪39
                                                <br>60%</p>
                  <p id=""wtp"" style=""text-align:center; margin-top: 0px; margin-bottom: 0px; font-size: 40px"";>&ensp;</p>","-","viewing","0","15","9C,25B","","","","","","","","","","","","","","","","","","","",""
"","","","","","html-slider-response","53","1089769","0.0-17.0-1.12","306d960c-8919-4e56-8baa-c540b885f4f0","2070","
                  <p style=""text-align: center;"">₪39
                                                <br>60%</p>
                  <p id=""wtp"" style=""text-align:center; margin-top: 0px; margin-bottom: 0px; font-size: 40px"";>מוכנים לשלם: <span id=""c_p_y""></span></p>","50","evaluation","65","15","9C,25B","60","39","50","","","","","","","","","","","","","","","","",""
"","","","","","html-keyboard-response","54","1090828","0.0-17.0-2.12","306d960c-8919-4e56-8baa-c540b885f4f0","null","<p style=""text-align: center;"">+</p>","null","fixation","","","","","","","","","","","","","","","","","","","","","","",""
"","","","","","html-slider-response","55","1091834","0.0-17.0-0.13","306d960c-8919-4e56-8baa-c540b885f4f0","1000","
                  <p style=""text-align: center;"">₪58
                                                <br>40%</p>
                  <p id=""wtp"" style=""text-align:center; margin-top: 0px; margin-bottom: 0px; font-size: 40px"";>&ensp;</p>","-","viewing","0","20","10C,13A,19C,21B","","","","","","","","","","","","","","","","","","","",""
"","","","","","html-slider-response","56","1094105","0.0-17.0-1.13","306d960c-8919-4e56-8baa-c540b885f4f0","2270","
                  <p style=""text-align: center;"">₪58
                                                <br>40%</p>
                  <p id=""wtp"" style=""text-align:center; margin-top: 0px; margin-bottom: 0px; font-size: 40px"";>מוכנים לשלם: <span id=""c_p_y""></span></p>","25","evaluation","79","20","10C,13A,19C,21B","40","58","25","","","","","","","","","","","","","","","","",""
"","","","","","html-keyboard-response","57","1095087","0.0-17.0-2.13","306d960c-8919-4e56-8baa-c540b885f4f0","null","<p style=""text-align: center;"">+</p>","null","fixation","","","","","","","","","","","","","","","","","","","","","","",""
"","","","","","html-slider-response","58","1096102","0.0-17.0-0.14","306d960c-8919-4e56-8baa-c540b885f4f0","1000","
                  <p style=""text-align: center;"">₪71
                                                <br>45%</p>
                  <p id=""wtp"" style=""text-align:center; margin-top: 0px; margin-bottom: 0px; font-size: 40px"";>&ensp;</p>","-","viewing","0","26","2B,16A","","","","","","","","","","","","","","","","","","","",""
"","","","","","html-slider-response","59","1098712","0.0-17.0-1.14","306d960c-8919-4e56-8baa-c540b885f4f0","2609","
                  <p style=""text-align: center;"">₪71
                                                <br>45%</p>
                  <p id=""wtp"" style=""text-align:center; margin-top: 0px; margin-bottom: 0px; font-size: 40px"";>מוכנים לשלם: <span id=""c_p_y""></span></p>","20","evaluation","42","26","2B,16A","45","71","20","","","","","","","","","","","","","","","","",""
"","","","","","html-keyboard-response","60","1099458","0.0-17.0-2.14","306d960c-8919-4e56-8baa-c540b885f4f0","null","<p style=""text-align: center;"">+</p>","null","fixation","","","","","","","","","","","","","","","","","","","","","","",""
"","","","","","html-slider-response","61","1100475","0.0-17.0-0.15","306d960c-8919-4e56-8baa-c540b885f4f0","1000","
                  <p style=""text-align: center;"">₪71
                                                <br>75%</p>
                  <p id=""wtp"" style=""text-align:center; margin-top: 0px; margin-bottom: 0px; font-size: 40px"";>&ensp;</p>","-","viewing","0","28","8B","","","","","","","","","","","","","","","","","","","",""
"","","","","","html-slider-response","62","1102521","0.0-17.0-1.15","306d960c-8919-4e56-8baa-c540b885f4f0","2045","
                  <p style=""text-align: center;"">₪71
                                                <br>75%</p>
                  <p id=""wtp"" style=""text-align:center; margin-top: 0px; margin-bottom: 0px; font-size: 40px"";>מוכנים לשלם: <span id=""c_p_y""></span></p>","40","evaluation","43","28","8B","75","71","40","","","","","","","","","","","","","","","","",""
"","","","","","html-keyboard-response","63","1103823","0.0-17.0-2.15","306d960c-8919-4e56-8baa-c540b885f4f0","null","<p style=""text-align: center;"">+</p>","null","fixation","","","","","","","","","","","","","","","","","","","","","","",""
"","","","","","html-slider-response","64","1104829","0.0-17.0-0.16","306d960c-8919-4e56-8baa-c540b885f4f0","1000","
                  <p style=""text-align: center;"">₪76
                                                <br>65%</p>
                  <p id=""wtp"" style=""text-align:center; margin-top: 0px; margin-bottom: 0px; font-size: 40px"";>&ensp;</p>","-","viewing","0","29","8C,19A,24B","","","","","","","","","","","","","","","","","","","",""
"","","","","","html-slider-response","65","1107465","0.0-17.0-1.16","306d960c-8919-4e56-8baa-c540b885f4f0","2634","
                  <p style=""text-align: center;"">₪76
                                                <br>65%</p>
                  <p id=""wtp"" style=""text-align:center; margin-top: 0px; margin-bottom: 0px; font-size: 40px"";>מוכנים לשלם: <span id=""c_p_y""></span></p>","40","evaluation","53","29","8C,19A,24B","65","76","40","","","","","","","","","","","","","","","","",""
"","","","","","html-keyboard-response","66","1108217","0.0-17.0-2.16","306d960c-8919-4e56-8baa-c540b885f4f0","null","<p style=""text-align: center;"">+</p>","null","fixation","","","","","","","","","","","","","","","","","","","","","","",""
"","","","","","html-slider-response","67","1109232","0.0-17.0-0.17","306d960c-8919-4e56-8baa-c540b885f4f0","1000","
                  <p style=""text-align: center;"">₪43
                                                <br>60%</p>
                  <p id=""wtp"" style=""text-align:center; margin-top: 0px; margin-bottom: 0px; font-size: 40px"";>&ensp;</p>","-","viewing","0","17","2A,7A,9A,15B","","","","","","","","","","","","","","","","","","","",""
"","","","","","html-slider-response","68","1112505","0.0-17.0-1.17","306d960c-8919-4e56-8baa-c540b885f4f0","3271","
                  <p style=""text-align: center;"">₪43
                                                <br>60%</p>
                  <p id=""wtp"" style=""text-align:center; margin-top: 0px; margin-bottom: 0px; font-size: 40px"";>מוכנים לשלם: <span id=""c_p_y""></span></p>","45","evaluation","24","17","2A,7A,9A,15B","60","43","45","","","","","","","","","","","","","","","","",""
"","","","","","html-keyboard-response","69","1113583","0.0-17.0-2.17","306d960c-8919-4e56-8baa-c540b885f4f0","null","<p style=""text-align: center;"">+</p>","null","fixation","","","","","","","","","","","","","","","","","","","","","","",""
"","","","","","html-slider-response","70","1114589","0.0-17.0-0.18","306d960c-8919-4e56-8baa-c540b885f4f0","1000","
                  <p style=""text-align: center;"">₪61
                                                <br>45%</p>
                  <p id=""wtp"" style=""text-align:center; margin-top: 0px; margin-bottom: 0px; font-size: 40px"";>&ensp;</p>","-","viewing","0","22","10A,11A","","","","","","","","","","","","","","","","","","","",""
"","","","","","html-slider-response","71","1116633","0.0-17.0-1.18","306d960c-8919-4e56-8baa-c540b885f4f0","2043","
                  <p style=""text-align: center;"">₪61
                                                <br>45%</p>
                  <p id=""wtp"" style=""text-align:center; margin-top: 0px; margin-bottom: 0px; font-size: 40px"";>מוכנים לשלם: <span id=""c_p_y""></span></p>","25","evaluation","68","22","10A,11A","45","61","25","","","","","","","","","","","","","","","","",""
"","","","","","html-keyboard-response","72","1117547","0.0-17.0-2.18","306d960c-8919-4e56-8baa-c540b885f4f0","null","<p style=""text-align: center;"">+</p>","null","fixation","","","","","","","","","","","","","","","","","","","","","","",""
"","","","","","html-slider-response","73","1118559","0.0-17.0-0.19","306d960c-8919-4e56-8baa-c540b885f4f0","1000","
                  <p style=""text-align: center;"">₪39
                                                <br>65%</p>
                  <p id=""wtp"" style=""text-align:center; margin-top: 0px; margin-bottom: 0px; font-size: 40px"";>&ensp;</p>","-","viewing","0","16","1A,15A,26C","","","","","","","","","","","","","","","","","","","",""
"","","","","","html-slider-response","74","1122553","0.0-17.0-1.19","306d960c-8919-4e56-8baa-c540b885f4f0","3992","
                  <p style=""text-align: center;"">₪39
                                                <br>65%</p>
                  <p id=""wtp"" style=""text-align:center; margin-top: 0px; margin-bottom: 0px; font-size: 40px"";>מוכנים לשלם: <span id=""c_p_y""></span></p>","50","evaluation","65","16","1A,15A,26C","65","39","50","","","","","","","","","","","","","","","","",""
"","","","","","html-keyboard-response","75","1124048","0.0-17.0-2.19","306d960c-8919-4e56-8baa-c540b885f4f0","null","<p style=""text-align: center;"">+</p>","null","fixation","","","","","","","","","","","","","","","","","","","","","","",""
"","","","","","html-slider-response","76","1125051","0.0-17.0-0.20","306d960c-8919-4e56-8baa-c540b885f4f0","1000","
                  <p style=""text-align: center;"">₪11
                                                <br>75%</p>
                  <p id=""wtp"" style=""text-align:center; margin-top: 0px; margin-bottom: 0px; font-size: 40px"";>&ensp;</p>","-","viewing","0","7","6B,18B,22C,24C,29A","","","","","","","","","","","","","","","","","","","",""
"","","","","","html-slider-response","77","1127616","0.0-17.0-1.20","306d960c-8919-4e56-8baa-c540b885f4f0","2565","
                  <p style=""text-align: center;"">₪11
                                                <br>75%</p>
                  <p id=""wtp"" style=""text-align:center; margin-top: 0px; margin-bottom: 0px; font-size: 40px"";>מוכנים לשלם: <span id=""c_p_y""></span></p>","10","evaluation","7","7","6B,18B,22C,24C,29A","75","11","10","","","","","","","","","","","","","","","","",""
"","","","","","html-keyboard-response","78","1128947","0.0-17.0-2.20","306d960c-8919-4e56-8baa-c540b885f4f0","null","<p style=""text-align: center;"">+</p>","null","fixation","","","","","","","","","","","","","","","","","","","","","","",""
"","","","","","html-slider-response","79","1129953","0.0-17.0-0.21","306d960c-8919-4e56-8baa-c540b885f4f0","1000","
                  <p style=""text-align: center;"">₪4
                                                <br>25%</p>
                  <p id=""wtp"" style=""text-align:center; margin-top: 0px; margin-bottom: 0px; font-size: 40px"";>&ensp;</p>","-","viewing","0","1","6C,29B,30C","","","","","","","","","","","","","","","","","","","",""
"","","","","","html-slider-response","80","1133472","0.0-17.0-1.21","306d960c-8919-4e56-8baa-c540b885f4f0","3518","
                  <p style=""text-align: center;"">₪4
                                                <br>25%</p>
                  <p id=""wtp"" style=""text-align:center; margin-top: 0px; margin-bottom: 0px; font-size: 40px"";>מוכנים לשלם: <span id=""c_p_y""></span></p>","11","evaluation","57","1","6C,29B,30C","25","4","11","","","","","","","","","","","","","","","","",""
"","","","","","html-keyboard-response","81","1134691","0.0-17.0-2.21","306d960c-8919-4e56-8baa-c540b885f4f0","null","<p style=""text-align: center;"">+</p>","null","fixation","","","","","","","","","","","","","","","","","","","","","","",""
"","","","","","html-slider-response","82","1135708","0.0-17.0-0.22","306d960c-8919-4e56-8baa-c540b885f4f0","1000","
                  <p style=""text-align: center;"">₪36
                                                <br>60%</p>
                  <p id=""wtp"" style=""text-align:center; margin-top: 0px; margin-bottom: 0px; font-size: 40px"";>&ensp;</p>","-","viewing","0","12","1C,7C,15C","","","","","","","","","","","","","","","","","","","",""
"","","","","","html-slider-response","83","1137816","0.0-17.0-1.22","306d960c-8919-4e56-8baa-c540b885f4f0","2107","
                  <p style=""text-align: center;"">₪36
                                                <br>60%</p>
                  <p id=""wtp"" style=""text-align:center; margin-top: 0px; margin-bottom: 0px; font-size: 40px"";>מוכנים לשלם: <span id=""c_p_y""></span></p>","40","evaluation","14","12","1C,7C,15C","60","36","40","","","","","","","","","","","","","","","","",""
"","","","","","html-keyboard-response","84","1138828","0.0-17.0-2.22","306d960c-8919-4e56-8baa-c540b885f4f0","null","<p style=""text-align: center;"">+</p>","null","fixation","","","","","","","","","","","","","","","","","","","","","","",""
"","","","","","html-slider-response","85","1139830","0.0-17.0-0.23","306d960c-8919-4e56-8baa-c540b885f4f0","1000","
                  <p style=""text-align: center;"">₪43
                                                <br>75%</p>
                  <p id=""wtp"" style=""text-align:center; margin-top: 0px; margin-bottom: 0px; font-size: 40px"";>&ensp;</p>","-","viewing","0","18","11B,19B,24A,26A","","","","","","","","","","","","","","","","","","","",""
"","","","","","html-slider-response","86","1141536","0.0-17.0-1.23","306d960c-8919-4e56-8baa-c540b885f4f0","1705","
                  <p style=""text-align: center;"">₪43
                                                <br>75%</p>
                  <p id=""wtp"" style=""text-align:center; margin-top: 0px; margin-bottom: 0px; font-size: 40px"";>מוכנים לשלם: <span id=""c_p_y""></span></p>","40","evaluation","51","18","11B,19B,24A,26A","75","43","40","","","","","","","","","","","","","","","","",""
"","","","","","html-keyboard-response","87","1142954","0.0-17.0-2.23","306d960c-8919-4e56-8baa-c540b885f4f0","null","<p style=""text-align: center;"">+</p>","null","fixation","","","","","","","","","","","","","","","","","","","","","","",""
"","","","","","html-slider-response","88","1143967","0.0-17.0-0.24","306d960c-8919-4e56-8baa-c540b885f4f0","1000","
                  <p style=""text-align: center;"">₪79
                                                <br>40%</p>
                  <p id=""wtp"" style=""text-align:center; margin-top: 0px; margin-bottom: 0px; font-size: 40px"";>&ensp;</p>","-","viewing","0","30","9B","","","","","","","","","","","","","","","","","","","",""
"","","","","","html-slider-response","89","1147280","0.0-17.0-1.24","306d960c-8919-4e56-8baa-c540b885f4f0","3312","
                  <p style=""text-align: center;"">₪79
                                                <br>40%</p>
                  <p id=""wtp"" style=""text-align:center; margin-top: 0px; margin-bottom: 0px; font-size: 40px"";>מוכנים לשלם: <span id=""c_p_y""></span></p>","45","evaluation","47","30","9B","40","79","45","","","","","","","","","","","","","","","","",""
"","","","","","html-keyboard-response","90","1148069","0.0-17.0-2.24","306d960c-8919-4e56-8baa-c540b885f4f0","null","<p style=""text-align: center;"">+</p>","null","fixation","","","","","","","","","","","","","","","","","","","","","","",""
"","","","","","html-slider-response","91","1149078","0.0-17.0-0.25","306d960c-8919-4e56-8baa-c540b885f4f0","1000","
                  <p style=""text-align: center;"">₪58
                                                <br>45%</p>
                  <p id=""wtp"" style=""text-align:center; margin-top: 0px; margin-bottom: 0px; font-size: 40px"";>&ensp;</p>","-","viewing","0","21","11C,18C,25A","","","","","","","","","","","","","","","","","","","",""
"","","","","","html-slider-response","92","1151224","0.0-17.0-1.25","306d960c-8919-4e56-8baa-c540b885f4f0","2145","
                  <p style=""text-align: center;"">₪58
                                                <br>45%</p>
                  <p id=""wtp"" style=""text-align:center; margin-top: 0px; margin-bottom: 0px; font-size: 40px"";>מוכנים לשלם: <span id=""c_p_y""></span></p>","25","evaluation","34","21","11C,18C,25A","45","58","25","","","","","","","","","","","","","","","","",""
"","","","","","html-keyboard-response","93","1152664","0.0-17.0-2.25","306d960c-8919-4e56-8baa-c540b885f4f0","null","<p style=""text-align: center;"">+</p>","null","fixation","","","","","","","","","","","","","","","","","","","","","","",""
"","","","","","html-slider-response","94","1153676","0.0-17.0-0.26","306d960c-8919-4e56-8baa-c540b885f4f0","1000","
                  <p style=""text-align: center;"">₪16
                                                <br>20%</p>
                  <p id=""wtp"" style=""text-align:center; margin-top: 0px; margin-bottom: 0px; font-size: 40px"";>&ensp;</p>","-","viewing","0","8","14C,17A,20C,27A","","","","","","","","","","","","","","","","","","","",""
"","","","","","html-slider-response","95","1155672","0.0-17.0-1.26","306d960c-8919-4e56-8baa-c540b885f4f0","1995","
                  <p style=""text-align: center;"">₪16
                                                <br>20%</p>
                  <p id=""wtp"" style=""text-align:center; margin-top: 0px; margin-bottom: 0px; font-size: 40px"";>מוכנים לשלם: <span id=""c_p_y""></span></p>","10","evaluation","64","8","14C,17A,20C,27A","20","16","10","","","","","","","","","","","","","","","","",""
"","","","","","html-keyboard-response","96","1156461","0.0-17.0-2.26","306d960c-8919-4e56-8baa-c540b885f4f0","null","<p style=""text-align: center;"">+</p>","null","fixation","","","","","","","","","","","","","","","","","","","","","","",""
"","","","","","html-slider-response","97","1157464","0.0-17.0-0.27","306d960c-8919-4e56-8baa-c540b885f4f0","1000","
                  <p style=""text-align: center;"">₪61
                                                <br>55%</p>
                  <p id=""wtp"" style=""text-align:center; margin-top: 0px; margin-bottom: 0px; font-size: 40px"";>&ensp;</p>","-","viewing","0","23","7B,26B","","","","","","","","","","","","","","","","","","","",""
"","","","","","html-slider-response","98","1160616","0.0-17.0-1.27","306d960c-8919-4e56-8baa-c540b885f4f0","3152","
                  <p style=""text-align: center;"">₪61
                                                <br>55%</p>
                  <p id=""wtp"" style=""text-align:center; margin-top: 0px; margin-bottom: 0px; font-size: 40px"";>מוכנים לשלם: <span id=""c_p_y""></span></p>","15","evaluation","51","23","7B,26B","55","61","15","","","","","","","","","","","","","","","","",""
"","","","","","html-keyboard-response","99","1162009","0.0-17.0-2.27","306d960c-8919-4e56-8baa-c540b885f4f0","null","<p style=""text-align: center;"">+</p>","null","fixation","","","","","","","","","","","","","","","","","","","","","","",""
"","","","","","html-slider-response","100","1163019","0.0-17.0-0.28","306d960c-8919-4e56-8baa-c540b885f4f0","1000","
                  <p style=""text-align: center;"">₪36
                                                <br>30%</p>
                  <p id=""wtp"" style=""text-align:center; margin-top: 0px; margin-bottom: 0px; font-size: 40px"";>&ensp;</p>","-","viewing","0","11","3C,20A,22A","","","","","","","","","","","","","","","","","","","",""
"","","","","","html-slider-response","101","1164520","0.0-17.0-1.28","306d960c-8919-4e56-8baa-c540b885f4f0","1500","
                  <p style=""text-align: center;"">₪36
                                                <br>30%</p>
                  <p id=""wtp"" style=""text-align:center; margin-top: 0px; margin-bottom: 0px; font-size: 40px"";>מוכנים לשלם: <span id=""c_p_y""></span></p>","31","evaluation","74","11","3C,20A,22A","30","36","31","","","","","","","","","","","","","","","","",""
"","","","","","html-keyboard-response","102","1166007","0.0-17.0-2.28","306d960c-8919-4e56-8baa-c540b885f4f0","null","<p style=""text-align: center;"">+</p>","null","fixation","","","","","","","","","","","","","","","","","","","","","","",""
"","","","","","html-slider-response","103","1167022","0.0-17.0-0.29","306d960c-8919-4e56-8baa-c540b885f4f0","1000","
                  <p style=""text-align: center;"">₪18
                                                <br>25%</p>
                  <p id=""wtp"" style=""text-align:center; margin-top: 0px; margin-bottom: 0px; font-size: 40px"";>&ensp;</p>","-","viewing","0","9","14A,23A","","","","","","","","","","","","","","","","","","","",""
"","","","","","html-slider-response","104","1168552","0.0-17.0-1.29","306d960c-8919-4e56-8baa-c540b885f4f0","1529","
                  <p style=""text-align: center;"">₪18
                                                <br>25%</p>
                  <p id=""wtp"" style=""text-align:center; margin-top: 0px; margin-bottom: 0px; font-size: 40px"";>מוכנים לשלם: <span id=""c_p_y""></span></p>","20","evaluation","42","9","14A,23A","25","18","20","","","","","","","","","","","","","","","","",""
"","","","","","html-keyboard-response","105","1169762","0.0-17.0-2.29","306d960c-8919-4e56-8baa-c540b885f4f0","null","<p style=""text-align: center;"">+</p>","null","fixation","","","","","","","","","","","","","","","","","","","","","","",""
"","","","","","html-slider-response","106","1170776","0.0-17.0-0.30","306d960c-8919-4e56-8baa-c540b885f4f0","1000","
                  <p style=""text-align: center;"">₪18
                                                <br>50%</p>
                  <p id=""wtp"" style=""text-align:center; margin-top: 0px; margin-bottom: 0px; font-size: 40px"";>&ensp;</p>","-","viewing","0","10","2C,16C,22B,28A","","","","","","","","","","","","","","","","","","","",""
"","","","","","html-slider-response","107","1172440","0.0-17.0-1.30","306d960c-8919-4e56-8baa-c540b885f4f0","1662","
                  <p style=""text-align: center;"">₪18
                                                <br>50%</p>
                  <p id=""wtp"" style=""text-align:center; margin-top: 0px; margin-bottom: 0px; font-size: 40px"";>מוכנים לשלם: <span id=""c_p_y""></span></p>","20","evaluation","39","10","2C,16C,22B,28A","50","18","20","","","","","","","","","","","","","","","","",""
"","","","","","html-keyboard-response","108","1173868","0.0-17.0-2.30","306d960c-8919-4e56-8baa-c540b885f4f0","null","<p style=""text-align: center;"">+</p>","null","fixation","","","","","","","","","","","","","","","","","","","","","","",""
"","","","","","html-keyboard-response","109","1174880","0.0-18.0","306d960c-8919-4e56-8baa-c540b885f4f0","null","<p style=""text-align: center;"">+</p>","null","fixation","","","","","","","","","","","","","","","","","","","","","","",""
"","","","","","html-keyboard-response","110","1175992","0.0-19.0","306d960c-8919-4e56-8baa-c540b885f4f0","null","<p>הפסקה.
          <br>לחצו כדי להמשיך.</p>","1","scan_wait","","","","","","","","","","","","","","","","","","","","","","",""
"","","","","","html-keyboard-response","111","1177000","0.0-20.0","306d960c-8919-4e56-8baa-c540b885f4f0","null","<p style=""text-align: center;"">+</p>","null","fixation","","","","","","","","","","","","","","","","","","","","","","",""
"","","","","","html-slider-response","112","1178009","0.0-21.0-0.0","306d960c-8919-4e56-8baa-c540b885f4f0","1000","
                  <p style=""text-align: center;"">₪79
                                                <br>65%</p>
                  <p id=""wtp"" style=""text-align:center; margin-top: 0px; margin-bottom: 0px; font-size: 40px"";>&ensp;</p>","-","viewing","0","31","8A","","","","","","","","","","","","","","","","","","","",""
"","","","","","html-slider-response","113","1179248","0.0-21.0-1.0","306d960c-8919-4e56-8baa-c540b885f4f0","1238","
                  <p style=""text-align: center;"">₪79
                                                <br>65%</p>
                  <p id=""wtp"" style=""text-align:center; margin-top: 0px; margin-bottom: 0px; font-size: 40px"";>מוכנים לשלם: <span id=""c_p_y""></span></p>","14","evaluation","61","31","8A","65","79","14","","","","","","","","","","","","","","","","",""
"","","","","","html-keyboard-response","114","1179988","0.0-21.0-2.0","306d960c-8919-4e56-8baa-c540b885f4f0","null","<p style=""text-align: center;"">+</p>","null","fixation","","","","","","","","","","","","","","","","","","","","","","",""
"","","","","","html-slider-response","115","1181000","0.0-21.0-0.1","306d960c-8919-4e56-8baa-c540b885f4f0","1000","
                  <p style=""text-align: center;"">₪76
                                                <br>65%</p>
                  <p id=""wtp"" style=""text-align:center; margin-top: 0px; margin-bottom: 0px; font-size: 40px"";>&ensp;</p>","-","viewing","0","29","8C,19A,24B","","","","","","","","","","","","","","","","","","","",""
"","","","","","html-slider-response","116","1182840","0.0-21.0-1.1","306d960c-8919-4e56-8baa-c540b885f4f0","1839","
                  <p style=""text-align: center;"">₪76
                                                <br>65%</p>
                  <p id=""wtp"" style=""text-align:center; margin-top: 0px; margin-bottom: 0px; font-size: 40px"";>מוכנים לשלם: <span id=""c_p_y""></span></p>","49","evaluation","16","29","8C,19A,24B","65","76","49","","","","","","","","","","","","","","","","",""
"","","","","","html-keyboard-response","117","1183669","0.0-21.0-2.1","306d960c-8919-4e56-8baa-c540b885f4f0","null","<p style=""text-align: center;"">+</p>","null","fixation","","","","","","","","","","","","","","","","","","","","","","",""
"","","","","","html-slider-response","118","1184675","0.0-21.0-0.2","306d960c-8919-4e56-8baa-c540b885f4f0","1000","
                  <p style=""text-align: center;"">₪11
                                                <br>25%</p>
                  <p id=""wtp"" style=""text-align:center; margin-top: 0px; margin-bottom: 0px; font-size: 40px"";>&ensp;</p>","-","viewing","0","5","12A,27B,28B,30B","","","","","","","","","","","","","","","","","","","",""
"","","","","","html-slider-response","119","1186128","0.0-21.0-1.2","306d960c-8919-4e56-8baa-c540b885f4f0","1452","
                  <p style=""text-align: center;"">₪11
                                                <br>25%</p>
                  <p id=""wtp"" style=""text-align:center; margin-top: 0px; margin-bottom: 0px; font-size: 40px"";>מוכנים לשלם: <span id=""c_p_y""></span></p>","8","evaluation","30","5","12A,27B,28B,30B","25","11","8","","","","","","","","","","","","","","","","",""
"","","","","","html-keyboard-response","120","1187269","0.0-21.0-2.2","306d960c-8919-4e56-8baa-c540b885f4f0","null","<p style=""text-align: center;"">+</p>","null","fixation","","","","","","","","","","","","","","","","","","","","","","",""
"","","","","","html-slider-response","121","1188277","0.0-21.0-0.3","306d960c-8919-4e56-8baa-c540b885f4f0","1000","
                  <p style=""text-align: center;"">₪11
                                                <br>75%</p>
                  <p id=""wtp"" style=""text-align:center; margin-top: 0px; margin-bottom: 0px; font-size: 40px"";>&ensp;</p>","-","viewing","0","7","6B,18B,22C,24C,29A","","","","","","","","","","","","","","","","","","","",""
"","","","","","html-slider-response","122","1189889","0.0-21.0-1.3","306d960c-8919-4e56-8baa-c540b885f4f0","1611","
                  <p style=""text-align: center;"">₪11
                                                <br>75%</p>
                  <p id=""wtp"" style=""text-align:center; margin-top: 0px; margin-bottom: 0px; font-size: 40px"";>מוכנים לשלם: <span id=""c_p_y""></span></p>","25","evaluation","31","7","6B,18B,22C,24C,29A","75","11","25","","","","","","","","","","","","","","","","",""
"","","","","","html-keyboard-response","123","1190523","0.0-21.0-2.3","306d960c-8919-4e56-8baa-c540b885f4f0","null","<p style=""text-align: center;"">+</p>","null","fixation","","","","","","","","","","","","","","","","","","","","","","",""
"","","","","","html-slider-response","124","1191532","0.0-21.0-0.4","306d960c-8919-4e56-8baa-c540b885f4f0","1000","
                  <p style=""text-align: center;"">₪58
                                                <br>30%</p>
                  <p id=""wtp"" style=""text-align:center; margin-top: 0px; margin-bottom: 0px; font-size: 40px"";>&ensp;</p>","-","viewing","0","19","13C,30A","","","","","","","","","","","","","","","","","","","",""
"","","","","","html-slider-response","125","1193017","0.0-21.0-1.4","306d960c-8919-4e56-8baa-c540b885f4f0","1485","
                  <p style=""text-align: center;"">₪58
                                                <br>30%</p>
                  <p id=""wtp"" style=""text-align:center; margin-top: 0px; margin-bottom: 0px; font-size: 40px"";>מוכנים לשלם: <span id=""c_p_y""></span></p>","6","evaluation","37","19","13C,30A","30","58","6","","","","","","","","","","","","","","","","",""
"","","","","","html-keyboard-response","126","1194327","0.0-21.0-2.4","306d960c-8919-4e56-8baa-c540b885f4f0","null","<p style=""text-align: center;"">+</p>","null","fixation","","","","","","","","","","","","","","","","","","","","","","",""
"","","","","","html-slider-response","127","1195336","0.0-21.0-0.5","306d960c-8919-4e56-8baa-c540b885f4f0","1000","
                  <p style=""text-align: center;"">₪4
                                                <br>25%</p>
                  <p id=""wtp"" style=""text-align:center; margin-top: 0px; margin-bottom: 0px; font-size: 40px"";>&ensp;</p>","-","viewing","0","1","6C,29B,30C","","","","","","","","","","","","","","","","","","","",""
"","","","","","html-slider-response","128","1196841","0.0-21.0-1.5","306d960c-8919-4e56-8baa-c540b885f4f0","1505","
                  <p style=""text-align: center;"">₪4
                                                <br>25%</p>
                  <p id=""wtp"" style=""text-align:center; margin-top: 0px; margin-bottom: 0px; font-size: 40px"";>מוכנים לשלם: <span id=""c_p_y""></span></p>","4","evaluation","31","1","6C,29B,30C","25","4","4","","","","","","","","","","","","","","","","",""
"","","","","","html-keyboard-response","129","1198339","0.0-21.0-2.5","306d960c-8919-4e56-8baa-c540b885f4f0","null","<p style=""text-align: center;"">+</p>","null","fixation","","","","","","","","","","","","","","","","","","","","","","",""
"","","","","","html-slider-response","130","1199341","0.0-21.0-0.6","306d960c-8919-4e56-8baa-c540b885f4f0","1000","
                  <p style=""text-align: center;"">₪36
                                                <br>70%</p>
                  <p id=""wtp"" style=""text-align:center; margin-top: 0px; margin-bottom: 0px; font-size: 40px"";>&ensp;</p>","-","viewing","0","13","3A,5C,10B","","","","","","","","","","","","","","","","","","","",""
"","","","","","html-slider-response","131","1200857","0.0-21.0-1.6","306d960c-8919-4e56-8baa-c540b885f4f0","1515","
                  <p style=""text-align: center;"">₪36
                                                <br>70%</p>
                  <p id=""wtp"" style=""text-align:center; margin-top: 0px; margin-bottom: 0px; font-size: 40px"";>מוכנים לשלם: <span id=""c_p_y""></span></p>","20","evaluation","20","13","3A,5C,10B","70","36","20","","","","","","","","","","","","","","","","",""
"","","","","","html-keyboard-response","132","1202329","0.0-21.0-2.6","306d960c-8919-4e56-8baa-c540b885f4f0","null","<p style=""text-align: center;"">+</p>","null","fixation","","","","","","","","","","","","","","","","","","","","","","",""
"","","","","","html-slider-response","133","1203343","0.0-21.0-0.7","306d960c-8919-4e56-8baa-c540b885f4f0","1000","
                  <p style=""text-align: center;"">₪71
                                                <br>75%</p>
                  <p id=""wtp"" style=""text-align:center; margin-top: 0px; margin-bottom: 0px; font-size: 40px"";>&ensp;</p>","-","viewing","0","28","8B","","","","","","","","","","","","","","","","","","","",""
"","","","","","html-slider-response","134","1205873","0.0-21.0-1.7","306d960c-8919-4e56-8baa-c540b885f4f0","2529","
                  <p style=""text-align: center;"">₪71
                                                <br>75%</p>
                  <p id=""wtp"" style=""text-align:center; margin-top: 0px; margin-bottom: 0px; font-size: 40px"";>מוכנים לשלם: <span id=""c_p_y""></span></p>","48","evaluation","27","28","8B","75","71","48","","","","","","","","","","","","","","","","",""
"","","","","","html-keyboard-response","135","1206599","0.0-21.0-2.7","306d960c-8919-4e56-8baa-c540b885f4f0","null","<p style=""text-align: center;"">+</p>","null","fixation","","","","","","","","","","","","","","","","","","","","","","",""
"","","","","","html-slider-response","136","1207615","0.0-21.0-0.8","306d960c-8919-4e56-8baa-c540b885f4f0","1000","
                  <p style=""text-align: center;"">₪18
                                                <br>50%</p>
                  <p id=""wtp"" style=""text-align:center; margin-top: 0px; margin-bottom: 0px; font-size: 40px"";>&ensp;</p>","-","viewing","0","10","2C,16C,22B,28A","","","","","","","","","","","","","","","","","","","",""
"","","","","","html-slider-response","137","1209105","0.0-21.0-1.8","306d960c-8919-4e56-8baa-c540b885f4f0","1489","
                  <p style=""text-align: center;"">₪18
                                                <br>50%</p>
                  <p id=""wtp"" style=""text-align:center; margin-top: 0px; margin-bottom: 0px; font-size: 40px"";>מוכנים לשלם: <span id=""c_p_y""></span></p>","30","evaluation","40","10","2C,16C,22B,28A","50","18","30","","","","","","","","","","","","","","","","",""
"","","","","","html-keyboard-response","138","1209883","0.0-21.0-2.8","306d960c-8919-4e56-8baa-c540b885f4f0","null","<p style=""text-align: center;"">+</p>","null","fixation","","","","","","","","","","","","","","","","","","","","","","",""
"","","","","","html-slider-response","139","1210899","0.0-21.0-0.9","306d960c-8919-4e56-8baa-c540b885f4f0","1000","
                  <p style=""text-align: center;"">₪58
                                                <br>40%</p>
                  <p id=""wtp"" style=""text-align:center; margin-top: 0px; margin-bottom: 0px; font-size: 40px"";>&ensp;</p>","-","viewing","0","20","10C,13A,19C,21B","","","","","","","","","","","","","","","","","","","",""
"","","","","","html-slider-response","140","1212441","0.0-21.0-1.9","306d960c-8919-4e56-8baa-c540b885f4f0","1541","
                  <p style=""text-align: center;"">₪58
                                                <br>40%</p>
                  <p id=""wtp"" style=""text-align:center; margin-top: 0px; margin-bottom: 0px; font-size: 40px"";>מוכנים לשלם: <span id=""c_p_y""></span></p>","29","evaluation","60","20","10C,13A,19C,21B","40","58","29","","","","","","","","","","","","","","","","",""
"","","","","","html-keyboard-response","141","1213922","0.0-21.0-2.9","306d960c-8919-4e56-8baa-c540b885f4f0","null","<p style=""text-align: center;"">+</p>","null","fixation","","","","","","","","","","","","","","","","","","","","","","",""
"","","","","","html-slider-response","142","1214923","0.0-21.0-0.10","306d960c-8919-4e56-8baa-c540b885f4f0","1000","
                  <p style=""text-align: center;"">₪11
                                                <br>20%</p>
                  <p id=""wtp"" style=""text-align:center; margin-top: 0px; margin-bottom: 0px; font-size: 40px"";>&ensp;</p>","-","viewing","0","4","12C,17C,23C,28C","","","","","","","","","","","","","","","","","","","",""
"","","","","","html-slider-response","143","1216337","0.0-21.0-1.10","306d960c-8919-4e56-8baa-c540b885f4f0","1413","
                  <p style=""text-align: center;"">₪11
                                                <br>20%</p>
                  <p id=""wtp"" style=""text-align:center; margin-top: 0px; margin-bottom: 0px; font-size: 40px"";>מוכנים לשלם: <span id=""c_p_y""></span></p>","12","evaluation","57","4","12C,17C,23C,28C","20","11","12","","","","","","","","","","","","","","","","",""
"","","","","","html-keyboard-response","144","1217467","0.0-21.0-2.10","306d960c-8919-4e56-8baa-c540b885f4f0","null","<p style=""text-align: center;"">+</p>","null","fixation","","","","","","","","","","","","","","","","","","","","","","",""
"","","","","","html-slider-response","145","1218476","0.0-21.0-0.11","306d960c-8919-4e56-8baa-c540b885f4f0","1000","
                  <p style=""text-align: center;"">₪16
                                                <br>20%</p>
                  <p id=""wtp"" style=""text-align:center; margin-top: 0px; margin-bottom: 0px; font-size: 40px"";>&ensp;</p>","-","viewing","0","8","14C,17A,20C,27A","","","","","","","","","","","","","","","","","","","",""
"","","","","","html-slider-response","146","1220833","0.0-21.0-1.11","306d960c-8919-4e56-8baa-c540b885f4f0","2356","
                  <p style=""text-align: center;"">₪16
                                                <br>20%</p>
                  <p id=""wtp"" style=""text-align:center; margin-top: 0px; margin-bottom: 0px; font-size: 40px"";>מוכנים לשלם: <span id=""c_p_y""></span></p>","10","evaluation","69","8","14C,17A,20C,27A","20","16","10","","","","","","","","","","","","","","","","",""
"","","","","","html-keyboard-response","147","1222236","0.0-21.0-2.11","306d960c-8919-4e56-8baa-c540b885f4f0","null","<p style=""text-align: center;"">+</p>","null","fixation","","","","","","","","","","","","","","","","","","","","","","",""
"","","","","","html-slider-response","148","1223246","0.0-21.0-0.12","306d960c-8919-4e56-8baa-c540b885f4f0","1000","
                  <p style=""text-align: center;"">₪39
                                                <br>60%</p>
                  <p id=""wtp"" style=""text-align:center; margin-top: 0px; margin-bottom: 0px; font-size: 40px"";>&ensp;</p>","-","viewing","0","15","9C,25B","","","","","","","","","","","","","","","","","","","",""
"","","","","","html-slider-response","149","1225377","0.0-21.0-1.12","306d960c-8919-4e56-8baa-c540b885f4f0","2130","
                  <p style=""text-align: center;"">₪39
                                                <br>60%</p>
                  <p id=""wtp"" style=""text-align:center; margin-top: 0px; margin-bottom: 0px; font-size: 40px"";>מוכנים לשלם: <span id=""c_p_y""></span></p>","35","evaluation","28","15","9C,25B","60","39","35","","","","","","","","","","","","","","","","",""
"","","","","","html-keyboard-response","150","1226555","0.0-21.0-2.12","306d960c-8919-4e56-8baa-c540b885f4f0","null","<p style=""text-align: center;"">+</p>","null","fixation","","","","","","","","","","","","","","","","","","","","","","",""
"","","","","","html-slider-response","151","1227568","0.0-21.0-0.13","306d960c-8919-4e56-8baa-c540b885f4f0","1000","
                  <p style=""text-align: center;"">₪43
                                                <br>60%</p>
                  <p id=""wtp"" style=""text-align:center; margin-top: 0px; margin-bottom: 0px; font-size: 40px"";>&ensp;</p>","-","viewing","0","17","2A,7A,9A,15B","","","","","","","","","","","","","","","","","","","",""
"","","","","","html-slider-response","152","1229481","0.0-21.0-1.13","306d960c-8919-4e56-8baa-c540b885f4f0","1912","
                  <p style=""text-align: center;"">₪43
                                                <br>60%</p>
                  <p id=""wtp"" style=""text-align:center; margin-top: 0px; margin-bottom: 0px; font-size: 40px"";>מוכנים לשלם: <span id=""c_p_y""></span></p>","30","evaluation","8","17","2A,7A,9A,15B","60","43","30","","","","","","","","","","","","","","","","",""
"","","","","","html-keyboard-response","153","1230628","0.0-21.0-2.13","306d960c-8919-4e56-8baa-c540b885f4f0","null","<p style=""text-align: center;"">+</p>","null","fixation","","","","","","","","","","","","","","","","","","","","","","",""
"","","","","","html-slider-response","154","1231637","0.0-21.0-0.14","306d960c-8919-4e56-8baa-c540b885f4f0","1000","
                  <p style=""text-align: center;"">₪39
                                                <br>65%</p>
                  <p id=""wtp"" style=""text-align:center; margin-top: 0px; margin-bottom: 0px; font-size: 40px"";>&ensp;</p>","-","viewing","0","16","1A,15A,26C","","","","","","","","","","","","","","","","","","","",""
"","","","","","html-slider-response","155","1234817","0.0-21.0-1.14","306d960c-8919-4e56-8baa-c540b885f4f0","3178","
                  <p style=""text-align: center;"">₪39
                                                <br>65%</p>
                  <p id=""wtp"" style=""text-align:center; margin-top: 0px; margin-bottom: 0px; font-size: 40px"";>מוכנים לשלם: <span id=""c_p_y""></span></p>","45","evaluation","27","16","1A,15A,26C","65","39","45","","","","","","","","","","","","","","","","",""
"","","","","","html-keyboard-response","156","1235545","0.0-21.0-2.14","306d960c-8919-4e56-8baa-c540b885f4f0","null","<p style=""text-align: center;"">+</p>","null","fixation","","","","","","","","","","","","","","","","","","","","","","",""
"","","","","","html-slider-response","157","1236560","0.0-21.0-0.15","306d960c-8919-4e56-8baa-c540b885f4f0","1000","
                  <p style=""text-align: center;"">₪18
                                                <br>25%</p>
                  <p id=""wtp"" style=""text-align:center; margin-top: 0px; margin-bottom: 0px; font-size: 40px"";>&ensp;</p>","-","viewing","0","9","14A,23A","","","","","","","","","","","","","","","","","","","",""
"","","","","","html-slider-response","158","1240089","0.0-21.0-1.15","306d960c-8919-4e56-8baa-c540b885f4f0","3528","
                  <p style=""text-align: center;"">₪18
                                                <br>25%</p>
                  <p id=""wtp"" style=""text-align:center; margin-top: 0px; margin-bottom: 0px; font-size: 40px"";>מוכנים לשלם: <span id=""c_p_y""></span></p>","20","evaluation","32","9","14A,23A","25","18","20","","","","","","","","","","","","","","","","",""
"","","","","","html-keyboard-response","159","1241483","0.0-21.0-2.15","306d960c-8919-4e56-8baa-c540b885f4f0","null","<p style=""text-align: center;"">+</p>","null","fixation","","","","","","","","","","","","","","","","","","","","","","",""
"","","","","","html-slider-response","160","1242499","0.0-21.0-0.16","306d960c-8919-4e56-8baa-c540b885f4f0","1000","
                  <p style=""text-align: center;"">₪11
                                                <br>45%</p>
                  <p id=""wtp"" style=""text-align:center; margin-top: 0px; margin-bottom: 0px; font-size: 40px"";>&ensp;</p>","-","viewing","0","6","14B,21C,25C","","","","","","","","","","","","","","","","","","","",""
"","","","","","html-slider-response","161","1244697","0.0-21.0-1.16","306d960c-8919-4e56-8baa-c540b885f4f0","2197","
                  <p style=""text-align: center;"">₪11
                                                <br>45%</p>
                  <p id=""wtp"" style=""text-align:center; margin-top: 0px; margin-bottom: 0px; font-size: 40px"";>מוכנים לשלם: <span id=""c_p_y""></span></p>","8","evaluation","5","6","14B,21C,25C","45","11","8","","","","","","","","","","","","","","","","",""
"","","","","","html-keyboard-response","162","1245811","0.0-21.0-2.16","306d960c-8919-4e56-8baa-c540b885f4f0","null","<p style=""text-align: center;"">+</p>","null","fixation","","","","","","","","","","","","","","","","","","","","","","",""
"","","","","","html-slider-response","163","1246820","0.0-21.0-0.17","306d960c-8919-4e56-8baa-c540b885f4f0","1000","
                  <p style=""text-align: center;"">₪36
                                                <br>75%</p>
                  <p id=""wtp"" style=""text-align:center; margin-top: 0px; margin-bottom: 0px; font-size: 40px"";>&ensp;</p>","-","viewing","0","14","4B,5A,13B,16B","","","","","","","","","","","","","","","","","","","",""
"","","","","","html-slider-response","164","1248673","0.0-21.0-1.17","306d960c-8919-4e56-8baa-c540b885f4f0","1852","
                  <p style=""text-align: center;"">₪36
                                                <br>75%</p>
                  <p id=""wtp"" style=""text-align:center; margin-top: 0px; margin-bottom: 0px; font-size: 40px"";>מוכנים לשלם: <span id=""c_p_y""></span></p>","42","evaluation","28","14","4B,5A,13B,16B","75","36","42","","","","","","","","","","","","","","","","",""
"","","","","","html-keyboard-response","165","1249455","0.0-21.0-2.17","306d960c-8919-4e56-8baa-c540b885f4f0","null","<p style=""text-align: center;"">+</p>","null","fixation","","","","","","","","","","","","","","","","","","","","","","",""
"","","","","","html-slider-response","166","1250458","0.0-21.0-0.18","306d960c-8919-4e56-8baa-c540b885f4f0","1000","
                  <p style=""text-align: center;"">₪61
                                                <br>55%</p>
                  <p id=""wtp"" style=""text-align:center; margin-top: 0px; margin-bottom: 0px; font-size: 40px"";>&ensp;</p>","-","viewing","0","23","7B,26B","","","","","","","","","","","","","","","","","","","",""
"","","","","","html-slider-response","167","1252681","0.0-21.0-1.18","306d960c-8919-4e56-8baa-c540b885f4f0","2222","
                  <p style=""text-align: center;"">₪61
                                                <br>55%</p>
                  <p id=""wtp"" style=""text-align:center; margin-top: 0px; margin-bottom: 0px; font-size: 40px"";>מוכנים לשלם: <span id=""c_p_y""></span></p>","36","evaluation","58","23","7B,26B","55","61","36","","","","","","","","","","","","","","","","",""
"","","","","","html-keyboard-response","168","1253209","0.0-21.0-2.18","306d960c-8919-4e56-8baa-c540b885f4f0","null","<p style=""text-align: center;"">+</p>","null","fixation","","","","","","","","","","","","","","","","","","","","","","",""
"","","","","","html-slider-response","169","1254212","0.0-21.0-0.19","306d960c-8919-4e56-8baa-c540b885f4f0","1000","
                  <p style=""text-align: center;"">₪79
                                                <br>40%</p>
                  <p id=""wtp"" style=""text-align:center; margin-top: 0px; margin-bottom: 0px; font-size: 40px"";>&ensp;</p>","-","viewing","0","30","9B","","","","","","","","","","","","","","","","","","","",""
"","","","","","html-slider-response","170","1257121","0.0-21.0-1.19","306d960c-8919-4e56-8baa-c540b885f4f0","2908","
                  <p style=""text-align: center;"">₪79
                                                <br>40%</p>
                  <p id=""wtp"" style=""text-align:center; margin-top: 0px; margin-bottom: 0px; font-size: 40px"";>מוכנים לשלם: <span id=""c_p_y""></span></p>","40","evaluation","54","30","9B","40","79","40","","","","","","","","","","","","","","","","",""
"","","","","","html-keyboard-response","171","1258335","0.0-21.0-2.19","306d960c-8919-4e56-8baa-c540b885f4f0","null","<p style=""text-align: center;"">+</p>","null","fixation","","","","","","","","","","","","","","","","","","","","","","",""
"","","","","","html-slider-response","172","1259349","0.0-21.0-0.20","306d960c-8919-4e56-8baa-c540b885f4f0","1000","
                  <p style=""text-align: center;"">₪71
                                                <br>55%</p>
                  <p id=""wtp"" style=""text-align:center; margin-top: 0px; margin-bottom: 0px; font-size: 40px"";>&ensp;</p>","-","viewing","0","27","5B,18A","","","","","","","","","","","","","","","","","","","",""
"","","","","","html-slider-response","173","1262321","0.0-21.0-1.20","306d960c-8919-4e56-8baa-c540b885f4f0","2971","
                  <p style=""text-align: center;"">₪71
                                                <br>55%</p>
                  <p id=""wtp"" style=""text-align:center; margin-top: 0px; margin-bottom: 0px; font-size: 40px"";>מוכנים לשלם: <span id=""c_p_y""></span></p>","39","evaluation","77","27","5B,18A","55","71","39","","","","","","","","","","","","","","","","",""
"","","","","","html-keyboard-response","174","1263711","0.0-21.0-2.20","306d960c-8919-4e56-8baa-c540b885f4f0","null","<p style=""text-align: center;"">+</p>","null","fixation","","","","","","","","","","","","","","","","","","","","","","",""
"","","","","","html-slider-response","175","1264721","0.0-21.0-0.21","306d960c-8919-4e56-8baa-c540b885f4f0","1000","
                  <p style=""text-align: center;"">₪36
                                                <br>30%</p>
                  <p id=""wtp"" style=""text-align:center; margin-top: 0px; margin-bottom: 0px; font-size: 40px"";>&ensp;</p>","-","viewing","0","11","3C,20A,22A","","","","","","","","","","","","","","","","","","","",""
"","","","","","html-slider-response","176","1267728","0.0-21.0-1.21","306d960c-8919-4e56-8baa-c540b885f4f0","3007","
                  <p style=""text-align: center;"">₪36
                                                <br>30%</p>
                  <p id=""wtp"" style=""text-align:center; margin-top: 0px; margin-bottom: 0px; font-size: 40px"";>מוכנים לשלם: <span id=""c_p_y""></span></p>","10","evaluation","1","11","3C,20A,22A","30","36","10","","","","","","","","","","","","","","","","",""
"","","","","","html-keyboard-response","177","1268966","0.0-21.0-2.21","306d960c-8919-4e56-8baa-c540b885f4f0","null","<p style=""text-align: center;"">+</p>","null","fixation","","","","","","","","","","","","","","","","","","","","","","",""
"","","","","","html-slider-response","178","1269970","0.0-21.0-0.22","306d960c-8919-4e56-8baa-c540b885f4f0","1000","
                  <p style=""text-align: center;"">₪4
                                                <br>75%</p>
                  <p id=""wtp"" style=""text-align:center; margin-top: 0px; margin-bottom: 0px; font-size: 40px"";>&ensp;</p>","-","viewing","0","3","12B,20B,23B,27C,29C","","","","","","","","","","","","","","","","","","","",""
"","","","","","html-slider-response","179","1272768","0.0-21.0-1.22","306d960c-8919-4e56-8baa-c540b885f4f0","2797","
                  <p style=""text-align: center;"">₪4
                                                <br>75%</p>
                  <p id=""wtp"" style=""text-align:center; margin-top: 0px; margin-bottom: 0px; font-size: 40px"";>מוכנים לשלם: <span id=""c_p_y""></span></p>","13","evaluation","52","3","12B,20B,23B,27C,29C","75","4","13","","","","","","","","","","","","","","","","",""
"","","","","","html-keyboard-response","180","1273312","0.0-21.0-2.22","306d960c-8919-4e56-8baa-c540b885f4f0","null","<p style=""text-align: center;"">+</p>","null","fixation","","","","","","","","","","","","","","","","","","","","","","",""
"","","","","","html-slider-response","181","1274316","0.0-21.0-0.23","306d960c-8919-4e56-8baa-c540b885f4f0","1000","
                  <p style=""text-align: center;"">₪71
                                                <br>45%</p>
                  <p id=""wtp"" style=""text-align:center; margin-top: 0px; margin-bottom: 0px; font-size: 40px"";>&ensp;</p>","-","viewing","0","26","2B,16A","","","","","","","","","","","","","","","","","","","",""
"","","","","","html-slider-response","182","1275561","0.0-21.0-1.23","306d960c-8919-4e56-8baa-c540b885f4f0","1244","
                  <p style=""text-align: center;"">₪71
                                                <br>45%</p>
                  <p id=""wtp"" style=""text-align:center; margin-top: 0px; margin-bottom: 0px; font-size: 40px"";>מוכנים לשלם: <span id=""c_p_y""></span></p>","10","evaluation","16","26","2B,16A","45","71","10","","","","","","","","","","","","","","","","",""
"","","","","","html-keyboard-response","183","1276272","0.0-21.0-2.23","306d960c-8919-4e56-8baa-c540b885f4f0","null","<p style=""text-align: center;"">+</p>","null","fixation","","","","","","","","","","","","","","","","","","","","","","",""
"","","","","","html-slider-response","184","1277283","0.0-21.0-0.24","306d960c-8919-4e56-8baa-c540b885f4f0","1000","
                  <p style=""text-align: center;"">₪4
                                                <br>50%</p>
                  <p id=""wtp"" style=""text-align:center; margin-top: 0px; margin-bottom: 0px; font-size: 40px"";>&ensp;</p>","-","viewing","0","2","4C,17B","","","","","","","","","","","","","","","","","","","",""
"","","","","","html-slider-response","185","1278888","0.0-21.0-1.24","306d960c-8919-4e56-8baa-c540b885f4f0","1605","
                  <p style=""text-align: center;"">₪4
                                                <br>50%</p>
                  <p id=""wtp"" style=""text-align:center; margin-top: 0px; margin-bottom: 0px; font-size: 40px"";>מוכנים לשלם: <span id=""c_p_y""></span></p>","10","evaluation","45","2","4C,17B","50","4","10","","","","","","","","","","","","","","","","",""
"","","","","","html-keyboard-response","186","1280371","0.0-21.0-2.24","306d960c-8919-4e56-8baa-c540b885f4f0","null","<p style=""text-align: center;"">+</p>","null","fixation","","","","","","","","","","","","","","","","","","","","","","",""
"","","","","","html-slider-response","187","1281387","0.0-21.0-0.25","306d960c-8919-4e56-8baa-c540b885f4f0","1000","
                  <p style=""text-align: center;"">₪36
                                                <br>60%</p>
                  <p id=""wtp"" style=""text-align:center; margin-top: 0px; margin-bottom: 0px; font-size: 40px"";>&ensp;</p>","-","viewing","0","12","1C,7C,15C","","","","","","","","","","","","","","","","","","","",""
"","","","","","html-slider-response","188","1284624","0.0-21.0-1.25","306d960c-8919-4e56-8baa-c540b885f4f0","3237","
                  <p style=""text-align: center;"">₪36
                                                <br>60%</p>
                  <p id=""wtp"" style=""text-align:center; margin-top: 0px; margin-bottom: 0px; font-size: 40px"";>מוכנים לשלם: <span id=""c_p_y""></span></p>","25","evaluation","71","12","1C,7C,15C","60","36","25","","","","","","","","","","","","","","","","",""
"","","","","","html-keyboard-response","189","1285330","0.0-21.0-2.25","306d960c-8919-4e56-8baa-c540b885f4f0","null","<p style=""text-align: center;"">+</p>","null","fixation","","","","","","","","","","","","","","","","","","","","","","",""
"","","","","","html-slider-response","190","1286343","0.0-21.0-0.26","306d960c-8919-4e56-8baa-c540b885f4f0","1000","
                  <p style=""text-align: center;"">₪58
                                                <br>45%</p>
                  <p id=""wtp"" style=""text-align:center; margin-top: 0px; margin-bottom: 0px; font-size: 40px"";>&ensp;</p>","-","viewing","0","21","11C,18C,25A","","","","","","","","","","","","","","","","","","","",""
"","","","","","html-slider-response","191","1288272","0.0-21.0-1.26","306d960c-8919-4e56-8baa-c540b885f4f0","1929","
                  <p style=""text-align: center;"">₪58
                                                <br>45%</p>
                  <p id=""wtp"" style=""text-align:center; margin-top: 0px; margin-bottom: 0px; font-size: 40px"";>מוכנים לשלם: <span id=""c_p_y""></span></p>","25","evaluation","66","21","11C,18C,25A","45","58","25","","","","","","","","","","","","","","","","",""
"","","","","","html-keyboard-response","192","1289576","0.0-21.0-2.26","306d960c-8919-4e56-8baa-c540b885f4f0","null","<p style=""text-align: center;"">+</p>","null","fixation","","","","","","","","","","","","","","","","","","","","","","",""
"","","","","","html-slider-response","193","1290582","0.0-21.0-0.27","306d960c-8919-4e56-8baa-c540b885f4f0","1000","
                  <p style=""text-align: center;"">₪61
                                                <br>45%</p>
                  <p id=""wtp"" style=""text-align:center; margin-top: 0px; margin-bottom: 0px; font-size: 40px"";>&ensp;</p>","-","viewing","0","22","10A,11A","","","","","","","","","","","","","","","","","","","",""
"","","","","","html-slider-response","194","1293160","0.0-21.0-1.27","306d960c-8919-4e56-8baa-c540b885f4f0","2578","
                  <p style=""text-align: center;"">₪61
                                                <br>45%</p>
                  <p id=""wtp"" style=""text-align:center; margin-top: 0px; margin-bottom: 0px; font-size: 40px"";>מוכנים לשלם: <span id=""c_p_y""></span></p>","25","evaluation","53","22","10A,11A","45","61","25","","","","","","","","","","","","","","","","",""
"","","","","","html-keyboard-response","195","1293855","0.0-21.0-2.27","306d960c-8919-4e56-8baa-c540b885f4f0","null","<p style=""text-align: center;"">+</p>","null","fixation","","","","","","","","","","","","","","","","","","","","","","",""
"","","","","","html-slider-response","196","1294867","0.0-21.0-0.28","306d960c-8919-4e56-8baa-c540b885f4f0","1000","
                  <p style=""text-align: center;"">₪64
                                                <br>25%</p>
                  <p id=""wtp"" style=""text-align:center; margin-top: 0px; margin-bottom: 0px; font-size: 40px"";>&ensp;</p>","-","viewing","0","24","6A,21A","","","","","","","","","","","","","","","","","","","",""
"","","","","","html-slider-response","197","1296320","0.0-21.0-1.28","306d960c-8919-4e56-8baa-c540b885f4f0","1453","
                  <p style=""text-align: center;"">₪64
                                                <br>25%</p>
                  <p id=""wtp"" style=""text-align:center; margin-top: 0px; margin-bottom: 0px; font-size: 40px"";>מוכנים לשלם: <span id=""c_p_y""></span></p>","25","evaluation","4","24","6A,21A","25","64","25","","","","","","","","","","","","","","","","",""
"","","","","","html-keyboard-response","198","1297030","0.0-21.0-2.28","306d960c-8919-4e56-8baa-c540b885f4f0","null","<p style=""text-align: center;"">+</p>","null","fixation","","","","","","","","","","","","","","","","","","","","","","",""
"","","","","","html-slider-response","199","1298038","0.0-21.0-0.29","306d960c-8919-4e56-8baa-c540b885f4f0","1000","
                  <p style=""text-align: center;"">₪43
                                                <br>75%</p>
                  <p id=""wtp"" style=""text-align:center; margin-top: 0px; margin-bottom: 0px; font-size: 40px"";>&ensp;</p>","-","viewing","0","18","11B,19B,24A,26A","","","","","","","","","","","","","","","","","","","",""
"","","","","","html-slider-response","200","1300081","0.0-21.0-1.29","306d960c-8919-4e56-8baa-c540b885f4f0","2043","
                  <p style=""text-align: center;"">₪43
                                                <br>75%</p>
                  <p id=""wtp"" style=""text-align:center; margin-top: 0px; margin-bottom: 0px; font-size: 40px"";>מוכנים לשלם: <span id=""c_p_y""></span></p>","30","evaluation","39","18","11B,19B,24A,26A","75","43","30","","","","","","","","","","","","","","","","",""
"","","","","","html-keyboard-response","201","1301250","0.0-21.0-2.29","306d960c-8919-4e56-8baa-c540b885f4f0","null","<p style=""text-align: center;"">+</p>","null","fixation","","","","","","","","","","","","","","","","","","","","","","",""
"","","","","","html-slider-response","202","1302259","0.0-21.0-0.30","306d960c-8919-4e56-8baa-c540b885f4f0","1000","
                  <p style=""text-align: center;"">₪64
                                                <br>50%</p>
                  <p id=""wtp"" style=""text-align:center; margin-top: 0px; margin-bottom: 0px; font-size: 40px"";>&ensp;</p>","-","viewing","0","25","1B,3B,4A","","","","","","","","","","","","","","","","","","","",""
"","","","","","html-slider-response","203","1304913","0.0-21.0-1.30","306d960c-8919-4e56-8baa-c540b885f4f0","2654","
                  <p style=""text-align: center;"">₪64
                                                <br>50%</p>
                  <p id=""wtp"" style=""text-align:center; margin-top: 0px; margin-bottom: 0px; font-size: 40px"";>מוכנים לשלם: <span id=""c_p_y""></span></p>","27","evaluation","57","25","1B,3B,4A","50","64","27","","","","","","","","","","","","","","","","",""
"","","","","","html-keyboard-response","204","1306039","0.0-21.0-2.30","306d960c-8919-4e56-8baa-c540b885f4f0","null","<p style=""text-align: center;"">+</p>","null","fixation","","","","","","","","","","","","","","","","","","","","","","",""
"","","","","","html-keyboard-response","205","1307047","0.0-22.0","306d960c-8919-4e56-8baa-c540b885f4f0","null","<p style=""text-align: center;"">+</p>","null","fixation","","","","","","","","","","","","","","","","","","","","","","",""
"","","","","","html-keyboard-response","206","1307969","0.0-23.0","306d960c-8919-4e56-8baa-c540b885f4f0","null","<p>הפסקה.
          <br>לחצו כדי להמשיך.</p>","1","scan_wait","","","","","","","","","","","","","","","","","","","","","","",""
"","","","","","html-keyboard-response","207","1308982","0.0-24.0","306d960c-8919-4e56-8baa-c540b885f4f0","null","<p style=""text-align: center;"">+</p>","null","fixation","","","","","","","","","","","","","","","","","","","","","","",""
"","","","","","html-slider-response","208","1309997","0.0-25.0-0.0","306d960c-8919-4e56-8baa-c540b885f4f0","1000","
                  <p style=""text-align: center;"">₪58
                                                <br>40%</p>
                  <p id=""wtp"" style=""text-align:center; margin-top: 0px; margin-bottom: 0px; font-size: 40px"";>&ensp;</p>","-","viewing","0","20","10C,13A,19C,21B","","","","","","","","","","","","","","","","","","","",""
"","","","","","html-slider-response","209","1311361","0.0-25.0-1.0","306d960c-8919-4e56-8baa-c540b885f4f0","1363","
                  <p style=""text-align: center;"">₪58
                                                <br>40%</p>
                  <p id=""wtp"" style=""text-align:center; margin-top: 0px; margin-bottom: 0px; font-size: 40px"";>מוכנים לשלם: <span id=""c_p_y""></span></p>","28","evaluation","49","20","10C,13A,19C,21B","40","58","28","","","","","","","","","","","","","","","","",""
"","","","","","html-keyboard-response","210","1311932","0.0-25.0-2.0","306d960c-8919-4e56-8baa-c540b885f4f0","null","<p style=""text-align: center;"">+</p>","null","fixation","","","","","","","","","","","","","","","","","","","","","","",""
"","","","","","html-slider-response","211","1312933","0.0-25.0-0.1","306d960c-8919-4e56-8baa-c540b885f4f0","1000","
                  <p style=""text-align: center;"">₪79
                                                <br>40%</p>
                  <p id=""wtp"" style=""text-align:center; margin-top: 0px; margin-bottom: 0px; font-size: 40px"";>&ensp;</p>","-","viewing","0","30","9B","","","","","","","","","","","","","","","","","","","",""
"","","","","","html-slider-response","212","1313617","0.0-25.0-1.1","306d960c-8919-4e56-8baa-c540b885f4f0","683","
                  <p style=""text-align: center;"">₪79
                                                <br>40%</p>
                  <p id=""wtp"" style=""text-align:center; margin-top: 0px; margin-bottom: 0px; font-size: 40px"";>מוכנים לשלם: <span id=""c_p_y""></span></p>","20","evaluation","26","30","9B","40","79","20","","","","","","","","","","","","","","","","",""
"","","","","","html-keyboard-response","213","1314920","0.0-25.0-2.1","306d960c-8919-4e56-8baa-c540b885f4f0","null","<p style=""text-align: center;"">+</p>","null","fixation","","","","","","","","","","","","","","","","","","","","","","",""
"","","","","","html-slider-response","214","1315924","0.0-25.0-0.2","306d960c-8919-4e56-8baa-c540b885f4f0","1000","
                  <p style=""text-align: center;"">₪61
                                                <br>45%</p>
                  <p id=""wtp"" style=""text-align:center; margin-top: 0px; margin-bottom: 0px; font-size: 40px"";>&ensp;</p>","-","viewing","0","22","10A,11A","","","","","","","","","","","","","","","","","","","",""
"","","","","","html-slider-response","215","1317609","0.0-25.0-1.2","306d960c-8919-4e56-8baa-c540b885f4f0","1685","
                  <p style=""text-align: center;"">₪61
                                                <br>45%</p>
                  <p id=""wtp"" style=""text-align:center; margin-top: 0px; margin-bottom: 0px; font-size: 40px"";>מוכנים לשלם: <span id=""c_p_y""></span></p>","14","evaluation","53","22","10A,11A","45","61","14","","","","","","","","","","","","","","","","",""
"","","","","","html-keyboard-response","216","1318928","0.0-25.0-2.2","306d960c-8919-4e56-8baa-c540b885f4f0","null","<p style=""text-align: center;"">+</p>","null","fixation","","","","","","","","","","","","","","","","","","","","","","",""
"","","","","","html-slider-response","217","1319944","0.0-25.0-0.3","306d960c-8919-4e56-8baa-c540b885f4f0","1000","
                  <p style=""text-align: center;"">₪79
                                                <br>65%</p>
                  <p id=""wtp"" style=""text-align:center; margin-top: 0px; margin-bottom: 0px; font-size: 40px"";>&ensp;</p>","-","viewing","0","31","8A","","","","","","","","","","","","","","","","","","","",""
"","","","","","html-slider-response","218","1321761","0.0-25.0-1.3","306d960c-8919-4e56-8baa-c540b885f4f0","1816","
                  <p style=""text-align: center;"">₪79
                                                <br>65%</p>
                  <p id=""wtp"" style=""text-align:center; margin-top: 0px; margin-bottom: 0px; font-size: 40px"";>מוכנים לשלם: <span id=""c_p_y""></span></p>","45","evaluation","6","31","8A","65","79","45","","","","","","","","","","","","","","","","",""
"","","","","","html-keyboard-response","219","1322498","0.0-25.0-2.3","306d960c-8919-4e56-8baa-c540b885f4f0","null","<p style=""text-align: center;"">+</p>","null","fixation","","","","","","","","","","","","","","","","","","","","","","",""
"","","","","","html-slider-response","220","1323501","0.0-25.0-0.4","306d960c-8919-4e56-8baa-c540b885f4f0","1000","
                  <p style=""text-align: center;"">₪18
                                                <br>50%</p>
                  <p id=""wtp"" style=""text-align:center; margin-top: 0px; margin-bottom: 0px; font-size: 40px"";>&ensp;</p>","-","viewing","0","10","2C,16C,22B,28A","","","","","","","","","","","","","","","","","","","",""
"","","","","","html-slider-response","221","1324865","0.0-25.0-1.4","306d960c-8919-4e56-8baa-c540b885f4f0","1363","
                  <p style=""text-align: center;"">₪18
                                                <br>50%</p>
                  <p id=""wtp"" style=""text-align:center; margin-top: 0px; margin-bottom: 0px; font-size: 40px"";>מוכנים לשלם: <span id=""c_p_y""></span></p>","12","evaluation","65","10","2C,16C,22B,28A","50","18","12","","","","","","","","","","","","","","","","",""
"","","","","","html-keyboard-response","222","1325711","0.0-25.0-2.4","306d960c-8919-4e56-8baa-c540b885f4f0","null","<p style=""text-align: center;"">+</p>","null","fixation","","","","","","","","","","","","","","","","","","","","","","",""
"","","","","","html-slider-response","223","1326717","0.0-25.0-0.5","306d960c-8919-4e56-8baa-c540b885f4f0","1000","
                  <p style=""text-align: center;"">₪58
                                                <br>30%</p>
                  <p id=""wtp"" style=""text-align:center; margin-top: 0px; margin-bottom: 0px; font-size: 40px"";>&ensp;</p>","-","viewing","0","19","13C,30A","","","","","","","","","","","","","","","","","","","",""
"","","","","","html-slider-response","224","1328073","0.0-25.0-1.5","306d960c-8919-4e56-8baa-c540b885f4f0","1355","
                  <p style=""text-align: center;"">₪58
                                                <br>30%</p>
                  <p id=""wtp"" style=""text-align:center; margin-top: 0px; margin-bottom: 0px; font-size: 40px"";>מוכנים לשלם: <span id=""c_p_y""></span></p>","16","evaluation","33","19","13C,30A","30","58","16","","","","","","","","","","","","","","","","",""
"","","","","","html-keyboard-response","225","1328805","0.0-25.0-2.5","306d960c-8919-4e56-8baa-c540b885f4f0","null","<p style=""text-align: center;"">+</p>","null","fixation","","","","","","","","","","","","","","","","","","","","","","",""
"","","","","","html-slider-response","226","1329820","0.0-25.0-0.6","306d960c-8919-4e56-8baa-c540b885f4f0","1000","
                  <p style=""text-align: center;"">₪76
                                                <br>65%</p>
                  <p id=""wtp"" style=""text-align:center; margin-top: 0px; margin-bottom: 0px; font-size: 40px"";>&ensp;</p>","-","viewing","0","29","8C,19A,24B","","","","","","","","","","","","","","","","","","","",""
"","","","","","html-slider-response","227","1331169","0.0-25.0-1.6","306d960c-8919-4e56-8baa-c540b885f4f0","1348","
                  <p style=""text-align: center;"">₪76
                                                <br>65%</p>
                  <p id=""wtp"" style=""text-align:center; margin-top: 0px; margin-bottom: 0px; font-size: 40px"";>מוכנים לשלם: <span id=""c_p_y""></span></p>","48","evaluation","6","29","8C,19A,24B","65","76","48","","","","","","","","","","","","","","","","",""
"","","","","","html-keyboard-response","228","1331969","0.0-25.0-2.6","306d960c-8919-4e56-8baa-c540b885f4f0","null","<p style=""text-align: center;"">+</p>","null","fixation","","","","","","","","","","","","","","","","","","","","","","",""
"","","","","","html-slider-response","229","1332974","0.0-25.0-0.7","306d960c-8919-4e56-8baa-c540b885f4f0","1000","
                  <p style=""text-align: center;"">₪11
                                                <br>75%</p>
                  <p id=""wtp"" style=""text-align:center; margin-top: 0px; margin-bottom: 0px; font-size: 40px"";>&ensp;</p>","-","viewing","0","7","6B,18B,22C,24C,29A","","","","","","","","","","","","","","","","","","","",""
"","","","","","html-slider-response","230","1335042","0.0-25.0-1.7","306d960c-8919-4e56-8baa-c540b885f4f0","2066","
                  <p style=""text-align: center;"">₪11
                                                <br>75%</p>
                  <p id=""wtp"" style=""text-align:center; margin-top: 0px; margin-bottom: 0px; font-size: 40px"";>מוכנים לשלם: <span id=""c_p_y""></span></p>","10","evaluation","58","7","6B,18B,22C,24C,29A","75","11","10","","","","","","","","","","","","","","","","",""
"","","","","","html-keyboard-response","231","1336090","0.0-25.0-2.7","306d960c-8919-4e56-8baa-c540b885f4f0","null","<p style=""text-align: center;"">+</p>","null","fixation","","","","","","","","","","","","","","","","","","","","","","",""
"","","","","","html-slider-response","232","1337094","0.0-25.0-0.8","306d960c-8919-4e56-8baa-c540b885f4f0","1000","
                  <p style=""text-align: center;"">₪36
                                                <br>75%</p>
                  <p id=""wtp"" style=""text-align:center; margin-top: 0px; margin-bottom: 0px; font-size: 40px"";>&ensp;</p>","-","viewing","0","14","4B,5A,13B,16B","","","","","","","","","","","","","","","","","","","",""
"","","","","","html-slider-response","233","1339265","0.0-25.0-1.8","306d960c-8919-4e56-8baa-c540b885f4f0","2170","
                  <p style=""text-align: center;"">₪36
                                                <br>75%</p>
                  <p id=""wtp"" style=""text-align:center; margin-top: 0px; margin-bottom: 0px; font-size: 40px"";>מוכנים לשלם: <span id=""c_p_y""></span></p>","25","evaluation","17","14","4B,5A,13B,16B","75","36","25","","","","","","","","","","","","","","","","",""
"","","","","","html-keyboard-response","234","1340218","0.0-25.0-2.8","306d960c-8919-4e56-8baa-c540b885f4f0","null","<p style=""text-align: center;"">+</p>","null","fixation","","","","","","","","","","","","","","","","","","","","","","",""
"","","","","","html-slider-response","235","1341231","0.0-25.0-0.9","306d960c-8919-4e56-8baa-c540b885f4f0","1000","
                  <p style=""text-align: center;"">₪36
                                                <br>60%</p>
                  <p id=""wtp"" style=""text-align:center; margin-top: 0px; margin-bottom: 0px; font-size: 40px"";>&ensp;</p>","-","viewing","0","12","1C,7C,15C","","","","","","","","","","","","","","","","","","","",""
"","","","","","html-slider-response","236","1343137","0.0-25.0-1.9","306d960c-8919-4e56-8baa-c540b885f4f0","1905","
                  <p style=""text-align: center;"">₪36
                                                <br>60%</p>
                  <p id=""wtp"" style=""text-align:center; margin-top: 0px; margin-bottom: 0px; font-size: 40px"";>מוכנים לשלם: <span id=""c_p_y""></span></p>","20","evaluation","39","12","1C,7C,15C","60","36","20","","","","","","","","","","","","","","","","",""
"","","","","","html-keyboard-response","237","1344493","0.0-25.0-2.9","306d960c-8919-4e56-8baa-c540b885f4f0","null","<p style=""text-align: center;"">+</p>","null","fixation","","","","","","","","","","","","","","","","","","","","","","",""
"","","","","","html-slider-response","238","1345502","0.0-25.0-0.10","306d960c-8919-4e56-8baa-c540b885f4f0","1000","
                  <p style=""text-align: center;"">₪58
                                                <br>45%</p>
                  <p id=""wtp"" style=""text-align:center; margin-top: 0px; margin-bottom: 0px; font-size: 40px"";>&ensp;</p>","-","viewing","0","21","11C,18C,25A","","","","","","","","","","","","","","","","","","","",""
"","","","","","html-slider-response","239","1347392","0.0-25.0-1.10","306d960c-8919-4e56-8baa-c540b885f4f0","1890","
                  <p style=""text-align: center;"">₪58
                                                <br>45%</p>
                  <p id=""wtp"" style=""text-align:center; margin-top: 0px; margin-bottom: 0px; font-size: 40px"";>מוכנים לשלם: <span id=""c_p_y""></span></p>","30","evaluation","55","21","11C,18C,25A","45","58","30","","","","","","","","","","","","","","","","",""
"","","","","","html-keyboard-response","240","1348108","0.0-25.0-2.10","306d960c-8919-4e56-8baa-c540b885f4f0","null","<p style=""text-align: center;"">+</p>","null","fixation","","","","","","","","","","","","","","","","","","","","","","",""
"","","","","","html-slider-response","241","1349123","0.0-25.0-0.11","306d960c-8919-4e56-8baa-c540b885f4f0","1000","
                  <p style=""text-align: center;"">₪16
                                                <br>20%</p>
                  <p id=""wtp"" style=""text-align:center; margin-top: 0px; margin-bottom: 0px; font-size: 40px"";>&ensp;</p>","-","viewing","0","8","14C,17A,20C,27A","","","","","","","","","","","","","","","","","","","",""
"","","","","","html-slider-response","242","1352353","0.0-25.0-1.11","306d960c-8919-4e56-8baa-c540b885f4f0","3230","
                  <p style=""text-align: center;"">₪16
                                                <br>20%</p>
                  <p id=""wtp"" style=""text-align:center; margin-top: 0px; margin-bottom: 0px; font-size: 40px"";>מוכנים לשלם: <span id=""c_p_y""></span></p>","20","evaluation","8","8","14C,17A,20C,27A","20","16","20","","","","","","","","","","","","","","","","",""
"","","","","","html-keyboard-response","243","1353485","0.0-25.0-2.11","306d960c-8919-4e56-8baa-c540b885f4f0","null","<p style=""text-align: center;"">+</p>","null","fixation","","","","","","","","","","","","","","","","","","","","","","",""
"","","","","","html-slider-response","244","1354495","0.0-25.0-0.12","306d960c-8919-4e56-8baa-c540b885f4f0","1000","
                  <p style=""text-align: center;"">₪43
                                                <br>60%</p>
                  <p id=""wtp"" style=""text-align:center; margin-top: 0px; margin-bottom: 0px; font-size: 40px"";>&ensp;</p>","-","viewing","0","17","2A,7A,9A,15B","","","","","","","","","","","","","","","","","","","",""
"","","","","","html-slider-response","245","1357193","0.0-25.0-1.12","306d960c-8919-4e56-8baa-c540b885f4f0","2697","
                  <p style=""text-align: center;"">₪43
                                                <br>60%</p>
                  <p id=""wtp"" style=""text-align:center; margin-top: 0px; margin-bottom: 0px; font-size: 40px"";>מוכנים לשלם: <span id=""c_p_y""></span></p>","39","evaluation","60","17","2A,7A,9A,15B","60","43","39","","","","","","","","","","","","","","","","",""
"","","","","","html-keyboard-response","246","1357746","0.0-25.0-2.12","306d960c-8919-4e56-8baa-c540b885f4f0","null","<p style=""text-align: center;"">+</p>","null","fixation","","","","","","","","","","","","","","","","","","","","","","",""
"","","","","","html-slider-response","247","1358761","0.0-25.0-0.13","306d960c-8919-4e56-8baa-c540b885f4f0","1000","
                  <p style=""text-align: center;"">₪43
                                                <br>75%</p>
                  <p id=""wtp"" style=""text-align:center; margin-top: 0px; margin-bottom: 0px; font-size: 40px"";>&ensp;</p>","-","viewing","0","18","11B,19B,24A,26A","","","","","","","","","","","","","","","","","","","",""
"","","","","","html-slider-response","248","1360281","0.0-25.0-1.13","306d960c-8919-4e56-8baa-c540b885f4f0","1519","
                  <p style=""text-align: center;"">₪43
                                                <br>75%</p>
