"success","timeout","failed_images","failed_audio","failed_video","trial_type","trial_index","time_elapsed","internal_node_id","subject_id","rt","stimulus","response","part","slider_start","ID","set_ID","prob","amount","last_location","actual_choice","actual_EV","binary_id","trinary_id","catch","direction","A_key","S_key","D_key","choice_prob","choice_amount","won_prize","potential_prize_amount","potential_prize_prob","total_prize","accuracy"
"true","false","[]","[]","[]","preload","0","4","0.0-0.0","3be79f94-c496-4284-a8d0-6eb3d94c4b9c","","","","","","","","","","","","","","","","","","","","","","","","","",""
"","","","","","html-keyboard-response","1","25264","0.0-1.0","3be79f94-c496-4284-a8d0-6eb3d94c4b9c","null","
          <h1>שלום וברוכים הבאים!</h1>
          <p>לפניכם ניסוי בקבלת החלטות עם שני חלקים.
          <br><br>לחצו על העכבר כדי להמשיך.</p>","0","example","","","","","","","","","","","","","","","","","","","","","",""
"","","","","","html-keyboard-response","2","29344","0.0-2.0","3be79f94-c496-4284-a8d0-6eb3d94c4b9c","null","
        <h1>חלק 1</h1>
        <p>בקרוב יוצגו בפניכם הגרלות.
        <br>עליכם לבחור את המחיר המירבי שתהיו מוכנים לשלם כדי להשתתף בהגרלה שתוצג.
        <br>יש לכם תקציב של ₪80 לכל הגרלה. 
        <br>נסו להעריך כל הגרלה בנפרד ולחשוב כמה היא שווה עבורכם, ₪80 זמינים לכל הגרלה בנפרד.
        <br><br>לחצו על העכבר כדי להמשיך.</p>","1","instructions","","","","","","","","","","","","","","","","","","","","","",""
"","","","","","html-keyboard-response","3","32616","0.0-3.0","3be79f94-c496-4284-a8d0-6eb3d94c4b9c","null","
        <p>בסוף הניסוי, המחשב יבחר את אחת ההגרלות ויקבע מחיר לכרטיס עבורה. 
        <br>במידה והמחיר שבחרתם נמוך מהמחיר שנבחר על ידי המחשב, לא תשתתפו בהגרלה ותשארו עם מלוא התקציב.
        <br>במידה והמחיר שבחרתם גבוה מהמחיר שנבחר על ידי המחשב, תשלמו את המחיר שנקבע ותשתתפו בהגרלה.
        <br><br>לחצו על העכבר כדי להמשיך.</p>","1","instructions","","","","","","","","","","","","","","","","","","","","","",""
"","","","","","html-slider-response","4","46184","0.0-4.0","3be79f94-c496-4284-a8d0-6eb3d94c4b9c","13456","
        <p style=""font-size: 42px;"">נתחיל עם דוגמא: 
        <br>ההגרלה מטה מציעה 65% סיכוי לזכות ב-₪40 
        <br>&emsp;&emsp;&emsp;&emsp;&emsp;&emsp;&emsp;&emsp;&ensp;35% סיכוי לזכות ב-₪0.
        <br><br>מה המחיר המירבי שתהיו מוכנים לשלם על כרטיס להגרלה זו בין 0 ל-₪80?
        <br>הזיזו את העכבר על פני המלבן ולחצו כדי לבצע בחירה.</p>
        
        <p style=""text-align: center;"">₪40<br>65%</p>

        <p id=""wtp"" style=""text-align:center; margin-top: 0px; margin-bottom: 0px; font-size: 40px"";>מוכנים לשלם: <span id=""c_p_y""></span></p>","30","example","79","","","","","","","","","","","","","","","","","","","","",""
"","","","","","html-keyboard-response","5","51840","0.0-5.0","3be79f94-c496-4284-a8d0-6eb3d94c4b9c","null","<p>יפה מאוד!
                <br> בחרתם שתהיו מוכנים לשלם ₪30 כדי להשתתף בהגרלה:
                <br><p style=""text-align: center;"">₪40<br>65%</p>
                <p>נשמע נכון?
                <br>נניח שהגרלה זו נבחרה בסוף הניסוי.
                <br>כעת המחשב יקבע מחיר עבורה באקראי.
                <br>לחצו על העכבר להמשך.</p>","1","example","","","","","","","","","","","","","","","","","","","","","",""
"","","","","","html-keyboard-response","6","59003","0.0-6.0","3be79f94-c496-4284-a8d0-6eb3d94c4b9c","null","<p>המחשב קבע מחיר: ₪79
                <br>ואתם בחרתם לשלם לכל היותר: ₪30
                <br><br>מכיוון שהמחיר שבחרתם נמוך מהמחיר שנקבע, לא תתשתתפו בהגרלה.
                <br>במקרה כזה, בסוף הניסוי תקבלו את כל התקציב ההתחלתי של ₪80.
                <br><br>לחצו על העכבר להמשך.</p>","1","example","","","","","","","","","","","","","","","","","","","","","",""
"","","","","","html-slider-response","7","65596","0.0-7.0","3be79f94-c496-4284-a8d0-6eb3d94c4b9c","6339","<p style=""font-size: 42px;"">הנה עוד דוגמא:
                <br>ההגרלה מטה מציעה 35% סיכוי לזכות ב-₪18 
                <br>&emsp;&emsp;&emsp;&emsp;&emsp;&emsp;&emsp;&emsp;&ensp;65% סיכוי לזכות ב-₪0.</p>
        
                <p style=""text-align: center;"">₪18<br>35%</p>
                <p id=""wtp"" style=""text-align:center; margin-top: 0px; margin-bottom: 0px; font-size: 40px"";>מוכנים לשלם: <span id=""c_p_y""></span></p>","7","example","60","","","","","","","","","","","","","","","","","","","","",""
"","","","","","html-keyboard-response","8","68372","0.0-8.0","3be79f94-c496-4284-a8d0-6eb3d94c4b9c","null","<p>הייתם מוכנים לשלם  ₪7 כדי להשתתף בהגרלה:
                <p style=""text-align: center;"">₪18<br>35%</p>
                <p>כעת נניח שהמחשב בחר את ההגרלה הזו בסוף הניסוי, וקבע עבורה מחיר.
                <br><br>לחצו על העכבר כדי להמשיך.</p>","1","instructions","","","","","","","","","","","","","","","","","","","","","",""
"","","","","","html-keyboard-response","9","74076","0.0-9.0","3be79f94-c496-4284-a8d0-6eb3d94c4b9c","null","<p>המחשב קבע מחיר להגרלה: ₪6<br>ואתם בחרתם לשלם לכל היותר: ₪7
                <br><br>כעת המחיר שנקבע נמוך מזה שבחרתם, אז תשלמו את המחיר שקבע המחשב (₪6) ותשתתפו בהגרלה.
                <br>במקרה כזה, תסיימו את הניסוי עם תקציב של ₪74 ועם סיכוי לזכות ב-₪18 נוספים מההגרלה.
                <br>כלומר, תוכלו לקבל ₪74 אם לא תזכו בהגרלה, או ₪92 אם תזכו בהגרלה.
                <br><br>לחצו על העכבר להמשך.</p>","1","example","","","","","","","","","","","","","","","","","","","","","",""
"","","","","","html-keyboard-response","10","80716","0.0-10.0","3be79f94-c496-4284-a8d0-6eb3d94c4b9c","null","<p>במהלך הניסוי, קודם תראו את ההגרלה ורק לאחר מכן תוכלו לבחור.
                <p>כמו כן, יהיו לכם מספר שניות מוגבל להגיב.
                <p>בואו ננסה זאת עם ההגרלה הקודמת.
                <br>לחצו על העכבר כדי להמשיך.</p>","1","instructions","","","","","","","","","","","","","","","","","","","","","",""
"","","","","","html-slider-response","11","81985","0.0-11.0","3be79f94-c496-4284-a8d0-6eb3d94c4b9c","1000","
                    <p style=""text-align: center;"">₪18<br>35%</p>
                    <p id=""wtp"" style=""text-align:center; margin-top: 0px; margin-bottom: 0px; font-size: 40px"";>&ensp;</p>","21","instructions","0","","","","","","","","","","","","","","","","","","","","",""
"","","","","","html-slider-response","12","86264","0.0-12.0","3be79f94-c496-4284-a8d0-6eb3d94c4b9c","null","
                    <p style=""text-align: center;"">₪18<br>35%</p>
                    <p id=""wtp"" style=""text-align:center; margin-top: 0px; margin-bottom: 0px; font-size: 40px"";>מוכנים לשלם: <span id=""c_p_y""></span></p>","null","instructions","8","","","","","","","","","","","","","","","","","","","","",""
"","","","","","html-keyboard-response","13","89019","0.0-13.0","3be79f94-c496-4284-a8d0-6eb3d94c4b9c","null","<p>לא הגבתם בזמן המוקצב לתגובה. 
                <br>נסו להגיב מהר יותר בפעם הבאה.
                <br><br>לחצו על העכבר כדי להמשיך.</p>","1","instructions","","","","","","","","","","","","","","","","","","","","","",""
"","","","","","html-slider-response","14","91804","0.0-14.0-0.0","3be79f94-c496-4284-a8d0-6eb3d94c4b9c","2528","
                    <p style=""text-align: center;"">₪40<br>65%</p>
                    <p id=""wtp"" style=""text-align:center; margin-top: 0px; margin-bottom: 0px; font-size: 40px"";>מוכנים לשלם: <span id=""c_p_y""></span></p>","33","instructions","73","","","","","","","","","","","","","","","","","","","","",""
"","","","","","html-keyboard-response","15","93732","0.0-14.0-1.0","3be79f94-c496-4284-a8d0-6eb3d94c4b9c","null","<p>יפה. הפעם בחרתם לשלם לכל היותר ₪33.
                <br><br>לחצו על העכבר כדי להמשיך.</p>","1","instructions","","","","","","","","","","","","","","","","","","","","","",""
"","","","","","html-keyboard-response","16","99227","0.0-15.0","3be79f94-c496-4284-a8d0-6eb3d94c4b9c","null","<p>כעת נתחיל את הניסוי.
                <br><br>אתם תראו הגרלות ותתבקשו לבחור כמה תהיו מוכנים לשלם כדי להשתתף בהן.
                <br>יש לכם תקציב של ₪80 עבור כל הגרלה.
                <br>בסוף הניסוי הגרלה אחת תבחר באקראי ותשוחק.
                <br><br>לחצו על העכבר כדי להתחיל את הניסוי.</p>","1","instructions","","","","","","","","","","","","","","","","","","","","","",""
"","","","","","html-keyboard-response","17","100487","0.0-16.0","3be79f94-c496-4284-a8d0-6eb3d94c4b9c","null","<p style=""text-align: center;"">+</p>","null","fixation","","","","","","","","","","","","","","","","","","","","","",""
"","","","","","html-slider-response","18","101499","0.0-17.0-0.0","3be79f94-c496-4284-a8d0-6eb3d94c4b9c","1000","
                  <p style=""text-align: center;"">₪64
                                                <br>50%</p>
                  <p id=""wtp"" style=""text-align:center; margin-top: 0px; margin-bottom: 0px; font-size: 40px"";>&ensp;</p>","-","viewing","0","25","1B,3B,4A","","","","","","","","","","","","","","","","","","",""
"","","","","","html-slider-response","19","105506","0.0-17.0-1.0","3be79f94-c496-4284-a8d0-6eb3d94c4b9c","null","
                  <p style=""text-align: center;"">₪64
                                                <br>50%</p>
                  <p id=""wtp"" style=""text-align:center; margin-top: 0px; margin-bottom: 0px; font-size: 40px"";>מוכנים לשלם: <span id=""c_p_y""></span></p>","null","evaluation","61","25","1B,3B,4A","50","64","57","","","","","","","","","","","","","","","",""
"","","","","","html-keyboard-response","20","106578","0.0-17.0-2.0","3be79f94-c496-4284-a8d0-6eb3d94c4b9c","null","<p style=""text-align: center;"">+</p>","null","fixation","","","","","","","","","","","","","","","","","","","","","",""
"","","","","","html-slider-response","21","107582","0.0-17.0-0.1","3be79f94-c496-4284-a8d0-6eb3d94c4b9c","1000","
                  <p style=""text-align: center;"">₪71
                                                <br>75%</p>
                  <p id=""wtp"" style=""text-align:center; margin-top: 0px; margin-bottom: 0px; font-size: 40px"";>&ensp;</p>","-","viewing","0","28","8B","","","","","","","","","","","","","","","","","","",""
"","","","","","html-slider-response","22","111540","0.0-17.0-1.1","3be79f94-c496-4284-a8d0-6eb3d94c4b9c","3955","
                  <p style=""text-align: center;"">₪71
                                                <br>75%</p>
                  <p id=""wtp"" style=""text-align:center; margin-top: 0px; margin-bottom: 0px; font-size: 40px"";>מוכנים לשלם: <span id=""c_p_y""></span></p>","68","evaluation","5","28","8B","75","71","67","","","","","","","","","","","","","","","",""
"","","","","","html-keyboard-response","23","112453","0.0-17.0-2.1","3be79f94-c496-4284-a8d0-6eb3d94c4b9c","null","<p style=""text-align: center;"">+</p>","null","fixation","","","","","","","","","","","","","","","","","","","","","",""
"","","","","","html-slider-response","24","113463","0.0-17.0-0.2","3be79f94-c496-4284-a8d0-6eb3d94c4b9c","1000","
                  <p style=""text-align: center;"">₪36
                                                <br>70%</p>
                  <p id=""wtp"" style=""text-align:center; margin-top: 0px; margin-bottom: 0px; font-size: 40px"";>&ensp;</p>","-","viewing","0","13","3A,5C,10B","","","","","","","","","","","","","","","","","","",""
"","","","","","html-slider-response","25","116620","0.0-17.0-1.2","3be79f94-c496-4284-a8d0-6eb3d94c4b9c","3155","
                  <p style=""text-align: center;"">₪36
                                                <br>70%</p>
                  <p id=""wtp"" style=""text-align:center; margin-top: 0px; margin-bottom: 0px; font-size: 40px"";>מוכנים לשלם: <span id=""c_p_y""></span></p>","33","evaluation","32","13","3A,5C,10B","70","36","33","","","","","","","","","","","","","","","",""
"","","","","","html-keyboard-response","26","117513","0.0-17.0-2.2","3be79f94-c496-4284-a8d0-6eb3d94c4b9c","null","<p style=""text-align: center;"">+</p>","null","fixation","","","","","","","","","","","","","","","","","","","","","",""
"","","","","","html-slider-response","27","118521","0.0-17.0-0.3","3be79f94-c496-4284-a8d0-6eb3d94c4b9c","1000","
                  <p style=""text-align: center;"">₪4
                                                <br>25%</p>
                  <p id=""wtp"" style=""text-align:center; margin-top: 0px; margin-bottom: 0px; font-size: 40px"";>&ensp;</p>","-","viewing","0","1","6C,29B,30C","","","","","","","","","","","","","","","","","","",""
"","","","","","html-slider-response","28","122424","0.0-17.0-1.3","3be79f94-c496-4284-a8d0-6eb3d94c4b9c","3890","
                  <p style=""text-align: center;"">₪4
                                                <br>25%</p>
                  <p id=""wtp"" style=""text-align:center; margin-top: 0px; margin-bottom: 0px; font-size: 40px"";>מוכנים לשלם: <span id=""c_p_y""></span></p>","2","evaluation","43","1","6C,29B,30C","25","4","2","","","","","","","","","","","","","","","",""
"","","","","","html-keyboard-response","29","123839","0.0-17.0-2.3","3be79f94-c496-4284-a8d0-6eb3d94c4b9c","null","<p style=""text-align: center;"">+</p>","null","fixation","","","","","","","","","","","","","","","","","","","","","",""
"","","","","","html-slider-response","30","124846","0.0-17.0-0.4","3be79f94-c496-4284-a8d0-6eb3d94c4b9c","1000","
                  <p style=""text-align: center;"">₪43
                                                <br>60%</p>
                  <p id=""wtp"" style=""text-align:center; margin-top: 0px; margin-bottom: 0px; font-size: 40px"";>&ensp;</p>","-","viewing","0","17","2A,7A,9A,15B","","","","","","","","","","","","","","","","","","",""
"","","","","","html-slider-response","31","127560","0.0-17.0-1.4","3be79f94-c496-4284-a8d0-6eb3d94c4b9c","2713","
                  <p style=""text-align: center;"">₪43
                                                <br>60%</p>
                  <p id=""wtp"" style=""text-align:center; margin-top: 0px; margin-bottom: 0px; font-size: 40px"";>מוכנים לשלם: <span id=""c_p_y""></span></p>","33","evaluation","21","17","2A,7A,9A,15B","60","43","33","","","","","","","","","","","","","","","",""
"","","","","","html-keyboard-response","32","128631","0.0-17.0-2.4","3be79f94-c496-4284-a8d0-6eb3d94c4b9c","null","<p style=""text-align: center;"">+</p>","null","fixation","","","","","","","","","","","","","","","","","","","","","",""
"","","","","","html-slider-response","33","129633","0.0-17.0-0.5","3be79f94-c496-4284-a8d0-6eb3d94c4b9c","1000","
                  <p style=""text-align: center;"">₪71
                                                <br>45%</p>
                  <p id=""wtp"" style=""text-align:center; margin-top: 0px; margin-bottom: 0px; font-size: 40px"";>&ensp;</p>","-","viewing","0","26","2B,16A","","","","","","","","","","","","","","","","","","",""
"","","","","","html-slider-response","34","133649","0.0-17.0-1.5","3be79f94-c496-4284-a8d0-6eb3d94c4b9c","null","
                  <p style=""text-align: center;"">₪71
                                                <br>45%</p>
                  <p id=""wtp"" style=""text-align:center; margin-top: 0px; margin-bottom: 0px; font-size: 40px"";>מוכנים לשלם: <span id=""c_p_y""></span></p>","null","evaluation","33","26","2B,16A","45","71","34","","","","","","","","","","","","","","","",""
"","","","","","html-keyboard-response","35","134302","0.0-17.0-2.5","3be79f94-c496-4284-a8d0-6eb3d94c4b9c","null","<p style=""text-align: center;"">+</p>","null","fixation","","","","","","","","","","","","","","","","","","","","","",""
"","","","","","html-slider-response","36","135313","0.0-17.0-0.6","3be79f94-c496-4284-a8d0-6eb3d94c4b9c","1000","
                  <p style=""text-align: center;"">₪58
                                                <br>45%</p>
                  <p id=""wtp"" style=""text-align:center; margin-top: 0px; margin-bottom: 0px; font-size: 40px"";>&ensp;</p>","-","viewing","0","21","11C,18C,25A","","","","","","","","","","","","","","","","","","",""
"","","","","","html-slider-response","37","137473","0.0-17.0-1.6","3be79f94-c496-4284-a8d0-6eb3d94c4b9c","2158","
                  <p style=""text-align: center;"">₪58
                                                <br>45%</p>
                  <p id=""wtp"" style=""text-align:center; margin-top: 0px; margin-bottom: 0px; font-size: 40px"";>מוכנים לשלם: <span id=""c_p_y""></span></p>","32","evaluation","34","21","11C,18C,25A","45","58","32","","","","","","","","","","","","","","","",""
"","","","","","html-keyboard-response","38","138398","0.0-17.0-2.6","3be79f94-c496-4284-a8d0-6eb3d94c4b9c","null","<p style=""text-align: center;"">+</p>","null","fixation","","","","","","","","","","","","","","","","","","","","","",""
"","","","","","html-slider-response","39","139402","0.0-17.0-0.7","3be79f94-c496-4284-a8d0-6eb3d94c4b9c","1000","
                  <p style=""text-align: center;"">₪18
                                                <br>25%</p>
                  <p id=""wtp"" style=""text-align:center; margin-top: 0px; margin-bottom: 0px; font-size: 40px"";>&ensp;</p>","-","viewing","0","9","14A,23A","","","","","","","","","","","","","","","","","","",""
"","","","","","html-slider-response","40","140720","0.0-17.0-1.7","3be79f94-c496-4284-a8d0-6eb3d94c4b9c","1317","
                  <p style=""text-align: center;"">₪18
                                                <br>25%</p>
                  <p id=""wtp"" style=""text-align:center; margin-top: 0px; margin-bottom: 0px; font-size: 40px"";>מוכנים לשלם: <span id=""c_p_y""></span></p>","10","evaluation","10","9","14A,23A","25","18","10","","","","","","","","","","","","","","","",""
"","","","","","html-keyboard-response","41","141476","0.0-17.0-2.7","3be79f94-c496-4284-a8d0-6eb3d94c4b9c","null","<p style=""text-align: center;"">+</p>","null","fixation","","","","","","","","","","","","","","","","","","","","","",""
"","","","","","html-slider-response","42","142483","0.0-17.0-0.8","3be79f94-c496-4284-a8d0-6eb3d94c4b9c","1000","
                  <p style=""text-align: center;"">₪11
                                                <br>45%</p>
                  <p id=""wtp"" style=""text-align:center; margin-top: 0px; margin-bottom: 0px; font-size: 40px"";>&ensp;</p>","-","viewing","0","6","14B,21C,25C","","","","","","","","","","","","","","","","","","",""
"","","","","","html-slider-response","43","144872","0.0-17.0-1.8","3be79f94-c496-4284-a8d0-6eb3d94c4b9c","2388","
                  <p style=""text-align: center;"">₪11
                                                <br>45%</p>
                  <p id=""wtp"" style=""text-align:center; margin-top: 0px; margin-bottom: 0px; font-size: 40px"";>מוכנים לשלם: <span id=""c_p_y""></span></p>","7","evaluation","58","6","14B,21C,25C","45","11","7","","","","","","","","","","","","","","","",""
"","","","","","html-keyboard-response","44","145925","0.0-17.0-2.8","3be79f94-c496-4284-a8d0-6eb3d94c4b9c","null","<p style=""text-align: center;"">+</p>","null","fixation","","","","","","","","","","","","","","","","","","","","","",""
"","","","","","html-slider-response","45","146927","0.0-17.0-0.9","3be79f94-c496-4284-a8d0-6eb3d94c4b9c","1000","
                  <p style=""text-align: center;"">₪79
                                                <br>40%</p>
                  <p id=""wtp"" style=""text-align:center; margin-top: 0px; margin-bottom: 0px; font-size: 40px"";>&ensp;</p>","-","viewing","0","30","9B","","","","","","","","","","","","","","","","","","",""
"","","","","","html-slider-response","46","149953","0.0-17.0-1.9","3be79f94-c496-4284-a8d0-6eb3d94c4b9c","3024","
                  <p style=""text-align: center;"">₪79
                                                <br>40%</p>
                  <p id=""wtp"" style=""text-align:center; margin-top: 0px; margin-bottom: 0px; font-size: 40px"";>מוכנים לשלם: <span id=""c_p_y""></span></p>","37","evaluation","13","30","9B","40","79","37","","","","","","","","","","","","","","","",""
"","","","","","html-keyboard-response","47","150723","0.0-17.0-2.9","3be79f94-c496-4284-a8d0-6eb3d94c4b9c","null","<p style=""text-align: center;"">+</p>","null","fixation","","","","","","","","","","","","","","","","","","","","","",""
"","","","","","html-slider-response","48","151729","0.0-17.0-0.10","3be79f94-c496-4284-a8d0-6eb3d94c4b9c","1000","
                  <p style=""text-align: center;"">₪18
                                                <br>50%</p>
                  <p id=""wtp"" style=""text-align:center; margin-top: 0px; margin-bottom: 0px; font-size: 40px"";>&ensp;</p>","-","viewing","0","10","2C,16C,22B,28A","","","","","","","","","","","","","","","","","","",""
"","","","","","html-slider-response","49","155056","0.0-17.0-1.10","3be79f94-c496-4284-a8d0-6eb3d94c4b9c","3326","
                  <p style=""text-align: center;"">₪18
                                                <br>50%</p>
                  <p id=""wtp"" style=""text-align:center; margin-top: 0px; margin-bottom: 0px; font-size: 40px"";>מוכנים לשלם: <span id=""c_p_y""></span></p>","13","evaluation","18","10","2C,16C,22B,28A","50","18","13","","","","","","","","","","","","","","","",""
"","","","","","html-keyboard-response","50","155863","0.0-17.0-2.10","3be79f94-c496-4284-a8d0-6eb3d94c4b9c","null","<p style=""text-align: center;"">+</p>","null","fixation","","","","","","","","","","","","","","","","","","","","","",""
"","","","","","html-slider-response","51","156868","0.0-17.0-0.11","3be79f94-c496-4284-a8d0-6eb3d94c4b9c","1000","
                  <p style=""text-align: center;"">₪11
                                                <br>25%</p>
                  <p id=""wtp"" style=""text-align:center; margin-top: 0px; margin-bottom: 0px; font-size: 40px"";>&ensp;</p>","-","viewing","0","5","12A,27B,28B,30B","","","","","","","","","","","","","","","","","","",""
"","","","","","html-slider-response","52","158873","0.0-17.0-1.11","3be79f94-c496-4284-a8d0-6eb3d94c4b9c","2003","
                  <p style=""text-align: center;"">₪11
                                                <br>25%</p>
                  <p id=""wtp"" style=""text-align:center; margin-top: 0px; margin-bottom: 0px; font-size: 40px"";>מוכנים לשלם: <span id=""c_p_y""></span></p>","6","evaluation","53","5","12A,27B,28B,30B","25","11","6","","","","","","","","","","","","","","","",""
"","","","","","html-keyboard-response","53","159975","0.0-17.0-2.11","3be79f94-c496-4284-a8d0-6eb3d94c4b9c","null","<p style=""text-align: center;"">+</p>","null","fixation","","","","","","","","","","","","","","","","","","","","","",""
"","","","","","html-slider-response","54","160991","0.0-17.0-0.12","3be79f94-c496-4284-a8d0-6eb3d94c4b9c","1000","
                  <p style=""text-align: center;"">₪58
                                                <br>30%</p>
                  <p id=""wtp"" style=""text-align:center; margin-top: 0px; margin-bottom: 0px; font-size: 40px"";>&ensp;</p>","-","viewing","0","19","13C,30A","","","","","","","","","","","","","","","","","","",""
"","","","","","html-slider-response","55","164760","0.0-17.0-1.12","3be79f94-c496-4284-a8d0-6eb3d94c4b9c","3767","
                  <p style=""text-align: center;"">₪58
                                                <br>30%</p>
                  <p id=""wtp"" style=""text-align:center; margin-top: 0px; margin-bottom: 0px; font-size: 40px"";>מוכנים לשלם: <span id=""c_p_y""></span></p>","14","evaluation","64","19","13C,30A","30","58","14","","","","","","","","","","","","","","","",""
"","","","","","html-keyboard-response","56","165375","0.0-17.0-2.12","3be79f94-c496-4284-a8d0-6eb3d94c4b9c","null","<p style=""text-align: center;"">+</p>","null","fixation","","","","","","","","","","","","","","","","","","","","","",""
"","","","","","html-slider-response","57","166389","0.0-17.0-0.13","3be79f94-c496-4284-a8d0-6eb3d94c4b9c","1000","
                  <p style=""text-align: center;"">₪4
                                                <br>75%</p>
                  <p id=""wtp"" style=""text-align:center; margin-top: 0px; margin-bottom: 0px; font-size: 40px"";>&ensp;</p>","-","viewing","0","3","12B,20B,23B,27C,29C","","","","","","","","","","","","","","","","","","",""
"","","","","","html-slider-response","58","170297","0.0-17.0-1.13","3be79f94-c496-4284-a8d0-6eb3d94c4b9c","3907","
                  <p style=""text-align: center;"">₪4
                                                <br>75%</p>
                  <p id=""wtp"" style=""text-align:center; margin-top: 0px; margin-bottom: 0px; font-size: 40px"";>מוכנים לשלם: <span id=""c_p_y""></span></p>","4","evaluation","7","3","12B,20B,23B,27C,29C","75","4","4","","","","","","","","","","","","","","","",""
"","","","","","html-keyboard-response","59","171071","0.0-17.0-2.13","3be79f94-c496-4284-a8d0-6eb3d94c4b9c","null","<p style=""text-align: center;"">+</p>","null","fixation","","","","","","","","","","","","","","","","","","","","","",""
"","","","","","html-slider-response","60","172074","0.0-17.0-0.14","3be79f94-c496-4284-a8d0-6eb3d94c4b9c","1000","
                  <p style=""text-align: center;"">₪11
                                                <br>20%</p>
                  <p id=""wtp"" style=""text-align:center; margin-top: 0px; margin-bottom: 0px; font-size: 40px"";>&ensp;</p>","-","viewing","0","4","12C,17C,23C,28C","","","","","","","","","","","","","","","","","","",""
"","","","","","html-slider-response","61","176087","0.0-17.0-1.14","3be79f94-c496-4284-a8d0-6eb3d94c4b9c","null","
                  <p style=""text-align: center;"">₪11
                                                <br>20%</p>
                  <p id=""wtp"" style=""text-align:center; margin-top: 0px; margin-bottom: 0px; font-size: 40px"";>מוכנים לשלם: <span id=""c_p_y""></span></p>","null","evaluation","77","4","12C,17C,23C,28C","20","11","7","","","","","","","","","","","","","","","",""
"","","","","","html-keyboard-response","62","176915","0.0-17.0-2.14","3be79f94-c496-4284-a8d0-6eb3d94c4b9c","null","<p style=""text-align: center;"">+</p>","null","fixation","","","","","","","","","","","","","","","","","","","","","",""
"","","","","","html-slider-response","63","177932","0.0-17.0-0.15","3be79f94-c496-4284-a8d0-6eb3d94c4b9c","1000","
                  <p style=""text-align: center;"">₪36
                                                <br>60%</p>
                  <p id=""wtp"" style=""text-align:center; margin-top: 0px; margin-bottom: 0px; font-size: 40px"";>&ensp;</p>","-","viewing","0","12","1C,7C,15C","","","","","","","","","","","","","","","","","","",""
"","","","","","html-slider-response","64","181833","0.0-17.0-1.15","3be79f94-c496-4284-a8d0-6eb3d94c4b9c","3900","
                  <p style=""text-align: center;"">₪36
                                                <br>60%</p>
                  <p id=""wtp"" style=""text-align:center; margin-top: 0px; margin-bottom: 0px; font-size: 40px"";>מוכנים לשלם: <span id=""c_p_y""></span></p>","21","evaluation","8","12","1C,7C,15C","60","36","21","","","","","","","","","","","","","","","",""
"","","","","","html-keyboard-response","65","183289","0.0-17.0-2.15","3be79f94-c496-4284-a8d0-6eb3d94c4b9c","null","<p style=""text-align: center;"">+</p>","null","fixation","","","","","","","","","","","","","","","","","","","","","",""
"","","","","","html-slider-response","66","184302","0.0-17.0-0.16","3be79f94-c496-4284-a8d0-6eb3d94c4b9c","1000","
                  <p style=""text-align: center;"">₪39
                                                <br>65%</p>
                  <p id=""wtp"" style=""text-align:center; margin-top: 0px; margin-bottom: 0px; font-size: 40px"";>&ensp;</p>","-","viewing","0","16","1A,15A,26C","","","","","","","","","","","","","","","","","","",""
"","","","","","html-slider-response","67","186040","0.0-17.0-1.16","3be79f94-c496-4284-a8d0-6eb3d94c4b9c","1736","
                  <p style=""text-align: center;"">₪39
                                                <br>65%</p>
                  <p id=""wtp"" style=""text-align:center; margin-top: 0px; margin-bottom: 0px; font-size: 40px"";>מוכנים לשלם: <span id=""c_p_y""></span></p>","24","evaluation","70","16","1A,15A,26C","65","39","24","","","","","","","","","","","","","","","",""
"","","","","","html-keyboard-response","68","187534","0.0-17.0-2.16","3be79f94-c496-4284-a8d0-6eb3d94c4b9c","null","<p style=""text-align: center;"">+</p>","null","fixation","","","","","","","","","","","","","","","","","","","","","",""
"","","","","","html-slider-response","69","188551","0.0-17.0-0.17","3be79f94-c496-4284-a8d0-6eb3d94c4b9c","1000","
                  <p style=""text-align: center;"">₪36
                                                <br>75%</p>
                  <p id=""wtp"" style=""text-align:center; margin-top: 0px; margin-bottom: 0px; font-size: 40px"";>&ensp;</p>","-","viewing","0","14","4B,5A,13B,16B","","","","","","","","","","","","","","","","","","",""
"","","","","","html-slider-response","70","191224","0.0-17.0-1.17","3be79f94-c496-4284-a8d0-6eb3d94c4b9c","2672","
                  <p style=""text-align: center;"">₪36
                                                <br>75%</p>
                  <p id=""wtp"" style=""text-align:center; margin-top: 0px; margin-bottom: 0px; font-size: 40px"";>מוכנים לשלם: <span id=""c_p_y""></span></p>","25","evaluation","17","14","4B,5A,13B,16B","75","36","25","","","","","","","","","","","","","","","",""
"","","","","","html-keyboard-response","71","192642","0.0-17.0-2.17","3be79f94-c496-4284-a8d0-6eb3d94c4b9c","null","<p style=""text-align: center;"">+</p>","null","fixation","","","","","","","","","","","","","","","","","","","","","",""
"","","","","","html-slider-response","72","193650","0.0-17.0-0.18","3be79f94-c496-4284-a8d0-6eb3d94c4b9c","1000","
                  <p style=""text-align: center;"">₪39
                                                <br>60%</p>
                  <p id=""wtp"" style=""text-align:center; margin-top: 0px; margin-bottom: 0px; font-size: 40px"";>&ensp;</p>","-","viewing","0","15","9C,25B","","","","","","","","","","","","","","","","","","",""
"","","","","","html-slider-response","73","196144","0.0-17.0-1.18","3be79f94-c496-4284-a8d0-6eb3d94c4b9c","2493","
                  <p style=""text-align: center;"">₪39
                                                <br>60%</p>
                  <p id=""wtp"" style=""text-align:center; margin-top: 0px; margin-bottom: 0px; font-size: 40px"";>מוכנים לשלם: <span id=""c_p_y""></span></p>","20","evaluation","5","15","9C,25B","60","39","20","","","","","","","","","","","","","","","",""
"","","","","","html-keyboard-response","74","197189","0.0-17.0-2.18","3be79f94-c496-4284-a8d0-6eb3d94c4b9c","null","<p style=""text-align: center;"">+</p>","null","fixation","","","","","","","","","","","","","","","","","","","","","",""
"","","","","","html-slider-response","75","198194","0.0-17.0-0.19","3be79f94-c496-4284-a8d0-6eb3d94c4b9c","1000","
                  <p style=""text-align: center;"">₪16
                                                <br>20%</p>
                  <p id=""wtp"" style=""text-align:center; margin-top: 0px; margin-bottom: 0px; font-size: 40px"";>&ensp;</p>","-","viewing","0","8","14C,17A,20C,27A","","","","","","","","","","","","","","","","","","",""
"","","","","","html-slider-response","76","200584","0.0-17.0-1.19","3be79f94-c496-4284-a8d0-6eb3d94c4b9c","2388","
                  <p style=""text-align: center;"">₪16
                                                <br>20%</p>
                  <p id=""wtp"" style=""text-align:center; margin-top: 0px; margin-bottom: 0px; font-size: 40px"";>מוכנים לשלם: <span id=""c_p_y""></span></p>","3","evaluation","46","8","14C,17A,20C,27A","20","16","3","","","","","","","","","","","","","","","",""
"","","","","","html-keyboard-response","77","201335","0.0-17.0-2.19","3be79f94-c496-4284-a8d0-6eb3d94c4b9c","null","<p style=""text-align: center;"">+</p>","null","fixation","","","","","","","","","","","","","","","","","","","","","",""
"","","","","","html-slider-response","78","202338","0.0-17.0-0.20","3be79f94-c496-4284-a8d0-6eb3d94c4b9c","1000","
                  <p style=""text-align: center;"">₪61
                                                <br>55%</p>
                  <p id=""wtp"" style=""text-align:center; margin-top: 0px; margin-bottom: 0px; font-size: 40px"";>&ensp;</p>","-","viewing","0","23","7B,26B","","","","","","","","","","","","","","","","","","",""
"","","","","","html-slider-response","79","206340","0.0-17.0-1.20","3be79f94-c496-4284-a8d0-6eb3d94c4b9c","null","
                  <p style=""text-align: center;"">₪61
                                                <br>55%</p>
                  <p id=""wtp"" style=""text-align:center; margin-top: 0px; margin-bottom: 0px; font-size: 40px"";>מוכנים לשלם: <span id=""c_p_y""></span></p>","null","evaluation","68","23","7B,26B","55","61","31","","","","","","","","","","","","","","","",""
"","","","","","html-keyboard-response","80","207638","0.0-17.0-2.20","3be79f94-c496-4284-a8d0-6eb3d94c4b9c","null","<p style=""text-align: center;"">+</p>","null","fixation","","","","","","","","","","","","","","","","","","","","","",""
"","","","","","html-slider-response","81","208649","0.0-17.0-0.21","3be79f94-c496-4284-a8d0-6eb3d94c4b9c","1000","
                  <p style=""text-align: center;"">₪58
                                                <br>40%</p>
                  <p id=""wtp"" style=""text-align:center; margin-top: 0px; margin-bottom: 0px; font-size: 40px"";>&ensp;</p>","-","viewing","0","20","10C,13A,19C,21B","","","","","","","","","","","","","","","","","","",""
"","","","","","html-slider-response","82","210632","0.0-17.0-1.21","3be79f94-c496-4284-a8d0-6eb3d94c4b9c","1982","
                  <p style=""text-align: center;"">₪58
                                                <br>40%</p>
                  <p id=""wtp"" style=""text-align:center; margin-top: 0px; margin-bottom: 0px; font-size: 40px"";>מוכנים לשלם: <span id=""c_p_y""></span></p>","5","evaluation","66","20","10C,13A,19C,21B","40","58","5","","","","","","","","","","","","","","","",""
"","","","","","html-keyboard-response","83","211720","0.0-17.0-2.21","3be79f94-c496-4284-a8d0-6eb3d94c4b9c","null","<p style=""text-align: center;"">+</p>","null","fixation","","","","","","","","","","","","","","","","","","","","","",""
"","","","","","html-slider-response","84","212734","0.0-17.0-0.22","3be79f94-c496-4284-a8d0-6eb3d94c4b9c","1000","
                  <p style=""text-align: center;"">₪76
                                                <br>65%</p>
                  <p id=""wtp"" style=""text-align:center; margin-top: 0px; margin-bottom: 0px; font-size: 40px"";>&ensp;</p>","-","viewing","0","29","8C,19A,24B","","","","","","","","","","","","","","","","","","",""
"","","","","","html-slider-response","85","214400","0.0-17.0-1.22","3be79f94-c496-4284-a8d0-6eb3d94c4b9c","1664","
                  <p style=""text-align: center;"">₪76
                                                <br>65%</p>
                  <p id=""wtp"" style=""text-align:center; margin-top: 0px; margin-bottom: 0px; font-size: 40px"";>מוכנים לשלם: <span id=""c_p_y""></span></p>","34","evaluation","6","29","8C,19A,24B","65","76","34","","","","","","","","","","","","","","","",""
"","","","","","html-keyboard-response","86","215237","0.0-17.0-2.22","3be79f94-c496-4284-a8d0-6eb3d94c4b9c","null","<p style=""text-align: center;"">+</p>","null","fixation","","","","","","","","","","","","","","","","","","","","","",""
"","","","","","html-slider-response","87","216253","0.0-17.0-0.23","3be79f94-c496-4284-a8d0-6eb3d94c4b9c","1000","
                  <p style=""text-align: center;"">₪11
                                                <br>75%</p>
                  <p id=""wtp"" style=""text-align:center; margin-top: 0px; margin-bottom: 0px; font-size: 40px"";>&ensp;</p>","-","viewing","0","7","6B,18B,22C,24C,29A","","","","","","","","","","","","","","","","","","",""
"","","","","","html-slider-response","88","219104","0.0-17.0-1.23","3be79f94-c496-4284-a8d0-6eb3d94c4b9c","2849","
                  <p style=""text-align: center;"">₪11
                                                <br>75%</p>
                  <p id=""wtp"" style=""text-align:center; margin-top: 0px; margin-bottom: 0px; font-size: 40px"";>מוכנים לשלם: <span id=""c_p_y""></span></p>","11","evaluation","14","7","6B,18B,22C,24C,29A","75","11","11","","","","","","","","","","","","","","","",""
"","","","","","html-keyboard-response","89","220345","0.0-17.0-2.23","3be79f94-c496-4284-a8d0-6eb3d94c4b9c","null","<p style=""text-align: center;"">+</p>","null","fixation","","","","","","","","","","","","","","","","","","","","","",""
"","","","","","html-slider-response","90","221349","0.0-17.0-0.24","3be79f94-c496-4284-a8d0-6eb3d94c4b9c","1000","
                  <p style=""text-align: center;"">₪79
                                                <br>65%</p>
                  <p id=""wtp"" style=""text-align:center; margin-top: 0px; margin-bottom: 0px; font-size: 40px"";>&ensp;</p>","-","viewing","0","31","8A","","","","","","","","","","","","","","","","","","",""
"","","","","","html-slider-response","91","225273","0.0-17.0-1.24","3be79f94-c496-4284-a8d0-6eb3d94c4b9c","3922","
                  <p style=""text-align: center;"">₪79
                                                <br>65%</p>
                  <p id=""wtp"" style=""text-align:center; margin-top: 0px; margin-bottom: 0px; font-size: 40px"";>מוכנים לשלם: <span id=""c_p_y""></span></p>","37","evaluation","63","31","8A","65","79","37","","","","","","","","","","","","","","","",""
"","","","","","html-keyboard-response","92","226100","0.0-17.0-2.24","3be79f94-c496-4284-a8d0-6eb3d94c4b9c","null","<p style=""text-align: center;"">+</p>","null","fixation","","","","","","","","","","","","","","","","","","","","","",""
"","","","","","html-slider-response","93","227106","0.0-17.0-0.25","3be79f94-c496-4284-a8d0-6eb3d94c4b9c","1000","
                  <p style=""text-align: center;"">₪64
                                                <br>25%</p>
                  <p id=""wtp"" style=""text-align:center; margin-top: 0px; margin-bottom: 0px; font-size: 40px"";>&ensp;</p>","-","viewing","0","24","6A,21A","","","","","","","","","","","","","","","","","","",""
"","","","","","html-slider-response","94","228152","0.0-17.0-1.25","3be79f94-c496-4284-a8d0-6eb3d94c4b9c","1044","
                  <p style=""text-align: center;"">₪64
                                                <br>25%</p>
                  <p id=""wtp"" style=""text-align:center; margin-top: 0px; margin-bottom: 0px; font-size: 40px"";>מוכנים לשלם: <span id=""c_p_y""></span></p>","14","evaluation","13","24","6A,21A","25","64","14","","","","","","","","","","","","","","","",""
"","","","","","html-keyboard-response","95","228687","0.0-17.0-2.25","3be79f94-c496-4284-a8d0-6eb3d94c4b9c","null","<p style=""text-align: center;"">+</p>","null","fixation","","","","","","","","","","","","","","","","","","","","","",""
"","","","","","html-slider-response","96","229699","0.0-17.0-0.26","3be79f94-c496-4284-a8d0-6eb3d94c4b9c","1000","
                  <p style=""text-align: center;"">₪36
                                                <br>30%</p>
                  <p id=""wtp"" style=""text-align:center; margin-top: 0px; margin-bottom: 0px; font-size: 40px"";>&ensp;</p>","-","viewing","0","11","3C,20A,22A","","","","","","","","","","","","","","","","","","",""
"","","","","","html-slider-response","97","230688","0.0-17.0-1.26","3be79f94-c496-4284-a8d0-6eb3d94c4b9c","987","
                  <p style=""text-align: center;"">₪36
                                                <br>30%</p>
                  <p id=""wtp"" style=""text-align:center; margin-top: 0px; margin-bottom: 0px; font-size: 40px"";>מוכנים לשלם: <span id=""c_p_y""></span></p>","8","evaluation","16","11","3C,20A,22A","30","36","8","","","","","","","","","","","","","","","",""
"","","","","","html-keyboard-response","98","231223","0.0-17.0-2.26","3be79f94-c496-4284-a8d0-6eb3d94c4b9c","null","<p style=""text-align: center;"">+</p>","null","fixation","","","","","","","","","","","","","","","","","","","","","",""
"","","","","","html-slider-response","99","232231","0.0-17.0-0.27","3be79f94-c496-4284-a8d0-6eb3d94c4b9c","1000","
                  <p style=""text-align: center;"">₪4
                                                <br>50%</p>
                  <p id=""wtp"" style=""text-align:center; margin-top: 0px; margin-bottom: 0px; font-size: 40px"";>&ensp;</p>","-","viewing","0","2","4C,17B","","","","","","","","","","","","","","","","","","",""
"","","","","","html-slider-response","100","234984","0.0-17.0-1.27","3be79f94-c496-4284-a8d0-6eb3d94c4b9c","2751","
                  <p style=""text-align: center;"">₪4
                                                <br>50%</p>
                  <p id=""wtp"" style=""text-align:center; margin-top: 0px; margin-bottom: 0px; font-size: 40px"";>מוכנים לשלם: <span id=""c_p_y""></span></p>","3","evaluation","32","2","4C,17B","50","4","3","","","","","","","","","","","","","","","",""
"","","","","","html-keyboard-response","101","235526","0.0-17.0-2.27","3be79f94-c496-4284-a8d0-6eb3d94c4b9c","null","<p style=""text-align: center;"">+</p>","null","fixation","","","","","","","","","","","","","","","","","","","","","",""
"","","","","","html-slider-response","102","236528","0.0-17.0-0.28","3be79f94-c496-4284-a8d0-6eb3d94c4b9c","1000","
                  <p style=""text-align: center;"">₪43
                                                <br>75%</p>
                  <p id=""wtp"" style=""text-align:center; margin-top: 0px; margin-bottom: 0px; font-size: 40px"";>&ensp;</p>","-","viewing","0","18","11B,19B,24A,26A","","","","","","","","","","","","","","","","","","",""
"","","","","","html-slider-response","103","239425","0.0-17.0-1.28","3be79f94-c496-4284-a8d0-6eb3d94c4b9c","2895","
                  <p style=""text-align: center;"">₪43
                                                <br>75%</p>
                  <p id=""wtp"" style=""text-align:center; margin-top: 0px; margin-bottom: 0px; font-size: 40px"";>מוכנים לשלם: <span id=""c_p_y""></span></p>","25","evaluation","71","18","11B,19B,24A,26A","75","43","25","","","","","","","","","","","","","","","",""
"","","","","","html-keyboard-response","104","240026","0.0-17.0-2.28","3be79f94-c496-4284-a8d0-6eb3d94c4b9c","null","<p style=""text-align: center;"">+</p>","null","fixation","","","","","","","","","","","","","","","","","","","","","",""
"","","","","","html-slider-response","105","241028","0.0-17.0-0.29","3be79f94-c496-4284-a8d0-6eb3d94c4b9c","1000","
                  <p style=""text-align: center;"">₪61
                                                <br>45%</p>
                  <p id=""wtp"" style=""text-align:center; margin-top: 0px; margin-bottom: 0px; font-size: 40px"";>&ensp;</p>","-","viewing","0","22","10A,11A","","","","","","","","","","","","","","","","","","",""
"","","","","","html-slider-response","106","245032","0.0-17.0-1.29","3be79f94-c496-4284-a8d0-6eb3d94c4b9c","null","
                  <p style=""text-align: center;"">₪61
                                                <br>45%</p>
                  <p id=""wtp"" style=""text-align:center; margin-top: 0px; margin-bottom: 0px; font-size: 40px"";>מוכנים לשלם: <span id=""c_p_y""></span></p>","null","evaluation","33","22","10A,11A","45","61","29","","","","","","","","","","","","","","","",""
"","","","","","html-keyboard-response","107","246215","0.0-17.0-2.29","3be79f94-c496-4284-a8d0-6eb3d94c4b9c","null","<p style=""text-align: center;"">+</p>","null","fixation","","","","","","","","","","","","","","","","","","","","","",""
"","","","","","html-slider-response","108","247217","0.0-17.0-0.30","3be79f94-c496-4284-a8d0-6eb3d94c4b9c","1000","
                  <p style=""text-align: center;"">₪71
                                                <br>55%</p>
                  <p id=""wtp"" style=""text-align:center; margin-top: 0px; margin-bottom: 0px; font-size: 40px"";>&ensp;</p>","-","viewing","0","27","5B,18A","","","","","","","","","","","","","","","","","","",""
"","","","","","html-slider-response","109","250056","0.0-17.0-1.30","3be79f94-c496-4284-a8d0-6eb3d94c4b9c","2838","
                  <p style=""text-align: center;"">₪71
                                                <br>55%</p>
                  <p id=""wtp"" style=""text-align:center; margin-top: 0px; margin-bottom: 0px; font-size: 40px"";>מוכנים לשלם: <span id=""c_p_y""></span></p>","42","evaluation","64","27","5B,18A","55","71","42","","","","","","","","","","","","","","","",""
"","","","","","html-keyboard-response","110","251074","0.0-17.0-2.30","3be79f94-c496-4284-a8d0-6eb3d94c4b9c","null","<p style=""text-align: center;"">+</p>","null","fixation","","","","","","","","","","","","","","","","","","","","","",""
"","","","","","html-keyboard-response","111","252083","0.0-18.0","3be79f94-c496-4284-a8d0-6eb3d94c4b9c","null","<p style=""text-align: center;"">+</p>","null","fixation","","","","","","","","","","","","","","","","","","","","","",""
"","","","","","html-keyboard-response","112","253264","0.0-19.0","3be79f94-c496-4284-a8d0-6eb3d94c4b9c","null","<p>הפסקה.
          <br>לחצו כדי להמשיך.</p>","1","scan_wait","","","","","","","","","","","","","","","","","","","","","",""
"","","","","","html-keyboard-response","113","254267","0.0-20.0","3be79f94-c496-4284-a8d0-6eb3d94c4b9c","null","<p style=""text-align: center;"">+</p>","null","fixation","","","","","","","","","","","","","","","","","","","","","",""
"","","","","","html-slider-response","114","255268","0.0-21.0-0.0","3be79f94-c496-4284-a8d0-6eb3d94c4b9c","1000","
                  <p style=""text-align: center;"">₪43
                                                <br>75%</p>
                  <p id=""wtp"" style=""text-align:center; margin-top: 0px; margin-bottom: 0px; font-size: 40px"";>&ensp;</p>","-","viewing","0","18","11B,19B,24A,26A","","","","","","","","","","","","","","","","","","",""
"","","","","","html-slider-response","115","257184","0.0-21.0-1.0","3be79f94-c496-4284-a8d0-6eb3d94c4b9c","1915","
                  <p style=""text-align: center;"">₪43
                                                <br>75%</p>
                  <p id=""wtp"" style=""text-align:center; margin-top: 0px; margin-bottom: 0px; font-size: 40px"";>מוכנים לשלם: <span id=""c_p_y""></span></p>","37","evaluation","9","18","11B,19B,24A,26A","75","43","37","","","","","","","","","","","","","","","",""
"","","","","","html-keyboard-response","116","257901","0.0-21.0-2.0","3be79f94-c496-4284-a8d0-6eb3d94c4b9c","null","<p style=""text-align: center;"">+</p>","null","fixation","","","","","","","","","","","","","","","","","","","","","",""
"","","","","","html-slider-response","117","258916","0.0-21.0-0.1","3be79f94-c496-4284-a8d0-6eb3d94c4b9c","1000","
                  <p style=""text-align: center;"">₪76
                                                <br>65%</p>
                  <p id=""wtp"" style=""text-align:center; margin-top: 0px; margin-bottom: 0px; font-size: 40px"";>&ensp;</p>","-","viewing","0","29","8C,19A,24B","","","","","","","","","","","","","","","","","","",""
"","","","","","html-slider-response","118","262544","0.0-21.0-1.1","3be79f94-c496-4284-a8d0-6eb3d94c4b9c","3627","
                  <p style=""text-align: center;"">₪76
                                                <br>65%</p>
                  <p id=""wtp"" style=""text-align:center; margin-top: 0px; margin-bottom: 0px; font-size: 40px"";>מוכנים לשלם: <span id=""c_p_y""></span></p>","45","evaluation","29","29","8C,19A,24B","65","76","45","","","","","","","","","","","","","","","",""
"","","","","","html-keyboard-response","119","263081","0.0-21.0-2.1","3be79f94-c496-4284-a8d0-6eb3d94c4b9c","null","<p style=""text-align: center;"">+</p>","null","fixation","","","","","","","","","","","","","","","","","","","","","",""
"","","","","","html-slider-response","120","264090","0.0-21.0-0.2","3be79f94-c496-4284-a8d0-6eb3d94c4b9c","1000","
                  <p style=""text-align: center;"">₪39
                                                <br>65%</p>
                  <p id=""wtp"" style=""text-align:center; margin-top: 0px; margin-bottom: 0px; font-size: 40px"";>&ensp;</p>","-","viewing","0","16","1A,15A,26C","","","","","","","","","","","","","","","","","","",""
"","","","","","html-slider-response","121","268102","0.0-21.0-1.2","3be79f94-c496-4284-a8d0-6eb3d94c4b9c","null","
                  <p style=""text-align: center;"">₪39
                                                <br>65%</p>
                  <p id=""wtp"" style=""text-align:center; margin-top: 0px; margin-bottom: 0px; font-size: 40px"";>מוכנים לשלם: <span id=""c_p_y""></span></p>","null","evaluation","67","16","1A,15A,26C","65","39","29","","","","","","","","","","","","","","","",""
"","","","","","html-keyboard-response","122","268627","0.0-21.0-2.2","3be79f94-c496-4284-a8d0-6eb3d94c4b9c","null","<p style=""text-align: center;"">+</p>","null","fixation","","","","","","","","","","","","","","","","","","","","","",""
"","","","","","html-slider-response","123","269640","0.0-21.0-0.3","3be79f94-c496-4284-a8d0-6eb3d94c4b9c","1000","
                  <p style=""text-align: center;"">₪79
                                                <br>65%</p>
                  <p id=""wtp"" style=""text-align:center; margin-top: 0px; margin-bottom: 0px; font-size: 40px"";>&ensp;</p>","-","viewing","0","31","8A","","","","","","","","","","","","","","","","","","",""
"","","","","","html-slider-response","124","273136","0.0-21.0-1.3","3be79f94-c496-4284-a8d0-6eb3d94c4b9c","3495","
                  <p style=""text-align: center;"">₪79
                                                <br>65%</p>
                  <p id=""wtp"" style=""text-align:center; margin-top: 0px; margin-bottom: 0px; font-size: 40px"";>מוכנים לשלם: <span id=""c_p_y""></span></p>","39","evaluation","2","31","8A","65","79","39","","","","","","","","","","","","","","","",""
"","","","","","html-keyboard-response","125","273665","0.0-21.0-2.3","3be79f94-c496-4284-a8d0-6eb3d94c4b9c","null","<p style=""text-align: center;"">+</p>","null","fixation","","","","","","","","","","","","","","","","","","","","","",""
"","","","","","html-slider-response","126","274682","0.0-21.0-0.4","3be79f94-c496-4284-a8d0-6eb3d94c4b9c","1000","
                  <p style=""text-align: center;"">₪64
                                                <br>50%</p>
                  <p id=""wtp"" style=""text-align:center; margin-top: 0px; margin-bottom: 0px; font-size: 40px"";>&ensp;</p>","-","viewing","0","25","1B,3B,4A","","","","","","","","","","","","","","","","","","",""
"","","","","","html-slider-response","127","277264","0.0-21.0-1.4","3be79f94-c496-4284-a8d0-6eb3d94c4b9c","2581","
                  <p style=""text-align: center;"">₪64
                                                <br>50%</p>
                  <p id=""wtp"" style=""text-align:center; margin-top: 0px; margin-bottom: 0px; font-size: 40px"";>מוכנים לשלם: <span id=""c_p_y""></span></p>","40","evaluation","36","25","1B,3B,4A","50","64","40","","","","","","","","","","","","","","","",""
"","","","","","html-keyboard-response","128","278737","0.0-21.0-2.4","3be79f94-c496-4284-a8d0-6eb3d94c4b9c","null","<p style=""text-align: center;"">+</p>","null","fixation","","","","","","","","","","","","","","","","","","","","","",""
"","","","","","html-slider-response","129","279754","0.0-21.0-0.5","3be79f94-c496-4284-a8d0-6eb3d94c4b9c","1000","
                  <p style=""text-align: center;"">₪58
                                                <br>30%</p>
                  <p id=""wtp"" style=""text-align:center; margin-top: 0px; margin-bottom: 0px; font-size: 40px"";>&ensp;</p>","-","viewing","0","19","13C,30A","","","","","","","","","","","","","","","","","","",""
"","","","","","html-slider-response","130","283756","0.0-21.0-1.5","3be79f94-c496-4284-a8d0-6eb3d94c4b9c","null","
                  <p style=""text-align: center;"">₪58
                                                <br>30%</p>
                  <p id=""wtp"" style=""text-align:center; margin-top: 0px; margin-bottom: 0px; font-size: 40px"";>מוכנים לשלם: <span id=""c_p_y""></span></p>","null","evaluation","78","19","13C,30A","30","58","25","","","","","","","","","","","","","","","",""
"","","","","","html-keyboard-response","131","284863","0.0-21.0-2.5","3be79f94-c496-4284-a8d0-6eb3d94c4b9c","null","<p style=""text-align: center;"">+</p>","null","fixation","","","","","","","","","","","","","","","","","","","","","",""
"","","","","","html-slider-response","132","285866","0.0-21.0-0.6","3be79f94-c496-4284-a8d0-6eb3d94c4b9c","1000","
                  <p style=""text-align: center;"">₪61
                                                <br>55%</p>
                  <p id=""wtp"" style=""text-align:center; margin-top: 0px; margin-bottom: 0px; font-size: 40px"";>&ensp;</p>","-","viewing","0","23","7B,26B","","","","","","","","","","","","","","","","","","",""
"","","","","","html-slider-response","133","288272","0.0-21.0-1.6","3be79f94-c496-4284-a8d0-6eb3d94c4b9c","2405","
                  <p style=""text-align: center;"">₪61
                                                <br>55%</p>
                  <p id=""wtp"" style=""text-align:center; margin-top: 0px; margin-bottom: 0px; font-size: 40px"";>מוכנים לשלם: <span id=""c_p_y""></span></p>","35","evaluation","52","23","7B,26B","55","61","35","","","","","","","","","","","","","","","",""
"","","","","","html-keyboard-response","134","289521","0.0-21.0-2.6","3be79f94-c496-4284-a8d0-6eb3d94c4b9c","null","<p style=""text-align: center;"">+</p>","null","fixation","","","","","","","","","","","","","","","","","","","","","",""
"","","","","","html-slider-response","135","290534","0.0-21.0-0.7","3be79f94-c496-4284-a8d0-6eb3d94c4b9c","1000","
                  <p style=""text-align: center;"">₪71
                                                <br>55%</p>
                  <p id=""wtp"" style=""text-align:center; margin-top: 0px; margin-bottom: 0px; font-size: 40px"";>&ensp;</p>","-","viewing","0","27","5B,18A","","","","","","","","","","","","","","","","","","",""
"","","","","","html-slider-response","136","292200","0.0-21.0-1.7","3be79f94-c496-4284-a8d0-6eb3d94c4b9c","1665","
                  <p style=""text-align: center;"">₪71
                                                <br>55%</p>
                  <p id=""wtp"" style=""text-align:center; margin-top: 0px; margin-bottom: 0px; font-size: 40px"";>מוכנים לשלם: <span id=""c_p_y""></span></p>","40","evaluation","60","27","5B,18A","55","71","40","","","","","","","","","","","","","","","",""
"","","","","","html-keyboard-response","137","293182","0.0-21.0-2.7","3be79f94-c496-4284-a8d0-6eb3d94c4b9c","null","<p style=""text-align: center;"">+</p>","null","fixation","","","","","","","","","","","","","","","","","","","","","",""
"","","","","","html-slider-response","138","294192","0.0-21.0-0.8","3be79f94-c496-4284-a8d0-6eb3d94c4b9c","1000","
                  <p style=""text-align: center;"">₪18
                                                <br>50%</p>
                  <p id=""wtp"" style=""text-align:center; margin-top: 0px; margin-bottom: 0px; font-size: 40px"";>&ensp;</p>","-","viewing","0","10","2C,16C,22B,28A","","","","","","","","","","","","","","","","","","",""
"","","","","","html-slider-response","139","297120","0.0-21.0-1.8","3be79f94-c496-4284-a8d0-6eb3d94c4b9c","2926","
                  <p style=""text-align: center;"">₪18
                                                <br>50%</p>
                  <p id=""wtp"" style=""text-align:center; margin-top: 0px; margin-bottom: 0px; font-size: 40px"";>מוכנים לשלם: <span id=""c_p_y""></span></p>","13","evaluation","77","10","2C,16C,22B,28A","50","18","13","","","","","","","","","","","","","","","",""
"","","","","","html-keyboard-response","140","298318","0.0-21.0-2.8","3be79f94-c496-4284-a8d0-6eb3d94c4b9c","null","<p style=""text-align: center;"">+</p>","null","fixation","","","","","","","","","","","","","","","","","","","","","",""
"","","","","","html-slider-response","141","299327","0.0-21.0-0.9","3be79f94-c496-4284-a8d0-6eb3d94c4b9c","1000","
                  <p style=""text-align: center;"">₪4
                                                <br>75%</p>
                  <p id=""wtp"" style=""text-align:center; margin-top: 0px; margin-bottom: 0px; font-size: 40px"";>&ensp;</p>","-","viewing","0","3","12B,20B,23B,27C,29C","","","","","","","","","","","","","","","","","","",""
"","","","","","html-slider-response","142","301384","0.0-21.0-1.9","3be79f94-c496-4284-a8d0-6eb3d94c4b9c","2055","
                  <p style=""text-align: center;"">₪4
                                                <br>75%</p>
                  <p id=""wtp"" style=""text-align:center; margin-top: 0px; margin-bottom: 0px; font-size: 40px"";>מוכנים לשלם: <span id=""c_p_y""></span></p>","3","evaluation","58","3","12B,20B,23B,27C,29C","75","4","3","","","","","","","","","","","","","","","",""
"","","","","","html-keyboard-response","143","302052","0.0-21.0-2.9","3be79f94-c496-4284-a8d0-6eb3d94c4b9c","null","<p style=""text-align: center;"">+</p>","null","fixation","","","","","","","","","","","","","","","","","","","","","",""
"","","","","","html-slider-response","144","303065","0.0-21.0-0.10","3be79f94-c496-4284-a8d0-6eb3d94c4b9c","1000","
                  <p style=""text-align: center;"">₪71
                                                <br>75%</p>
                  <p id=""wtp"" style=""text-align:center; margin-top: 0px; margin-bottom: 0px; font-size: 40px"";>&ensp;</p>","-","viewing","0","28","8B","","","","","","","","","","","","","","","","","","",""
"","","","","","html-slider-response","145","305736","0.0-21.0-1.10","3be79f94-c496-4284-a8d0-6eb3d94c4b9c","2669","
                  <p style=""text-align: center;"">₪71
                                                <br>75%</p>
                  <p id=""wtp"" style=""text-align:center; margin-top: 0px; margin-bottom: 0px; font-size: 40px"";>מוכנים לשלם: <span id=""c_p_y""></span></p>","50","evaluation","34","28","8B","75","71","50","","","","","","","","","","","","","","","",""
"","","","","","html-keyboard-response","146","306935","0.0-21.0-2.10","3be79f94-c496-4284-a8d0-6eb3d94c4b9c","null","<p style=""text-align: center;"">+</p>","null","fixation","","","","","","","","","","","","","","","","","","","","","",""
"","","","","","html-slider-response","147","307951","0.0-21.0-0.11","3be79f94-c496-4284-a8d0-6eb3d94c4b9c","1000","
                  <p style=""text-align: center;"">₪18
                                                <br>25%</p>
                  <p id=""wtp"" style=""text-align:center; margin-top: 0px; margin-bottom: 0px; font-size: 40px"";>&ensp;</p>","-","viewing","0","9","14A,23A","","","","","","","","","","","","","","","","","","",""
"","","","","","html-slider-response","148","309840","0.0-21.0-1.11","3be79f94-c496-4284-a8d0-6eb3d94c4b9c","1888","
                  <p style=""text-align: center;"">₪18
                                                <br>25%</p>
                  <p id=""wtp"" style=""text-align:center; margin-top: 0px; margin-bottom: 0px; font-size: 40px"";>מוכנים לשלם: <span id=""c_p_y""></span></p>","3","evaluation","10","9","14A,23A","25","18","3","","","","","","","","","","","","","","","",""
"","","","","","html-keyboard-response","149","311229","0.0-21.0-2.11","3be79f94-c496-4284-a8d0-6eb3d94c4b9c","null","<p style=""text-align: center;"">+</p>","null","fixation","","","","","","","","","","","","","","","","","","","","","",""
"","","","","","html-slider-response","150","312234","0.0-21.0-0.12","3be79f94-c496-4284-a8d0-6eb3d94c4b9c","1000","
                  <p style=""text-align: center;"">₪16
                                                <br>20%</p>
                  <p id=""wtp"" style=""text-align:center; margin-top: 0px; margin-bottom: 0px; font-size: 40px"";>&ensp;</p>","-","viewing","0","8","14C,17A,20C,27A","","","","","","","","","","","","","","","","","","",""
"","","","","","html-slider-response","151","314088","0.0-21.0-1.12","3be79f94-c496-4284-a8d0-6eb3d94c4b9c","1853","
                  <p style=""text-align: center;"">₪16
                                                <br>20%</p>
                  <p id=""wtp"" style=""text-align:center; margin-top: 0px; margin-bottom: 0px; font-size: 40px"";>מוכנים לשלם: <span id=""c_p_y""></span></p>","4","evaluation","2","8","14C,17A,20C,27A","20","16","4","","","","","","","","","","","","","","","",""
"","","","","","html-keyboard-response","152","315125","0.0-21.0-2.12","3be79f94-c496-4284-a8d0-6eb3d94c4b9c","null","<p style=""text-align: center;"">+</p>","null","fixation","","","","","","","","","","","","","","","","","","","","","",""
"","","","","","html-slider-response","153","316132","0.0-21.0-0.13","3be79f94-c496-4284-a8d0-6eb3d94c4b9c","1000","
                  <p style=""text-align: center;"">₪79
                                                <br>40%</p>
                  <p id=""wtp"" style=""text-align:center; margin-top: 0px; margin-bottom: 0px; font-size: 40px"";>&ensp;</p>","-","viewing","0","30","9B","","","","","","","","","","","","","","","","","","",""
"","","","","","html-slider-response","154","319344","0.0-21.0-1.13","3be79f94-c496-4284-a8d0-6eb3d94c4b9c","3211","
                  <p style=""text-align: center;"">₪79
                                                <br>40%</p>
                  <p id=""wtp"" style=""text-align:center; margin-top: 0px; margin-bottom: 0px; font-size: 40px"";>מוכנים לשלם: <span id=""c_p_y""></span></p>","21","evaluation","53","30","9B","40","79","21","","","","","","","","","","","","","","","",""
"","","","","","html-keyboard-response","155","320566","0.0-21.0-2.13","3be79f94-c496-4284-a8d0-6eb3d94c4b9c","null","<p style=""text-align: center;"">+</p>","null","fixation","","","","","","","","","","","","","","","","","","","","","",""
"","","","","","html-slider-response","156","321573","0.0-21.0-0.14","3be79f94-c496-4284-a8d0-6eb3d94c4b9c","1000","
                  <p style=""text-align: center;"">₪36
                                                <br>30%</p>
                  <p id=""wtp"" style=""text-align:center; margin-top: 0px; margin-bottom: 0px; font-size: 40px"";>&ensp;</p>","-","viewing","0","11","3C,20A,22A","","","","","","","","","","","","","","","","","","",""
"","","","","","html-slider-response","157","325360","0.0-21.0-1.14","3be79f94-c496-4284-a8d0-6eb3d94c4b9c","3785","
                  <p style=""text-align: center;"">₪36
                                                <br>30%</p>
                  <p id=""wtp"" style=""text-align:center; margin-top: 0px; margin-bottom: 0px; font-size: 40px"";>מוכנים לשלם: <span id=""c_p_y""></span></p>","19","evaluation","29","11","3C,20A,22A","30","36","19","","","","","","","","","","","","","","","",""
"","","","","","html-keyboard-response","158","326496","0.0-21.0-2.14","3be79f94-c496-4284-a8d0-6eb3d94c4b9c","null","<p style=""text-align: center;"">+</p>","null","fixation","","","","","","","","","","","","","","","","","","","","","",""
"","","","","","html-slider-response","159","327512","0.0-21.0-0.15","3be79f94-c496-4284-a8d0-6eb3d94c4b9c","1000","
                  <p style=""text-align: center;"">₪36
                                                <br>70%</p>
                  <p id=""wtp"" style=""text-align:center; margin-top: 0px; margin-bottom: 0px; font-size: 40px"";>&ensp;</p>","-","viewing","0","13","3A,5C,10B","","","","","","","","","","","","","","","","","","",""
"","","","","","html-slider-response","160","330112","0.0-21.0-1.15","3be79f94-c496-4284-a8d0-6eb3d94c4b9c","2600","
                  <p style=""text-align: center;"">₪36
                                                <br>70%</p>
                  <p id=""wtp"" style=""text-align:center; margin-top: 0px; margin-bottom: 0px; font-size: 40px"";>מוכנים לשלם: <span id=""c_p_y""></span></p>","24","evaluation","6","13","3A,5C,10B","70","36","24","","","","","","","","","","","","","","","",""
"","","","","","html-keyboard-response","161","331452","0.0-21.0-2.15","3be79f94-c496-4284-a8d0-6eb3d94c4b9c","null","<p style=""text-align: center;"">+</p>","null","fixation","","","","","","","","","","","","","","","","","","","","","",""
"","","","","","html-slider-response","162","332467","0.0-21.0-0.16","3be79f94-c496-4284-a8d0-6eb3d94c4b9c","1000","
                  <p style=""text-align: center;"">₪58
                                                <br>45%</p>
                  <p id=""wtp"" style=""text-align:center; margin-top: 0px; margin-bottom: 0px; font-size: 40px"";>&ensp;</p>","-","viewing","0","21","11C,18C,25A","","","","","","","","","","","","","","","","","","",""
"","","","","","html-slider-response","163","334968","0.0-21.0-1.16","3be79f94-c496-4284-a8d0-6eb3d94c4b9c","2500","
                  <p style=""text-align: center;"">₪58
                                                <br>45%</p>
                  <p id=""wtp"" style=""text-align:center; margin-top: 0px; margin-bottom: 0px; font-size: 40px"";>מוכנים לשלם: <span id=""c_p_y""></span></p>","28","evaluation","79","21","11C,18C,25A","45","58","28","","","","","","","","","","","","","","","",""
"","","","","","html-keyboard-response","164","336324","0.0-21.0-2.16","3be79f94-c496-4284-a8d0-6eb3d94c4b9c","null","<p style=""text-align: center;"">+</p>","null","fixation","","","","","","","","","","","","","","","","","","","","","",""
"","","","","","html-slider-response","165","337327","0.0-21.0-0.17","3be79f94-c496-4284-a8d0-6eb3d94c4b9c","1000","
                  <p style=""text-align: center;"">₪11
                                                <br>45%</p>
                  <p id=""wtp"" style=""text-align:center; margin-top: 0px; margin-bottom: 0px; font-size: 40px"";>&ensp;</p>","-","viewing","0","6","14B,21C,25C","","","","","","","","","","","","","","","","","","",""
"","","","","","html-slider-response","166","340720","0.0-21.0-1.17","3be79f94-c496-4284-a8d0-6eb3d94c4b9c","3392","
                  <p style=""text-align: center;"">₪11
                                                <br>45%</p>
                  <p id=""wtp"" style=""text-align:center; margin-top: 0px; margin-bottom: 0px; font-size: 40px"";>מוכנים לשלם: <span id=""c_p_y""></span></p>","10","evaluation","38","6","14B,21C,25C","45","11","10","","","","","","","","","","","","","","","",""
"","","","","","html-keyboard-response","167","341862","0.0-21.0-2.17","3be79f94-c496-4284-a8d0-6eb3d94c4b9c","null","<p style=""text-align: center;"">+</p>","null","fixation","","","","","","","","","","","","","","","","","","","","","",""
"","","","","","html-slider-response","168","342867","0.0-21.0-0.18","3be79f94-c496-4284-a8d0-6eb3d94c4b9c","1000","
                  <p style=""text-align: center;"">₪4
                                                <br>25%</p>
                  <p id=""wtp"" style=""text-align:center; margin-top: 0px; margin-bottom: 0px; font-size: 40px"";>&ensp;</p>","-","viewing","0","1","6C,29B,30C","","","","","","","","","","","","","","","","","","",""
"","","","","","html-slider-response","169","346873","0.0-21.0-1.18","3be79f94-c496-4284-a8d0-6eb3d94c4b9c","null","
                  <p style=""text-align: center;"">₪4
                                                <br>25%</p>
                  <p id=""wtp"" style=""text-align:center; margin-top: 0px; margin-bottom: 0px; font-size: 40px"";>מוכנים לשלם: <span id=""c_p_y""></span></p>","null","evaluation","53","1","6C,29B,30C","25","4","4","","","","","","","","","","","","","","","",""
"","","","","","html-keyboard-response","170","347604","0.0-21.0-2.18","3be79f94-c496-4284-a8d0-6eb3d94c4b9c","null","<p style=""text-align: center;"">+</p>","null","fixation","","","","","","","","","","","","","","","","","","","","","",""
"","","","","","html-slider-response","171","348606","0.0-21.0-0.19","3be79f94-c496-4284-a8d0-6eb3d94c4b9c","1000","
                  <p style=""text-align: center;"">₪71
                                                <br>45%</p>
                  <p id=""wtp"" style=""text-align:center; margin-top: 0px; margin-bottom: 0px; font-size: 40px"";>&ensp;</p>","-","viewing","0","26","2B,16A","","","","","","","","","","","","","","","","","","",""
"","","","","","html-slider-response","172","351896","0.0-21.0-1.19","3be79f94-c496-4284-a8d0-6eb3d94c4b9c","3288","
                  <p style=""text-align: center;"">₪71
                                                <br>45%</p>
                  <p id=""wtp"" style=""text-align:center; margin-top: 0px; margin-bottom: 0px; font-size: 40px"";>מוכנים לשלם: <span id=""c_p_y""></span></p>","15","evaluation","47","26","2B,16A","45","71","15","","","","","","","","","","","","","","","",""
"","","","","","html-keyboard-response","173","353346","0.0-21.0-2.19","3be79f94-c496-4284-a8d0-6eb3d94c4b9c","null","<p style=""text-align: center;"">+</p>","null","fixation","","","","","","","","","","","","","","","","","","","","","",""
"","","","","","html-slider-response","174","354362","0.0-21.0-0.20","3be79f94-c496-4284-a8d0-6eb3d94c4b9c","1000","
                  <p style=""text-align: center;"">₪36
                                                <br>75%</p>
                  <p id=""wtp"" style=""text-align:center; margin-top: 0px; margin-bottom: 0px; font-size: 40px"";>&ensp;</p>","-","viewing","0","14","4B,5A,13B,16B","","","","","","","","","","","","","","","","","","",""
"","","","","","html-slider-response","175","356088","0.0-21.0-1.20","3be79f94-c496-4284-a8d0-6eb3d94c4b9c","1724","
                  <p style=""text-align: center;"">₪36
                                                <br>75%</p>
                  <p id=""wtp"" style=""text-align:center; margin-top: 0px; margin-bottom: 0px; font-size: 40px"";>מוכנים לשלם: <span id=""c_p_y""></span></p>","20","evaluation","57","14","4B,5A,13B,16B","75","36","20","","","","","","","","","","","","","","","",""
"","","","","","html-keyboard-response","176","357405","0.0-21.0-2.20","3be79f94-c496-4284-a8d0-6eb3d94c4b9c","null","<p style=""text-align: center;"">+</p>","null","fixation","","","","","","","","","","","","","","","","","","","","","",""
"","","","","","html-slider-response","177","358414","0.0-21.0-0.21","3be79f94-c496-4284-a8d0-6eb3d94c4b9c","1000","
                  <p style=""text-align: center;"">₪61
                                                <br>45%</p>
                  <p id=""wtp"" style=""text-align:center; margin-top: 0px; margin-bottom: 0px; font-size: 40px"";>&ensp;</p>","-","viewing","0","22","10A,11A","","","","","","","","","","","","","","","","","","",""
"","","","","","html-slider-response","178","361824","0.0-21.0-1.21","3be79f94-c496-4284-a8d0-6eb3d94c4b9c","3409","
                  <p style=""text-align: center;"">₪61
                                                <br>45%</p>
                  <p id=""wtp"" style=""text-align:center; margin-top: 0px; margin-bottom: 0px; font-size: 40px"";>מוכנים לשלם: <span id=""c_p_y""></span></p>","29","evaluation","54","22","10A,11A","45","61","29","","","","","","","","","","","","","","","",""
"","","","","","html-keyboard-response","179","362523","0.0-21.0-2.21","3be79f94-c496-4284-a8d0-6eb3d94c4b9c","null","<p style=""text-align: center;"">+</p>","null","fixation","","","","","","","","","","","","","","","","","","","","","",""
"","","","","","html-slider-response","180","363539","0.0-21.0-0.22","3be79f94-c496-4284-a8d0-6eb3d94c4b9c","1000","
                  <p style=""text-align: center;"">₪36
                                                <br>60%</p>
                  <p id=""wtp"" style=""text-align:center; margin-top: 0px; margin-bottom: 0px; font-size: 40px"";>&ensp;</p>","-","viewing","0","12","1C,7C,15C","","","","","","","","","","","","","","","","","","",""
"","","","","","html-slider-response","181","366096","0.0-21.0-1.22","3be79f94-c496-4284-a8d0-6eb3d94c4b9c","2557","
                  <p style=""text-align: center;"">₪36
                                                <br>60%</p>
                  <p id=""wtp"" style=""text-align:center; margin-top: 0px; margin-bottom: 0px; font-size: 40px"";>מוכנים לשלם: <span id=""c_p_y""></span></p>","29","evaluation","68","12","1C,7C,15C","60","36","29","","","","","","","","","","","","","","","",""
"","","","","","html-keyboard-response","182","367598","0.0-21.0-2.22","3be79f94-c496-4284-a8d0-6eb3d94c4b9c","null","<p style=""text-align: center;"">+</p>","null","fixation","","","","","","","","","","","","","","","","","","","","","",""
"","","","","","html-slider-response","183","368609","0.0-21.0-0.23","3be79f94-c496-4284-a8d0-6eb3d94c4b9c","1000","
                  <p style=""text-align: center;"">₪64
                                                <br>25%</p>
                  <p id=""wtp"" style=""text-align:center; margin-top: 0px; margin-bottom: 0px; font-size: 40px"";>&ensp;</p>","-","viewing","0","24","6A,21A","","","","","","","","","","","","","","","","","","",""
"","","","","","html-slider-response","184","372618","0.0-21.0-1.23","3be79f94-c496-4284-a8d0-6eb3d94c4b9c","null","
                  <p style=""text-align: center;"">₪64
                                                <br>25%</p>
                  <p id=""wtp"" style=""text-align:center; margin-top: 0px; margin-bottom: 0px; font-size: 40px"";>מוכנים לשלם: <span id=""c_p_y""></span></p>","null","evaluation","38","24","6A,21A","25","64","12","","","","","","","","","","","","","","","",""
"","","","","","html-keyboard-response","185","373793","0.0-21.0-2.23","3be79f94-c496-4284-a8d0-6eb3d94c4b9c","null","<p style=""text-align: center;"">+</p>","null","fixation","","","","","","","","","","","","","","","","","","","","","",""
"","","","","","html-slider-response","186","374800","0.0-21.0-0.24","3be79f94-c496-4284-a8d0-6eb3d94c4b9c","1000","
                  <p style=""text-align: center;"">₪11
                                                <br>25%</p>
                  <p id=""wtp"" style=""text-align:center; margin-top: 0px; margin-bottom: 0px; font-size: 40px"";>&ensp;</p>","-","viewing","0","5","12A,27B,28B,30B","","","","","","","","","","","","","","","","","","",""
"","","","","","html-slider-response","187","375992","0.0-21.0-1.24","3be79f94-c496-4284-a8d0-6eb3d94c4b9c","1191","
                  <p style=""text-align: center;"">₪11
                                                <br>25%</p>
                  <p id=""wtp"" style=""text-align:center; margin-top: 0px; margin-bottom: 0px; font-size: 40px"";>מוכנים לשלם: <span id=""c_p_y""></span></p>","7","evaluation","10","5","12A,27B,28B,30B","25","11","7","","","","","","","","","","","","","","","",""
"","","","","","html-keyboard-response","188","377298","0.0-21.0-2.24","3be79f94-c496-4284-a8d0-6eb3d94c4b9c","null","<p style=""text-align: center;"">+</p>","null","fixation","","","","","","","","","","","","","","","","","","","","","",""
"","","","","","html-slider-response","189","378299","0.0-21.0-0.25","3be79f94-c496-4284-a8d0-6eb3d94c4b9c","1000","
                  <p style=""text-align: center;"">₪4
                                                <br>50%</p>
                  <p id=""wtp"" style=""text-align:center; margin-top: 0px; margin-bottom: 0px; font-size: 40px"";>&ensp;</p>","-","viewing","0","2","4C,17B","","","","","","","","","","","","","","","","","","",""
"","","","","","html-slider-response","190","381296","0.0-21.0-1.25","3be79f94-c496-4284-a8d0-6eb3d94c4b9c","2995","
                  <p style=""text-align: center;"">₪4
                                                <br>50%</p>
                  <p id=""wtp"" style=""text-align:center; margin-top: 0px; margin-bottom: 0px; font-size: 40px"";>מוכנים לשלם: <span id=""c_p_y""></span></p>","5","evaluation","75","2","4C,17B","50","4","5","","","","","","","","","","","","","","","",""
"","","","","","html-keyboard-response","191","381949","0.0-21.0-2.25","3be79f94-c496-4284-a8d0-6eb3d94c4b9c","null","<p style=""text-align: center;"">+</p>","null","fixation","","","","","","","","","","","","","","","","","","","","","",""
"","","","","","html-slider-response","192","382959","0.0-21.0-0.26","3be79f94-c496-4284-a8d0-6eb3d94c4b9c","1000","
                  <p style=""text-align: center;"">₪39
                                                <br>60%</p>
                  <p id=""wtp"" style=""text-align:center; margin-top: 0px; margin-bottom: 0px; font-size: 40px"";>&ensp;</p>","-","viewing","0","15","9C,25B","","","","","","","","","","","","","","","","","","",""
"","","","","","html-slider-response","193","386112","0.0-21.0-1.26","3be79f94-c496-4284-a8d0-6eb3d94c4b9c","3151","
                  <p style=""text-align: center;"">₪39
                                                <br>60%</p>
                  <p id=""wtp"" style=""text-align:center; margin-top: 0px; margin-bottom: 0px; font-size: 40px"";>מוכנים לשלם: <span id=""c_p_y""></span></p>","25","evaluation","49","15","9C,25B","60","39","25","","","","","","","","","","","","","","","",""
"","","","","","html-keyboard-response","194","387300","0.0-21.0-2.26","3be79f94-c496-4284-a8d0-6eb3d94c4b9c","null","<p style=""text-align: center;"">+</p>","null","fixation","","","","","","","","","","","","","","","","","","","","","",""
"","","","","","html-slider-response","195","388304","0.0-21.0-0.27","3be79f94-c496-4284-a8d0-6eb3d94c4b9c","1000","
                  <p style=""text-align: center;"">₪58
                                                <br>40%</p>
                  <p id=""wtp"" style=""text-align:center; margin-top: 0px; margin-bottom: 0px; font-size: 40px"";>&ensp;</p>","-","viewing","0","20","10C,13A,19C,21B","","","","","","","","","","","","","","","","","","",""
"","","","","","html-slider-response","196","391600","0.0-21.0-1.27","3be79f94-c496-4284-a8d0-6eb3d94c4b9c","3295","
                  <p style=""text-align: center;"">₪58
                                                <br>40%</p>
                  <p id=""wtp"" style=""text-align:center; margin-top: 0px; margin-bottom: 0px; font-size: 40px"";>מוכנים לשלם: <span id=""c_p_y""></span></p>","29","evaluation","36","20","10C,13A,19C,21B","40","58","29","","","","","","","","","","","","","","","",""
"","","","","","html-keyboard-response","197","392814","0.0-21.0-2.27","3be79f94-c496-4284-a8d0-6eb3d94c4b9c","null","<p style=""text-align: center;"">+</p>","null","fixation","","","","","","","","","","","","","","","","","","","","","",""
"","","","","","html-slider-response","198","393829","0.0-21.0-0.28","3be79f94-c496-4284-a8d0-6eb3d94c4b9c","1000","
                  <p style=""text-align: center;"">₪11
                                                <br>20%</p>
                  <p id=""wtp"" style=""text-align:center; margin-top: 0px; margin-bottom: 0px; font-size: 40px"";>&ensp;</p>","-","viewing","0","4","12C,17C,23C,28C","","","","","","","","","","","","","","","","","","",""
"","","","","","html-slider-response","199","396800","0.0-21.0-1.28","3be79f94-c496-4284-a8d0-6eb3d94c4b9c","2969","
                  <p style=""text-align: center;"">₪11
                                                <br>20%</p>
                  <p id=""wtp"" style=""text-align:center; margin-top: 0px; margin-bottom: 0px; font-size: 40px"";>מוכנים לשלם: <span id=""c_p_y""></span></p>","10","evaluation","55","4","12C,17C,23C,28C","20","11","10","","","","","","","","","","","","","","","",""
"","","","","","html-keyboard-response","200","397565","0.0-21.0-2.28","3be79f94-c496-4284-a8d0-6eb3d94c4b9c","null","<p style=""text-align: center;"">+</p>","null","fixation","","","","","","","","","","","","","","","","","","","","","",""
"","","","","","html-slider-response","201","398579","0.0-21.0-0.29","3be79f94-c496-4284-a8d0-6eb3d94c4b9c","1000","
                  <p style=""text-align: center;"">₪11
                                                <br>75%</p>
                  <p id=""wtp"" style=""text-align:center; margin-top: 0px; margin-bottom: 0px; font-size: 40px"";>&ensp;</p>","-","viewing","0","7","6B,18B,22C,24C,29A","","","","","","","","","","","","","","","","","","",""
"","","","","","html-slider-response","202","402586","0.0-21.0-1.29","3be79f94-c496-4284-a8d0-6eb3d94c4b9c","null","
                  <p style=""text-align: center;"">₪11
                                                <br>75%</p>
                  <p id=""wtp"" style=""text-align:center; margin-top: 0px; margin-bottom: 0px; font-size: 40px"";>מוכנים לשלם: <span id=""c_p_y""></span></p>","null","evaluation","39","7","6B,18B,22C,24C,29A","75","11","25","","","","","","","","","","","","","","","",""
"","","","","","html-keyboard-response","203","403172","0.0-21.0-2.29","3be79f94-c496-4284-a8d0-6eb3d94c4b9c","null","<p style=""text-align: center;"">+</p>","null","fixation","","","","","","","","","","","","","","","","","","","","","",""
"","","","","","html-slider-response","204","404187","0.0-21.0-0.30","3be79f94-c496-4284-a8d0-6eb3d94c4b9c","1000","
                  <p style=""text-align: center;"">₪43
                                                <br>60%</p>
                  <p id=""wtp"" style=""text-align:center; margin-top: 0px; margin-bottom: 0px; font-size: 40px"";>&ensp;</p>","-","viewing","0","17","2A,7A,9A,15B","","","","","","","","","","","","","","","","","","",""
"","","","","","html-slider-response","205","407736","0.0-21.0-1.30","3be79f94-c496-4284-a8d0-6eb3d94c4b9c","3548","
                  <p style=""text-align: center;"">₪43
                                                <br>60%</p>
                  <p id=""wtp"" style=""text-align:center; margin-top: 0px; margin-bottom: 0px; font-size: 40px"";>מוכנים לשלם: <span id=""c_p_y""></span></p>","32","evaluation","51","17","2A,7A,9A,15B","60","43","32","","","","","","","","","","","","","","","",""
"","","","","","html-keyboard-response","206","408296","0.0-21.0-2.30","3be79f94-c496-4284-a8d0-6eb3d94c4b9c","null","<p style=""text-align: center;"">+</p>","null","fixation","","","","","","","","","","","","","","","","","","","","","",""
"","","","","","html-keyboard-response","207","409300","0.0-22.0","3be79f94-c496-4284-a8d0-6eb3d94c4b9c","null","<p style=""text-align: center;"">+</p>","null","fixation","","","","","","","","","","","","","","","","","","","","","",""
"","","","","","html-keyboard-response","208","411856","0.0-23.0","3be79f94-c496-4284-a8d0-6eb3d94c4b9c","null","<p>הפסקה.
          <br>לחצו כדי להמשיך.</p>","1","scan_wait","","","","","","","","","","","","","","","","","","","","","",""
"","","","","","html-keyboard-response","209","412866","0.0-24.0","3be79f94-c496-4284-a8d0-6eb3d94c4b9c","null","<p style=""text-align: center;"">+</p>","null","fixation","","","","","","","","","","","","","","","","","","","","","",""
"","","","","","html-slider-response","210","413876","0.0-25.0-0.0","3be79f94-c496-4284-a8d0-6eb3d94c4b9c","1000","
                  <p style=""text-align: center;"">₪58
                                                <br>40%</p>
                  <p id=""wtp"" style=""text-align:center; margin-top: 0px; margin-bottom: 0px; font-size: 40px"";>&ensp;</p>","-","viewing","0","20","10C,13A,19C,21B","","","","","","","","","","","","","","","","","","",""
"","","","","","html-slider-response","211","417056","0.0-25.0-1.0","3be79f94-c496-4284-a8d0-6eb3d94c4b9c","3178","
                  <p style=""text-align: center;"">₪58
                                                <br>40%</p>
                  <p id=""wtp"" style=""text-align:center; margin-top: 0px; margin-bottom: 0px; font-size: 40px"";>מוכנים לשלם: <span id=""c_p_y""></span></p>","27","evaluation","29","20","10C,13A,19C,21B","40","58","27","","","","","","","","","","","","","","","",""
"","","","","","html-keyboard-response","212","418498","0.0-25.0-2.0","3be79f94-c496-4284-a8d0-6eb3d94c4b9c","null","<p style=""text-align: center;"">+</p>","null","fixation","","","","","","","","","","","","","","","","","","","","","",""
"","","","","","html-slider-response","213","419500","0.0-25.0-0.1","3be79f94-c496-4284-a8d0-6eb3d94c4b9c","1000","
                  <p style=""text-align: center;"">₪71
                                                <br>45%</p>
                  <p id=""wtp"" style=""text-align:center; margin-top: 0px; margin-bottom: 0px; font-size: 40px"";>&ensp;</p>","-","viewing","0","26","2B,16A","","","","","","","","","","","","","","","","","","",""
"","","","","","html-slider-response","214","422561","0.0-25.0-1.1","3be79f94-c496-4284-a8d0-6eb3d94c4b9c","3058","
                  <p style=""text-align: center;"">₪71
                                                <br>45%</p>
                  <p id=""wtp"" style=""text-align:center; margin-top: 0px; margin-bottom: 0px; font-size: 40px"";>מוכנים לשלם: <span id=""c_p_y""></span></p>","40","evaluation","55","26","2B,16A","45","71","40","","","","","","","","","","","","","","","",""
"","","","","","html-keyboard-response","215","423495","0.0-25.0-2.1","3be79f94-c496-4284-a8d0-6eb3d94c4b9c","null","<p style=""text-align: center;"">+</p>","null","fixation","","","","","","","","","","","","","","","","","","","","","",""
"","","","","","html-slider-response","216","424500","0.0-25.0-0.2","3be79f94-c496-4284-a8d0-6eb3d94c4b9c","1000","
                  <p style=""text-align: center;"">₪4
                                                <br>50%</p>
                  <p id=""wtp"" style=""text-align:center; margin-top: 0px; margin-bottom: 0px; font-size: 40px"";>&ensp;</p>","-","viewing","0","2","4C,17B","","","","","","","","","","","","","","","","","","",""
"","","","","","html-slider-response","217","427697","0.0-25.0-1.2","3be79f94-c496-4284-a8d0-6eb3d94c4b9c","3195","
                  <p style=""text-align: center;"">₪4
                                                <br>50%</p>
                  <p id=""wtp"" style=""text-align:center; margin-top: 0px; margin-bottom: 0px; font-size: 40px"";>מוכנים לשלם: <span id=""c_p_y""></span></p>","4","evaluation","18","2","4C,17B","50","4","4","","","","","","","","","","","","","","","",""
"","","","","","html-keyboard-response","218","428503","0.0-25.0-2.2","3be79f94-c496-4284-a8d0-6eb3d94c4b9c","null","<p style=""text-align: center;"">+</p>","null","fixation","","","","","","","","","","","","","","","","","","","","","",""
"","","","","","html-slider-response","219","429519","0.0-25.0-0.3","3be79f94-c496-4284-a8d0-6eb3d94c4b9c","1000","
                  <p style=""text-align: center;"">₪11
                                                <br>25%</p>
                  <p id=""wtp"" style=""text-align:center; margin-top: 0px; margin-bottom: 0px; font-size: 40px"";>&ensp;</p>","-","viewing","0","5","12A,27B,28B,30B","","","","","","","","","","","","","","","","","","",""
"","","","","","html-slider-response","220","432200","0.0-25.0-1.3","3be79f94-c496-4284-a8d0-6eb3d94c4b9c","2680","
                  <p style=""text-align: center;"">₪11
                                                <br>25%</p>
                  <p id=""wtp"" style=""text-align:center; margin-top: 0px; margin-bottom: 0px; font-size: 40px"";>מוכנים לשלם: <span id=""c_p_y""></span></p>","4","evaluation","80","5","12A,27B,28B,30B","25","11","4","","","","","","","","","","","","","","","",""
"","","","","","html-keyboard-response","221","433624","0.0-25.0-2.3","3be79f94-c496-4284-a8d0-6eb3d94c4b9c","null","<p style=""text-align: center;"">+</p>","null","fixation","","","","","","","","","","","","","","","","","","","","","",""
"","","","","","html-slider-response","222","434633","0.0-25.0-0.4","3be79f94-c496-4284-a8d0-6eb3d94c4b9c","1000","
                  <p style=""text-align: center;"">₪11
                                                <br>20%</p>
                  <p id=""wtp"" style=""text-align:center; margin-top: 0px; margin-bottom: 0px; font-size: 40px"";>&ensp;</p>","-","viewing","0","4","12C,17C,23C,28C","","","","","","","","","","","","","","","","","","",""
"","","","","","html-slider-response","223","437928","0.0-25.0-1.4","3be79f94-c496-4284-a8d0-6eb3d94c4b9c","3294","
                  <p style=""text-align: center;"">₪11
                                                <br>20%</p>
                  <p id=""wtp"" style=""text-align:center; margin-top: 0px; margin-bottom: 0px; font-size: 40px"";>מוכנים לשלם: <span id=""c_p_y""></span></p>","3","evaluation","63","4","12C,17C,23C,28C","20","11","3","","","","","","","","","","","","","","","",""
"","","","","","html-keyboard-response","224","438828","0.0-25.0-2.4","3be79f94-c496-4284-a8d0-6eb3d94c4b9c","null","<p style=""text-align: center;"">+</p>","null","fixation","","","","","","","","","","","","","","","","","","","","","",""
"","","","","","html-slider-response","225","439834","0.0-25.0-0.5","3be79f94-c496-4284-a8d0-6eb3d94c4b9c","1000","
                  <p style=""text-align: center;"">₪36
                                                <br>75%</p>
                  <p id=""wtp"" style=""text-align:center; margin-top: 0px; margin-bottom: 0px; font-size: 40px"";>&ensp;</p>","-","viewing","0","14","4B,5A,13B,16B","","","","","","","","","","","","","","","","","","",""
"","","","","","html-slider-response","226","443836","0.0-25.0-1.5","3be79f94-c496-4284-a8d0-6eb3d94c4b9c","null","
                  <p style=""text-align: center;"">₪36
                                                <br>75%</p>
                  <p id=""wtp"" style=""text-align:center; margin-top: 0px; margin-bottom: 0px; font-size: 40px"";>מוכנים לשלם: <span id=""c_p_y""></span></p>","null","evaluation","20","14","4B,5A,13B,16B","75","36","30","","","","","","","","","","","","","","","",""
"","","","","","html-keyboard-response","227","445163","0.0-25.0-2.5","3be79f94-c496-4284-a8d0-6eb3d94c4b9c","null","<p style=""text-align: center;"">+</p>","null","fixation","","","","","","","","","","","","","","","","","","","","","",""
"","","","","","html-slider-response","228","446166","0.0-25.0-0.6","3be79f94-c496-4284-a8d0-6eb3d94c4b9c","1000","
                  <p style=""text-align: center;"">₪64
                                                <br>25%</p>
                  <p id=""wtp"" style=""text-align:center; margin-top: 0px; margin-bottom: 0px; font-size: 40px"";>&ensp;</p>","-","viewing","0","24","6A,21A","","","","","","","","","","","","","","","","","","",""
"","","","","","html-slider-response","229","450169","0.0-25.0-1.6","3be79f94-c496-4284-a8d0-6eb3d94c4b9c","null","
                  <p style=""text-align: center;"">₪64
                                                <br>25%</p>
                  <p id=""wtp"" style=""text-align:center; margin-top: 0px; margin-bottom: 0px; font-size: 40px"";>מוכנים לשלם: <span id=""c_p_y""></span></p>","null","evaluation","36","24","6A,21A","25","64","11","","","","","","","","","","","","","","","",""
"","","","","","html-keyboard-response","230","450980","0.0-25.0-2.6","3be79f94-c496-4284-a8d0-6eb3d94c4b9c","null","<p style=""text-align: center;"">+</p>","null","fixation","","","","","","","","","","","","","","","","","","","","","",""
"","","","","","html-slider-response","231","451984","0.0-25.0-0.7","3be79f94-c496-4284-a8d0-6eb3d94c4b9c","1000","
                  <p style=""text-align: center;"">₪79
                                                <br>65%</p>
                  <p id=""wtp"" style=""text-align:center; margin-top: 0px; margin-bottom: 0px; font-size: 40px"";>&ensp;</p>","-","viewing","0","31","8A","","","","","","","","","","","","","","","","","","",""
"","","","","","html-slider-response","232","454241","0.0-25.0-1.7","3be79f94-c496-4284-a8d0-6eb3d94c4b9c","2255","
                  <p style=""text-align: center;"">₪79
                                                <br>65%</p>
                  <p id=""wtp"" style=""text-align:center; margin-top: 0px; margin-bottom: 0px; font-size: 40px"";>מוכנים לשלם: <span id=""c_p_y""></span></p>","49","evaluation","59","31","8A","65","79","49","","","","","","","","","","","","","","","",""
"","","","","","html-keyboard-response","233","455537","0.0-25.0-2.7","3be79f94-c496-4284-a8d0-6eb3d94c4b9c","null","<p style=""text-align: center;"">+</p>","null","fixation","","","","","","","","","","","","","","","","","","","","","",""
"","","","","","html-slider-response","234","456548","0.0-25.0-0.8","3be79f94-c496-4284-a8d0-6eb3d94c4b9c","1000","
                  <p style=""text-align: center;"">₪11
                                                <br>75%</p>
                  <p id=""wtp"" style=""text-align:center; margin-top: 0px; margin-bottom: 0px; font-size: 40px"";>&ensp;</p>","-","viewing","0","7","6B,18B,22C,24C,29A","","","","","","","","","","","","","","","","","","",""
"","","","","","html-slider-response","235","460288","0.0-25.0-1.8","3be79f94-c496-4284-a8d0-6eb3d94c4b9c","3740","
                  <p style=""text-align: center;"">₪11
                                                <br>75%</p>
                  <p id=""wtp"" style=""text-align:center; margin-top: 0px; margin-bottom: 0px; font-size: 40px"";>מוכנים לשלם: <span id=""c_p_y""></span></p>","10","evaluation","13","7","6B,18B,22C,24C,29A","75","11","11","","","","","","","","","","","","","","","",""
"","","","","","html-keyboard-response","236","461686","0.0-25.0-2.8","3be79f94-c496-4284-a8d0-6eb3d94c4b9c","null","<p style=""text-align: center;"">+</p>","null","fixation","","","","","","","","","","","","","","","","","","","","","",""
"","","","","","html-slider-response","237","462688","0.0-25.0-0.9","3be79f94-c496-4284-a8d0-6eb3d94c4b9c","1000","
                  <p style=""text-align: center;"">₪43
                                                <br>75%</p>
                  <p id=""wtp"" style=""text-align:center; margin-top: 0px; margin-bottom: 0px; font-size: 40px"";>&ensp;</p>","-","viewing","0","18","11B,19B,24A,26A","","","","","","","","","","","","","","","","","","",""
"","","","","","html-slider-response","238","464265","0.0-25.0-1.9","3be79f94-c496-4284-a8d0-6eb3d94c4b9c","1576","
                  <p style=""text-align: center;"">₪43
                                                <br>75%</p>
                  <p id=""wtp"" style=""text-align:center; margin-top: 0px; margin-bottom: 0px; font-size: 40px"";>מוכנים לשלם: <span id=""c_p_y""></span></p>","40","evaluation","38","18","11B,19B,24A,26A","75","43","40","","","","","","","","","","","","","","","",""
"","","","","","html-keyboard-response","239","465377","0.0-25.0-2.9","3be79f94-c496-4284-a8d0-6eb3d94c4b9c","null","<p style=""text-align: center;"">+</p>","null","fixation","","","","","","","","","","","","","","","","","","","","","",""
"","","","","","html-slider-response","240","466391","0.0-25.0-0.10","3be79f94-c496-4284-a8d0-6eb3d94c4b9c","1000","
                  <p style=""text-align: center;"">₪16
                                                <br>20%</p>
                  <p id=""wtp"" style=""text-align:center; margin-top: 0px; margin-bottom: 0px; font-size: 40px"";>&ensp;</p>","-","viewing","0","8","14C,17A,20C,27A","","","","","","","","","","","","","","","","","","",""
"","","","","","html-slider-response","241","468912","0.0-25.0-1.10","3be79f94-c496-4284-a8d0-6eb3d94c4b9c","2519","
                  <p style=""text-align: center;"">₪16
                                                <br>20%</p>
                  <p id=""wtp"" style=""text-align:center; margin-top: 0px; margin-bottom: 0px; font-size: 40px"";>מוכנים לשלם: <span id=""c_p_y""></span></p>","10","evaluation","68","8","14C,17A,20C,27A","20","16","10","","","","","","","","","","","","","","","",""
"","","","","","html-keyboard-response","242","470373","0.0-25.0-2.10","3be79f94-c496-4284-a8d0-6eb3d94c4b9c","null","<p style=""text-align: center;"">+</p>","null","fixation","","","","","","","","","","","","","","","","","","","","","",""
"","","","","","html-slider-response","243","471375","0.0-25.0-0.11","3be79f94-c496-4284-a8d0-6eb3d94c4b9c","1000","
                  <p style=""text-align: center;"">₪36
                                                <br>30%</p>
                  <p id=""wtp"" style=""text-align:center; margin-top: 0px; margin-bottom: 0px; font-size: 40px"";>&ensp;</p>","-","viewing","0","11","3C,20A,22A","","","","","","","","","","","","","","","","","","",""
"","","","","","html-slider-response","244","473360","0.0-25.0-1.11","3be79f94-c496-4284-a8d0-6eb3d94c4b9c","1984","
                  <p style=""text-align: center;"">₪36
                                                <br>30%</p>
                  <p id=""wtp"" style=""text-align:center; margin-top: 0px; margin-bottom: 0px; font-size: 40px"";>מוכנים לשלם: <span id=""c_p_y""></span></p>","16","evaluation","4","11","3C,20A,22A","30","36","16","","","","","","","","","","","","","","","",""
"","","","","","html-keyboard-response","245","474721","0.0-25.0-2.11","3be79f94-c496-4284-a8d0-6eb3d94c4b9c","null","<p style=""text-align: center;"">+</p>","null","fixation","","","","","","","","","","","","","","","","","","","","","",""
"","","","","","html-slider-response","246","475732","0.0-25.0-0.12","3be79f94-c496-4284-a8d0-6eb3d94c4b9c","1000","
                  <p style=""text-align: center;"">₪36
                                                <br>60%</p>
                  <p id=""wtp"" style=""text-align:center; margin-top: 0px; margin-bottom: 0px; font-size: 40px"";>&ensp;</p>","-","viewing","0","12","1C,7C,15C","","","","","","","","","","","","","","","","","","",""
"","","","","","html-slider-response","247","479664","0.0-25.0-1.12","3be79f94-c496-4284-a8d0-6eb3d94c4b9c","3931","
                  <p style=""text-align: center;"">₪36
                                                <br>60%</p>
                  <p id=""wtp"" style=""text-align:center; margin-top: 0px; margin-bottom: 0px; font-size: 40px"";>מוכנים לשלם: <span id=""c_p_y""></span></p>","30","evaluation","76","12","1C,7C,15C","60","36","30","","","","","","","","","","","","","","","",""
"","","","","","html-keyboard-response","248","480588","0.0-25.0-2.12","3be79f94-c496-4284-a8d0-6eb3d94c4b9c","null","<p style=""text-align: center;"">+</p>","null","fixation","","","","","","","","","","","","","","","","","","","","","",""
"","","","","","html-slider-response","249","481591","0.0-25.0-0.13","3be79f94-c496-4284-a8d0-6eb3d94c4b9c","1000","
                  <p style=""text-align: center;"">₪39
                                                <br>65%</p>
                  <p id=""wtp"" style=""text-align:center; margin-top: 0px; margin-bottom: 0px; font-size: 40px"";>&ensp;</p>","-","viewing","0","16","1A,15A,26C","","","","","","","","","","","","","","","","","","",""
"","","","","","html-slider-response","250","485595","0.0-25.0-1.13","3be79f94-c496-4284-a8d0-6eb3d94c4b9c","null","
                  <p style=""text-align: center;"">₪39
                                                <br>65%</p>
