"success","timeout","failed_images","failed_audio","failed_video","trial_type","trial_index","time_elapsed","internal_node_id","subject_id","rt","stimulus","response","part","actual_choice","actual_EV","binary_id","trinary_id","catch","A_key","D_key","choice_prob","choice_amount","chosen_part","accuracy"
"true","false","[]","[]","[]","preload","0","6","0.0-0.0","038","","","","","","","","","","","","","","",""
"","","","","","html-keyboard-response","1","720","0.0-1.0","038","null","","null","delay","","","","","","","","","","",""
"","","","","","html-keyboard-response","2","27860","0.0-2.0","038","27137","
          <h1>חלק 2</h1>
          <p>בחלק זה יוצגו בפניכם שתי הגרלות.
          <br>אתם מתבקשים לבחור את ההגרלה שתרצו להשתתף בה.
          <br>שימו לב! בסוף הניסוי נבחר שלב אחד באקראי ונממש את ההגרלה שבחרתם. כלומר, הבחירה שלכם יכולה להפוך לכסף אמיתי.
          <br><br>לחצו רווח כדי להמשיך.</p>"," ","instructions","","","","","","","","","","",""
"","","","","","html-keyboard-response","3","36595","0.0-3.0","038","8025","
          <p>בואו נתחיל בדוגמה:
          <br>לפניכם שתי הגרלות.
          <br>לחצו 'A' אם אתם מעדיפים את ההגרלה השמאלית
          <br>לחצו 'D' אם אתם מעדיפים את ההגרלה הימנית
          <p class=""lotteries"">
            <span><img src='img/A.png', width=""30""></span>
            <span><img src='img/D.png', width=""30""></span>
          </p>
          <p class=""lotteries"">
            <span>₪39</span>
            <span>₪54</span>
          </p>
          <p class=""lotteries"">
            <span>65%</span>
            <span>35%</span>
          </p>","a","example","","","","","","","","","","",""
"","","","","","html-keyboard-response","4","39372","0.0-4.0","038","2069","<p>יפה מאוד!
                  <br>בחרתם את ההגרלה השמאלית. נשמע נכון?
                  <br>בואו ננסה דוגמה נוספת:</p>
                  <p class=""lotteries"">
                    <span><img src='img/A.png', width=""30""></span>
                    <span><img src='img/D.png', width=""30""></span>
                  </p>
                  <p class=""lotteries"">
                    <span>₪29</span>
                    <span>₪43</span>
                  </p>
                  <p class=""lotteries"">
                    <span>30%</span>
                    <span>65%</span>
                  </p>","d","example","","","","","","","","","","",""
"","","","","","html-keyboard-response","5","41331","0.0-5.0","038","1247","<p>יפה. כעת בחרתם את ההגרלה הימנית. 
                  <br>מיד נתחיל בניסוי.
                  <br>אתם תראו זוגות של הגרלות ותתבקשו לבחור את ההגרלה המועדפת עליכם.
                  <br><br>לחצו רווח כדי להמשיך.</p>"," ","instructions","","","","","","","","","","",""
"","","","","","html-keyboard-response","6","43141","0.0-6.0-0.0","038","null","<p style=""text-align: center;"">+</p>","null","fixation","","","","","","","","","","",""
"","","","","","html-keyboard-response","7","49987","0.0-6.0-1.0","038","6843","
                    <p class=""lotteries"">
                      <span><img src='img/A.png', width=""30""></span>
                      <span><img src='img/D.png', width=""30""></span>
                    </p>
                    <p class=""lotteries"">
                      <span>₪39</span>
                      <span>₪64</span>
                    </p>
                    <p class=""lotteries"">
                      <span>65%</span>
                      <span>50%</span>
                    </p>","a","binary","A","25.35","1","1","0","A","B","65","39","",""
"","","","","","html-keyboard-response","8","50950","0.0-6.0-0.1","038","null","<p style=""text-align: center;"">+</p>","null","fixation","","","","","","","","","","",""
"","","","","","html-keyboard-response","9","54337","0.0-6.0-1.1","038","3372","
                    <p class=""lotteries"">
                      <span><img src='img/A.png', width=""30""></span>
                      <span><img src='img/D.png', width=""30""></span>
                    </p>
                    <p class=""lotteries"">
                      <span>₪76</span>
                      <span>₪43</span>
                    </p>
                    <p class=""lotteries"">
                      <span>65%</span>
                      <span>75%</span>
                    </p>","d","binary","A","32.25","24","24","0","B","A","75","43","",""
"","","","","","html-keyboard-response","10","54922","0.0-6.0-0.2","038","null","<p style=""text-align: center;"">+</p>","null","fixation","","","","","","","","","","",""
"","","","","","html-keyboard-response","11","60392","0.0-6.0-1.2","038","5469","
                    <p class=""lotteries"">
                      <span><img src='img/A.png', width=""30""></span>
                      <span><img src='img/D.png', width=""30""></span>
                    </p>
                    <p class=""lotteries"">
                      <span>₪71</span>
                      <span>₪43</span>
                    </p>
                    <p class=""lotteries"">
                      <span>45%</span>
                      <span>60%</span>
                    </p>","d","binary","A","25.8","2","2","0","B","A","60","43","",""
"","","","","","html-keyboard-response","12","61799","0.0-6.0-0.3","038","null","<p style=""text-align: center;"">+</p>","null","fixation","","","","","","","","","","",""
"","","","","","html-keyboard-response","13","71600","0.0-6.0-1.3","038","9799","
                    <p class=""lotteries"">
                      <span><img src='img/A.png', width=""30""></span>
                      <span><img src='img/D.png', width=""30""></span>
                    </p>
                    <p class=""lotteries"">
                      <span>₪4</span>
                      <span>₪36</span>
                    </p>
                    <p class=""lotteries"">
                      <span>75%</span>
                      <span>30%</span>
                    </p>","d","binary","A","10.8","20","20","0","B","A","30","36","",""
"","","","","","html-keyboard-response","14","72718","0.0-6.0-0.4","038","null","<p style=""text-align: center;"">+</p>","null","fixation","","","","","","","","","","",""
"","","","","","html-keyboard-response","15","75673","0.0-6.0-1.4","038","2953","
                    <p class=""lotteries"">
                      <span><img src='img/A.png', width=""30""></span>
                      <span><img src='img/D.png', width=""30""></span>
                    </p>
                    <p class=""lotteries"">
                      <span>₪58</span>
                      <span>₪11</span>
                    </p>
                    <p class=""lotteries"">
                      <span>30%</span>
                      <span>25%</span>
                    </p>","a","binary","A","17.4","30","30","1","A","B","30","58","",""
"","","","","","html-keyboard-response","16","76850","0.0-6.0-0.5","038","null","<p style=""text-align: center;"">+</p>","null","fixation","","","","","","","","","","",""
"","","","","","html-keyboard-response","17","79936","0.0-6.0-1.5","038","3085","
                    <p class=""lotteries"">
                      <span><img src='img/A.png', width=""30""></span>
                      <span><img src='img/D.png', width=""30""></span>
                    </p>
                    <p class=""lotteries"">
                      <span>₪58</span>
                      <span>₪64</span>
                    </p>
                    <p class=""lotteries"">
                      <span>40%</span>
                      <span>25%</span>
                    </p>","a","binary","B","23.2","21","21","0","B","A","40","58","",""
"","","","","","html-keyboard-response","18","81396","0.0-6.0-0.6","038","null","<p style=""text-align: center;"">+</p>","null","fixation","","","","","","","","","","",""
"","","","","","html-keyboard-response","19","83175","0.0-6.0-1.6","038","1778","
                    <p class=""lotteries"">
                      <span><img src='img/A.png', width=""30""></span>
                      <span><img src='img/D.png', width=""30""></span>
                    </p>
                    <p class=""lotteries"">
                      <span>₪61</span>
                      <span>₪43</span>
                    </p>
                    <p class=""lotteries"">
                      <span>55%</span>
                      <span>75%</span>
                    </p>","d","binary","A","32.25","26","26","0","B","A","75","43","",""
"","","","","","html-keyboard-response","20","84645","0.0-6.0-0.7","038","null","<p style=""text-align: center;"">+</p>","null","fixation","","","","","","","","","","",""
"","","","","","html-keyboard-response","21","89424","0.0-6.0-1.7","038","4777","
                    <p class=""lotteries"">
                      <span><img src='img/A.png', width=""30""></span>
                      <span><img src='img/D.png', width=""30""></span>
                    </p>
                    <p class=""lotteries"">
                      <span>₪36</span>
                      <span>₪18</span>
                    </p>
                    <p class=""lotteries"">
                      <span>30%</span>
                      <span>50%</span>
                    </p>","a","binary","A","10.8","22","22","0","A","B","30","36","",""
"","","","","","html-keyboard-response","22","90629","0.0-6.0-0.8","038","null","<p style=""text-align: center;"">+</p>","null","fixation","","","","","","","","","","",""
"","","","","","html-keyboard-response","23","99600","0.0-6.0-1.8","038","8970","
                    <p class=""lotteries"">
                      <span><img src='img/A.png', width=""30""></span>
                      <span><img src='img/D.png', width=""30""></span>
                    </p>
                    <p class=""lotteries"">
                      <span>₪71</span>
                      <span>₪36</span>
                    </p>
                    <p class=""lotteries"">
                      <span>55%</span>
                      <span>75%</span>
                    </p>","d","binary","A","27","5","5","0","B","A","75","36","",""
"","","","","","html-keyboard-response","24","101092","0.0-6.0-0.9","038","null","<p style=""text-align: center;"">+</p>","null","fixation","","","","","","","","","","",""
"","","","","","html-keyboard-response","25","103016","0.0-6.0-1.9","038","1923","
                    <p class=""lotteries"">
                      <span><img src='img/A.png', width=""30""></span>
                      <span><img src='img/D.png', width=""30""></span>
                    </p>
                    <p class=""lotteries"">
                      <span>₪11</span>
                      <span>₪4</span>
                    </p>
                    <p class=""lotteries"">
                      <span>75%</span>
                      <span>25%</span>
                    </p>","a","binary","A","8.25","29","29","1","A","B","75","11","",""
"","","","","","html-keyboard-response","26","103555","0.0-6.0-0.10","038","null","<p style=""text-align: center;"">+</p>","null","fixation","","","","","","","","","","",""
"","","","","","html-keyboard-response","27","106792","0.0-6.0-1.10","038","3235","
                    <p class=""lotteries"">
                      <span><img src='img/A.png', width=""30""></span>
                      <span><img src='img/D.png', width=""30""></span>
                    </p>
                    <p class=""lotteries"">
                      <span>₪43</span>
                      <span>₪76</span>
                    </p>
                    <p class=""lotteries"">
                      <span>75%</span>
                      <span>65%</span>
                    </p>","d","binary","A","49.4","19","19","0","B","A","65","76","",""
"","","","","","html-keyboard-response","28","107528","0.0-6.0-0.11","038","null","<p style=""text-align: center;"">+</p>","null","fixation","","","","","","","","","","",""
"","","","","","html-keyboard-response","29","109912","0.0-6.0-1.11","038","2383","
                    <p class=""lotteries"">
                      <span><img src='img/A.png', width=""30""></span>
                      <span><img src='img/D.png', width=""30""></span>
                    </p>
                    <p class=""lotteries"">
                      <span>₪36</span>
                      <span>₪64</span>
                    </p>
                    <p class=""lotteries"">
                      <span>70%</span>
                      <span>50%</span>
                    </p>","a","binary","A","25.2","3","3","0","A","B","70","36","",""
"","","","","","html-keyboard-response","30","111393","0.0-6.0-0.12","038","null","<p style=""text-align: center;"">+</p>","null","fixation","","","","","","","","","","",""
"","","","","","html-keyboard-response","31","113719","0.0-6.0-1.12","038","2325","
                    <p class=""lotteries"">
                      <span><img src='img/A.png', width=""30""></span>
                      <span><img src='img/D.png', width=""30""></span>
                    </p>
                    <p class=""lotteries"">
                      <span>₪39</span>
                      <span>₪58</span>
                    </p>
                    <p class=""lotteries"">
                      <span>60%</span>
                      <span>45%</span>
                    </p>","a","binary","B","23.4","25","25","0","B","A","60","39","",""
"","","","","","html-keyboard-response","32","114305","0.0-6.0-0.13","038","null","<p style=""text-align: center;"">+</p>","null","fixation","","","","","","","","","","",""
"","","","","","html-keyboard-response","33","126184","0.0-6.0-1.13","038","11886","
                    <p class=""lotteries"">
                      <span><img src='img/A.png', width=""30""></span>
                      <span><img src='img/D.png', width=""30""></span>
                    </p>
                    <p class=""lotteries"">
                      <span>₪79</span>
                      <span>₪43</span>
                    </p>
                    <p class=""lotteries"">
                      <span>40%</span>
                      <span>60%</span>
                    </p>","d","binary","A","25.8","9","9","0","B","A","60","43","",""
"","","","","","html-keyboard-response","34","127511","0.0-6.0-0.14","038","null","<p style=""text-align: center;"">+</p>","null","fixation","","","","","","","","","","",""
"","","","","","html-keyboard-response","35","129592","0.0-6.0-1.14","038","2079","
                    <p class=""lotteries"">
                      <span><img src='img/A.png', width=""30""></span>
                      <span><img src='img/D.png', width=""30""></span>
                    </p>
                    <p class=""lotteries"">
                      <span>₪61</span>
                      <span>₪43</span>
                    </p>
                    <p class=""lotteries"">
                      <span>45%</span>
                      <span>75%</span>
                    </p>","d","binary","B","32.25","11","11","0","A","B","75","43","",""
"","","","","","html-keyboard-response","36","130537","0.0-6.0-0.15","038","null","<p style=""text-align: center;"">+</p>","null","fixation","","","","","","","","","","",""
"","","","","","html-keyboard-response","37","134000","0.0-6.0-1.15","038","3462","
                    <p class=""lotteries"">
                      <span><img src='img/A.png', width=""30""></span>
                      <span><img src='img/D.png', width=""30""></span>
                    </p>
                    <p class=""lotteries"">
                      <span>₪64</span>
                      <span>₪11</span>
                    </p>
                    <p class=""lotteries"">
                      <span>25%</span>
                      <span>75%</span>
                    </p>","d","binary","B","8.25","6","6","0","A","B","75","11","",""
"","","","","","html-keyboard-response","38","134734","0.0-6.0-0.16","038","null","<p style=""text-align: center;"">+</p>","null","fixation","","","","","","","","","","",""
"","","","","","html-keyboard-response","39","137167","0.0-6.0-1.16","038","2431","
                    <p class=""lotteries"">
                      <span><img src='img/A.png', width=""30""></span>
                      <span><img src='img/D.png', width=""30""></span>
                    </p>
                    <p class=""lotteries"">
                      <span>₪36</span>
                      <span>₪61</span>
                    </p>
                    <p class=""lotteries"">
                      <span>70%</span>
                      <span>45%</span>
                    </p>","a","binary","B","25.2","10","10","0","B","A","70","36","",""
"","","","","","html-keyboard-response","40","137871","0.0-6.0-0.17","038","null","<p style=""text-align: center;"">+</p>","null","fixation","","","","","","","","","","",""
"","","","","","html-keyboard-response","41","139824","0.0-6.0-1.17","038","1952","
                    <p class=""lotteries"">
                      <span><img src='img/A.png', width=""30""></span>
                      <span><img src='img/D.png', width=""30""></span>
                    </p>
                    <p class=""lotteries"">
                      <span>₪16</span>
                      <span>₪11</span>
                    </p>
                    <p class=""lotteries"">
                      <span>20%</span>
                      <span>25%</span>
                    </p>","a","binary","A","3.2","27","27","0","A","B","20","16","",""
"","","","","","html-keyboard-response","42","140738","0.0-6.0-0.18","038","null","<p style=""text-align: center;"">+</p>","null","fixation","","","","","","","","","","",""
"","","","","","html-keyboard-response","43","145744","0.0-6.0-1.18","038","5005","
                    <p class=""lotteries"">
                      <span><img src='img/A.png', width=""30""></span>
                      <span><img src='img/D.png', width=""30""></span>
                    </p>
                    <p class=""lotteries"">
                      <span>₪16</span>
                      <span>₪4</span>
                    </p>
                    <p class=""lotteries"">
                      <span>20%</span>
                      <span>50%</span>
                    </p>","d","binary","B","2","17","17","0","A","B","50","4","",""
"","","","","","html-keyboard-response","44","146953","0.0-6.0-0.19","038","null","<p style=""text-align: center;"">+</p>","null","fixation","","","","","","","","","","",""
"","","","","","html-keyboard-response","45","151288","0.0-6.0-1.19","038","4334","
                    <p class=""lotteries"">
                      <span><img src='img/A.png', width=""30""></span>
                      <span><img src='img/D.png', width=""30""></span>
                    </p>
                    <p class=""lotteries"">
                      <span>₪18</span>
                      <span>₪4</span>
                    </p>
                    <p class=""lotteries"">
                      <span>25%</span>
                      <span>75%</span>
                    </p>","a","binary","A","4.5","23","23","0","A","B","25","18","",""
"","","","","","html-keyboard-response","46","152049","0.0-6.0-0.20","038","null","<p style=""text-align: center;"">+</p>","null","fixation","","","","","","","","","","",""
"","","","","","html-keyboard-response","47","156904","0.0-6.0-1.20","038","4853","
                    <p class=""lotteries"">
                      <span><img src='img/A.png', width=""30""></span>
                      <span><img src='img/D.png', width=""30""></span>
                    </p>
                    <p class=""lotteries"">
                      <span>₪11</span>
                      <span>₪71</span>
                    </p>
                    <p class=""lotteries"">
                      <span>75%</span>
                      <span>55%</span>
                    </p>","d","binary","A","39.05","18","18","0","B","A","55","71","",""
"","","","","","html-keyboard-response","48","158118","0.0-6.0-0.21","038","null","<p style=""text-align: center;"">+</p>","null","fixation","","","","","","","","","","",""
"","","","","","html-keyboard-response","49","161744","0.0-6.0-1.21","038","3624","
                    <p class=""lotteries"">
                      <span><img src='img/A.png', width=""30""></span>
                      <span><img src='img/D.png', width=""30""></span>
                    </p>
                    <p class=""lotteries"">
                      <span>₪79</span>
                      <span>₪71</span>
                    </p>
                    <p class=""lotteries"">
                      <span>65%</span>
                      <span>75%</span>
                    </p>","d","binary","B","53.25","8","8","0","A","B","75","71","",""
"","","","","","html-keyboard-response","50","162343","0.0-6.0-0.22","038","null","<p style=""text-align: center;"">+</p>","null","fixation","","","","","","","","","","",""
"","","","","","html-keyboard-response","51","164064","0.0-6.0-1.22","038","1719","
                    <p class=""lotteries"">
                      <span><img src='img/A.png', width=""30""></span>
                      <span><img src='img/D.png', width=""30""></span>
                    </p>
                    <p class=""lotteries"">
                      <span>₪18</span>
                      <span>₪11</span>
                    </p>
                    <p class=""lotteries"">
                      <span>50%</span>
                      <span>25%</span>
                    </p>","a","binary","A","9","28","28","1","A","B","50","18","",""
"","","","","","html-keyboard-response","52","165488","0.0-6.0-0.23","038","null","<p style=""text-align: center;"">+</p>","null","fixation","","","","","","","","","","",""
"","","","","","html-keyboard-response","53","167816","0.0-6.0-1.23","038","2326","
                    <p class=""lotteries"">
                      <span><img src='img/A.png', width=""30""></span>
                      <span><img src='img/D.png', width=""30""></span>
                    </p>
                    <p class=""lotteries"">
                      <span>₪18</span>
                      <span>₪11</span>
                    </p>
                    <p class=""lotteries"">
                      <span>25%</span>
                      <span>45%</span>
                    </p>","d","binary","B","4.95","14","14","0","A","B","45","11","",""
"","","","","","html-keyboard-response","54","168738","0.0-6.0-0.24","038","null","<p style=""text-align: center;"">+</p>","null","fixation","","","","","","","","","","",""
"","","","","","html-keyboard-response","55","178560","0.0-6.0-1.24","038","9821","
                    <p class=""lotteries"">
                      <span><img src='img/A.png', width=""30""></span>
                      <span><img src='img/D.png', width=""30""></span>
                    </p>
                    <p class=""lotteries"">
                      <span>₪36</span>
                      <span>₪64</span>
                    </p>
                    <p class=""lotteries"">
                      <span>75%</span>
                      <span>50%</span>
                    </p>","a","binary","B","27","4","4","0","B","A","75","36","",""
"","","","","","html-keyboard-response","56","179284","0.0-6.0-0.25","038","null","<p style=""text-align: center;"">+</p>","null","fixation","","","","","","","","","","",""
"","","","","","html-keyboard-response","57","182368","0.0-6.0-1.25","038","3083","
                    <p class=""lotteries"">
                      <span><img src='img/A.png', width=""30""></span>
                      <span><img src='img/D.png', width=""30""></span>
                    </p>
                    <p class=""lotteries"">
                      <span>₪71</span>
                      <span>₪36</span>
                    </p>
                    <p class=""lotteries"">
                      <span>45%</span>
                      <span>75%</span>
                    </p>","a","binary","A","31.95","16","16","0","A","B","45","71","",""
"","","","","","html-keyboard-response","58","183569","0.0-6.0-0.26","038","null","<p style=""text-align: center;"">+</p>","null","fixation","","","","","","","","","","",""
"","","","","","html-keyboard-response","59","186621","0.0-6.0-1.26","038","3045","
                    <p class=""lotteries"">
                      <span><img src='img/A.png', width=""30""></span>
                      <span><img src='img/D.png', width=""30""></span>
                    </p>
                    <p class=""lotteries"">
                      <span>₪4</span>
                      <span>₪11</span>
                    </p>
                    <p class=""lotteries"">
                      <span>75%</span>
                      <span>25%</span>
                    </p>","d","binary","A","2.75","12","12","0","B","A","25","11","",""
"","","","","","html-keyboard-response","60","187433","0.0-6.0-0.27","038","null","<p style=""text-align: center;"">+</p>","null","fixation","","","","","","","","","","",""
"","","","","","html-keyboard-response","61","196549","0.0-6.0-1.27","038","9115","
                    <p class=""lotteries"">
                      <span><img src='img/A.png', width=""30""></span>
                      <span><img src='img/D.png', width=""30""></span>
                    </p>
                    <p class=""lotteries"">
                      <span>₪39</span>
                      <span>₪43</span>
                    </p>
                    <p class=""lotteries"">
                      <span>65%</span>
                      <span>60%</span>
                    </p>","a","binary","A","25.35","15","15","0","A","B","65","39","",""
"","","","","","html-keyboard-response","62","197212","0.0-6.0-0.28","038","null","<p style=""text-align: center;"">+</p>","null","fixation","","","","","","","","","","",""
"","","","","","html-keyboard-response","63","199502","0.0-6.0-1.28","038","2289","
                    <p class=""lotteries"">
                      <span><img src='img/A.png', width=""30""></span>
                      <span><img src='img/D.png', width=""30""></span>
                    </p>
                    <p class=""lotteries"">
                      <span>₪43</span>
                      <span>₪61</span>
                    </p>
                    <p class=""lotteries"">
                      <span>60%</span>
                      <span>55%</span>
                    </p>","a","binary","A","25.8","7","7","0","A","B","60","43","",""
"","","","","","html-keyboard-response","64","200050","0.0-6.0-0.29","038","null","<p style=""text-align: center;"">+</p>","null","fixation","","","","","","","","","","",""
"","","","","","html-keyboard-response","65","202925","0.0-6.0-1.29","038","2873","
                    <p class=""lotteries"">
                      <span><img src='img/A.png', width=""30""></span>
                      <span><img src='img/D.png', width=""30""></span>
                    </p>
                    <p class=""lotteries"">
                      <span>₪58</span>
                      <span>₪36</span>
                    </p>
                    <p class=""lotteries"">
                      <span>40%</span>
                      <span>75%</span>
                    </p>","d","binary","B","27","13","13","0","A","B","75","36","",""
"","","","","","html-keyboard-response","66","203936","0.0-7.0","038","null","<p style=""text-align: center;"">+</p>","null","fixation","","","","","","","","","","",""
"","","","","","html-keyboard-response","67","205685","0.0-8.0","038","1747","<p>הפסקה.
          <br>לחצו על רווח כדי להמשיך.</p>"," ","scan_wait","","","","","","","","","","",""
"","","","","","html-keyboard-response","68","206593","0.0-9.0-0.0","038","null","<p style=""text-align: center;"">+</p>","null","fixation","","","","","","","","","","",""
"","","","","","html-keyboard-response","69","208997","0.0-9.0-1.0","038","2403","
                    <p class=""lotteries"">
                      <span><img src='img/A.png', width=""30""></span>
                      <span><img src='img/D.png', width=""30""></span>
                    </p>
                    <p class=""lotteries"">
                      <span>₪36</span>
                      <span>₪64</span>
                    </p>
                    <p class=""lotteries"">
                      <span>75%</span>
                      <span>50%</span>
                    </p>","a","binary","B","27","4","4","0","B","A","75","36","",""
"","","","","","html-keyboard-response","70","210316","0.0-9.0-0.1","038","null","<p style=""text-align: center;"">+</p>","null","fixation","","","","","","","","","","",""
"","","","","","html-keyboard-response","71","212341","0.0-9.0-1.1","038","2024","
                    <p class=""lotteries"">
                      <span><img src='img/A.png', width=""30""></span>
                      <span><img src='img/D.png', width=""30""></span>
                    </p>
                    <p class=""lotteries"">
                      <span>₪58</span>
                      <span>₪64</span>
                    </p>
                    <p class=""lotteries"">
                      <span>40%</span>
                      <span>25%</span>
                    </p>","a","binary","B","23.2","21","21","0","B","A","40","58","",""
"","","","","","html-keyboard-response","72","213665","0.0-9.0-0.2","038","null","<p style=""text-align: center;"">+</p>","null","fixation","","","","","","","","","","",""
"","","","","","html-keyboard-response","73","217973","0.0-9.0-1.2","038","4308","
                    <p class=""lotteries"">
                      <span><img src='img/A.png', width=""30""></span>
                      <span><img src='img/D.png', width=""30""></span>
                    </p>
                    <p class=""lotteries"">
                      <span>₪43</span>
                      <span>₪79</span>
                    </p>
                    <p class=""lotteries"">
                      <span>60%</span>
                      <span>40%</span>
                    </p>","a","binary","A","25.8","9","9","0","A","B","60","43","",""
"","","","","","html-keyboard-response","74","219251","0.0-9.0-0.3","038","null","<p style=""text-align: center;"">+</p>","null","fixation","","","","","","","","","","",""
"","","","","","html-keyboard-response","75","228077","0.0-9.0-1.3","038","8825","
                    <p class=""lotteries"">
                      <span><img src='img/A.png', width=""30""></span>
                      <span><img src='img/D.png', width=""30""></span>
                    </p>
                    <p class=""lotteries"">
                      <span>₪43</span>
                      <span>₪71</span>
                    </p>
                    <p class=""lotteries"">
                      <span>60%</span>
                      <span>45%</span>
                    </p>","a","binary","A","25.8","2","2","0","A","B","60","43","",""
"","","","","","html-keyboard-response","76","229338","0.0-9.0-0.4","038","null","<p style=""text-align: center;"">+</p>","null","fixation","","","","","","","","","","",""
"","","","","","html-keyboard-response","77","234486","0.0-9.0-1.4","038","5147","
                    <p class=""lotteries"">
                      <span><img src='img/A.png', width=""30""></span>
                      <span><img src='img/D.png', width=""30""></span>
                    </p>
                    <p class=""lotteries"">
                      <span>₪43</span>
                      <span>₪76</span>
                    </p>
                    <p class=""lotteries"">
                      <span>75%</span>
                      <span>65%</span>
                    </p>","a","binary","A","32.25","24","24","0","A","B","75","43","",""
"","","","","","html-keyboard-response","78","235690","0.0-9.0-0.5","038","null","<p style=""text-align: center;"">+</p>","null","fixation","","","","","","","","","","",""
"","","","","","html-keyboard-response","79","244573","0.0-9.0-1.5","038","8882","
                    <p class=""lotteries"">
                      <span><img src='img/A.png', width=""30""></span>
                      <span><img src='img/D.png', width=""30""></span>
                    </p>
                    <p class=""lotteries"">
                      <span>₪43</span>
                      <span>₪39</span>
                    </p>
                    <p class=""lotteries"">
                      <span>60%</span>
                      <span>65%</span>
                    </p>","a","binary","B","25.8","15","15","0","B","A","60","43","",""
"","","","","","html-keyboard-response","80","245101","0.0-9.0-0.6","038","null","<p style=""text-align: center;"">+</p>","null","fixation","","","","","","","","","","",""
"","","","","","html-keyboard-response","81","250200","0.0-9.0-1.6","038","5096","
                    <p class=""lotteries"">
                      <span><img src='img/A.png', width=""30""></span>
                      <span><img src='img/D.png', width=""30""></span>
                    </p>
                    <p class=""lotteries"">
                      <span>₪18</span>
                      <span>₪11</span>
                    </p>
                    <p class=""lotteries"">
                      <span>50%</span>
                      <span>25%</span>
                    </p>","a","binary","A","9","28","28","1","A","B","50","18","",""
"","","","","","html-keyboard-response","82","251407","0.0-9.0-0.7","038","null","<p style=""text-align: center;"">+</p>","null","fixation","","","","","","","","","","",""
"","","","","","html-keyboard-response","83","265719","0.0-9.0-1.7","038","14311","
                    <p class=""lotteries"">
                      <span><img src='img/A.png', width=""30""></span>
                      <span><img src='img/D.png', width=""30""></span>
                    </p>
                    <p class=""lotteries"">
                      <span>₪11</span>
                      <span>₪18</span>
                    </p>
                    <p class=""lotteries"">
                      <span>45%</span>
                      <span>25%</span>
                    </p>","a","binary","B","4.95","14","14","0","B","A","45","11","",""
"","","","","","html-keyboard-response","84","266798","0.0-9.0-0.8","038","null","<p style=""text-align: center;"">+</p>","null","fixation","","","","","","","","","","",""
"","","","","","html-keyboard-response","85","269087","0.0-9.0-1.8","038","2287","
                    <p class=""lotteries"">
                      <span><img src='img/A.png', width=""30""></span>
                      <span><img src='img/D.png', width=""30""></span>
                    </p>
                    <p class=""lotteries"">
                      <span>₪4</span>
                      <span>₪11</span>
                    </p>
                    <p class=""lotteries"">
                      <span>25%</span>
                      <span>75%</span>
                    </p>","d","binary","A","8.25","29","29","1","B","A","75","11","",""
"","","","","","html-keyboard-response","86","270446","0.0-9.0-0.9","038","null","<p style=""text-align: center;"">+</p>","null","fixation","","","","","","","","","","",""
"","","","","","html-keyboard-response","87","273662","0.0-9.0-1.9","038","3215","
                    <p class=""lotteries"">
                      <span><img src='img/A.png', width=""30""></span>
                      <span><img src='img/D.png', width=""30""></span>
                    </p>
                    <p class=""lotteries"">
                      <span>₪64</span>
                      <span>₪39</span>
                    </p>
                    <p class=""lotteries"">
                      <span>50%</span>
                      <span>65%</span>
                    </p>","d","binary","A","25.35","1","1","0","B","A","65","39","",""
"","","","","","html-keyboard-response","88","274560","0.0-9.0-0.10","038","null","<p style=""text-align: center;"">+</p>","null","fixation","","","","","","","","","","",""
"","","","","","html-keyboard-response","89","279455","0.0-9.0-1.10","038","4894","
                    <p class=""lotteries"">
                      <span><img src='img/A.png', width=""30""></span>
                      <span><img src='img/D.png', width=""30""></span>
                    </p>
                    <p class=""lotteries"">
                      <span>₪39</span>
                      <span>₪58</span>
                    </p>
                    <p class=""lotteries"">
                      <span>60%</span>
                      <span>45%</span>
                    </p>","a","binary","B","23.4","25","25","0","B","A","60","39","",""
"","","","","","html-keyboard-response","90","280281","0.0-9.0-0.11","038","null","<p style=""text-align: center;"">+</p>","null","fixation","","","","","","","","","","",""
"","","","","","html-keyboard-response","91","281774","0.0-9.0-1.11","038","1492","
                    <p class=""lotteries"">
                      <span><img src='img/A.png', width=""30""></span>
                      <span><img src='img/D.png', width=""30""></span>
                    </p>
                    <p class=""lotteries"">
                      <span>₪58</span>
                      <span>₪11</span>
                    </p>
                    <p class=""lotteries"">
                      <span>30%</span>
                      <span>25%</span>
                    </p>","a","binary","A","17.4","30","30","1","A","B","30","58","",""
"","","","","","html-keyboard-response","92","282332","0.0-9.0-0.12","038","null","<p style=""text-align: center;"">+</p>","null","fixation","","","","","","","","","","",""
"","","","","","html-keyboard-response","93","283606","0.0-9.0-1.12","038","1273","
                    <p class=""lotteries"">
                      <span><img src='img/A.png', width=""30""></span>
                      <span><img src='img/D.png', width=""30""></span>
                    </p>
                    <p class=""lotteries"">
                      <span>₪61</span>
                      <span>₪36</span>
                    </p>
                    <p class=""lotteries"">
                      <span>45%</span>
                      <span>70%</span>
                    </p>","d","binary","B","25.2","10","10","0","A","B","70","36","",""
"","","","","","html-keyboard-response","94","285009","0.0-9.0-0.13","038","null","<p style=""text-align: center;"">+</p>","null","fixation","","","","","","","","","","",""
"","","","","","html-keyboard-response","95","288254","0.0-9.0-1.13","038","3244","
                    <p class=""lotteries"">
                      <span><img src='img/A.png', width=""30""></span>
                      <span><img src='img/D.png', width=""30""></span>
                    </p>
                    <p class=""lotteries"">
                      <span>₪76</span>
                      <span>₪43</span>
                    </p>
                    <p class=""lotteries"">
                      <span>65%</span>
                      <span>75%</span>
                    </p>","d","binary","B","32.25","19","19","0","A","B","75","43","",""
"","","","","","html-keyboard-response","96","289597","0.0-9.0-0.14","038","null","<p style=""text-align: center;"">+</p>","null","fixation","","","","","","","","","","",""
"","","","","","html-keyboard-response","97","291990","0.0-9.0-1.14","038","2392","
                    <p class=""lotteries"">
                      <span><img src='img/A.png', width=""30""></span>
                      <span><img src='img/D.png', width=""30""></span>
                    </p>
                    <p class=""lotteries"">
                      <span>₪4</span>
                      <span>₪18</span>
                    </p>
                    <p class=""lotteries"">
                      <span>75%</span>
                      <span>25%</span>
                    </p>","d","binary","A","4.5","23","23","0","B","A","25","18","",""
"","","","","","html-keyboard-response","98","293033","0.0-9.0-0.15","038","null","<p style=""text-align: center;"">+</p>","null","fixation","","","","","","","","","","",""
"","","","","","html-keyboard-response","99","295679","0.0-9.0-1.15","038","2645","
                    <p class=""lotteries"">
                      <span><img src='img/A.png', width=""30""></span>
                      <span><img src='img/D.png', width=""30""></span>
                    </p>
                    <p class=""lotteries"">
                      <span>₪11</span>
                      <span>₪64</span>
                    </p>
                    <p class=""lotteries"">
                      <span>75%</span>
                      <span>25%</span>
                    </p>","a","binary","B","8.25","6","6","0","B","A","75","11","",""
"","","","","","html-keyboard-response","100","296545","0.0-9.0-0.16","038","null","<p style=""text-align: center;"">+</p>","null","fixation","","","","","","","","","","",""
"","","","","","html-keyboard-response","101","300751","0.0-9.0-1.16","038","4204","
                    <p class=""lotteries"">
                      <span><img src='img/A.png', width=""30""></span>
                      <span><img src='img/D.png', width=""30""></span>
                    </p>
                    <p class=""lotteries"">
                      <span>₪43</span>
                      <span>₪61</span>
                    </p>
                    <p class=""lotteries"">
                      <span>75%</span>
                      <span>55%</span>
                    </p>","a","binary","A","32.25","26","26","0","A","B","75","43","",""
"","","","","","html-keyboard-response","102","301642","0.0-9.0-0.17","038","null","<p style=""text-align: center;"">+</p>","null","fixation","","","","","","","","","","",""
"","","","","","html-keyboard-response","103","305630","0.0-9.0-1.17","038","3987","
                    <p class=""lotteries"">
                      <span><img src='img/A.png', width=""30""></span>
                      <span><img src='img/D.png', width=""30""></span>
                    </p>
                    <p class=""lotteries"">
                      <span>₪36</span>
                      <span>₪71</span>
                    </p>
                    <p class=""lotteries"">
                      <span>75%</span>
                      <span>55%</span>
                    </p>","d","binary","B","39.05","5","5","0","A","B","55","71","",""
"","","","","","html-keyboard-response","104","306699","0.0-9.0-0.18","038","null","<p style=""text-align: center;"">+</p>","null","fixation","","","","","","","","","","",""
"","","","","","html-keyboard-response","105","310860","0.0-9.0-1.18","038","4164","
                    <p class=""lotteries"">
                      <span><img src='img/A.png', width=""30""></span>
                      <span><img src='img/D.png', width=""30""></span>
                    </p>
                    <p class=""lotteries"">
                      <span>₪43</span>
                      <span>₪61</span>
                    </p>
                    <p class=""lotteries"">
                      <span>75%</span>
                      <span>45%</span>
                    </p>","a","binary","B","32.25","11","11","0","B","A","75","43","",""
"","","","","","html-keyboard-response","106","311787","0.0-9.0-0.19","038","null","<p style=""text-align: center;"">+</p>","null","fixation","","","","","","","","","","",""
"","","","","","html-keyboard-response","107","313906","0.0-9.0-1.19","038","2118","
                    <p class=""lotteries"">
                      <span><img src='img/A.png', width=""30""></span>
                      <span><img src='img/D.png', width=""30""></span>
                    </p>
                    <p class=""lotteries"">
                      <span>₪11</span>
                      <span>₪16</span>
                    </p>
                    <p class=""lotteries"">
                      <span>25%</span>
                      <span>20%</span>
                    </p>","a","binary","B","2.75","27","27","0","B","A","25","11","",""
"","","","","","html-keyboard-response","108","314664","0.0-9.0-0.20","038","null","<p style=""text-align: center;"">+</p>","null","fixation","","","","","","","","","","",""
"","","","","","html-keyboard-response","109","318882","0.0-9.0-1.20","038","4216","
                    <p class=""lotteries"">
                      <span><img src='img/A.png', width=""30""></span>
                      <span><img src='img/D.png', width=""30""></span>
                    </p>
                    <p class=""lotteries"">
                      <span>₪43</span>
                      <span>₪61</span>
                    </p>
                    <p class=""lotteries"">
                      <span>60%</span>
                      <span>55%</span>
                    </p>","d","binary","B","33.55","7","7","0","A","B","55","61","",""
"","","","","","html-keyboard-response","110","319584","0.0-9.0-0.21","038","null","<p style=""text-align: center;"">+</p>","null","fixation","","","","","","","","","","",""
"","","","","","html-keyboard-response","111","324554","0.0-9.0-1.21","038","4969","
                    <p class=""lotteries"">
                      <span><img src='img/A.png', width=""30""></span>
                      <span><img src='img/D.png', width=""30""></span>
                    </p>
                    <p class=""lotteries"">
                      <span>₪36</span>
                      <span>₪71</span>
                    </p>
                    <p class=""lotteries"">
                      <span>75%</span>
                      <span>45%</span>
                    </p>","a","binary","B","27","16","16","0","B","A","75","36","",""
"","","","","","html-keyboard-response","112","325329","0.0-9.0-0.22","038","null","<p style=""text-align: center;"">+</p>","null","fixation","","","","","","","","","","",""
"","","","","","html-keyboard-response","113","332154","0.0-9.0-1.22","038","6824","
                    <p class=""lotteries"">
                      <span><img src='img/A.png', width=""30""></span>
                      <span><img src='img/D.png', width=""30""></span>
                    </p>
                    <p class=""lotteries"">
                      <span>₪4</span>
                      <span>₪11</span>
                    </p>
                    <p class=""lotteries"">
                      <span>75%</span>
                      <span>25%</span>
                    </p>","a","binary","B","3","12","12","0","B","A","75","4","",""
"","","","","","html-keyboard-response","114","333568","0.0-9.0-0.23","038","null","<p style=""text-align: center;"">+</p>","null","fixation","","","","","","","","","","",""
"","","","","","html-keyboard-response","115","339634","0.0-9.0-1.23","038","6064","
                    <p class=""lotteries"">
                      <span><img src='img/A.png', width=""30""></span>
                      <span><img src='img/D.png', width=""30""></span>
                    </p>
                    <p class=""lotteries"">
                      <span>₪36</span>
                      <span>₪18</span>
                    </p>
                    <p class=""lotteries"">
                      <span>30%</span>
                      <span>50%</span>
                    </p>","d","binary","B","9","22","22","0","A","B","50","18","",""
"","","","","","html-keyboard-response","116","340193","0.0-9.0-0.24","038","null","<p style=""text-align: center;"">+</p>","null","fixation","","","","","","","","","","",""
"","","","","","html-keyboard-response","117","341634","0.0-9.0-1.24","038","1440","
                    <p class=""lotteries"">
                      <span><img src='img/A.png', width=""30""></span>
                      <span><img src='img/D.png', width=""30""></span>
                    </p>
                    <p class=""lotteries"">
                      <span>₪16</span>
                      <span>₪4</span>
                    </p>
                    <p class=""lotteries"">
                      <span>20%</span>
                      <span>50%</span>
                    </p>","a","binary","A","3.2","17","17","0","A","B","20","16","",""
"","","","","","html-keyboard-response","118","342723","0.0-9.0-0.25","038","null","<p style=""text-align: center;"">+</p>","null","fixation","","","","","","","","","","",""
"","","","","","html-keyboard-response","119","348762","0.0-9.0-1.25","038","6037","
                    <p class=""lotteries"">
                      <span><img src='img/A.png', width=""30""></span>
                      <span><img src='img/D.png', width=""30""></span>
                    </p>
                    <p class=""lotteries"">
                      <span>₪36</span>
                      <span>₪64</span>
                    </p>
                    <p class=""lotteries"">
                      <span>70%</span>
                      <span>50%</span>
                    </p>","a","binary","A","25.2","3","3","0","A","B","70","36","",""
"","","","","","html-keyboard-response","120","349669","0.0-9.0-0.26","038","null","<p style=""text-align: center;"">+</p>","null","fixation","","","","","","","","","","",""
"","","","","","html-keyboard-response","121","350898","0.0-9.0-1.26","038","1228","
                    <p class=""lotteries"">
                      <span><img src='img/A.png', width=""30""></span>
                      <span><img src='img/D.png', width=""30""></span>
                    </p>
                    <p class=""lotteries"">
                      <span>₪71</span>
                      <span>₪79</span>
                    </p>
                    <p class=""lotteries"">
                      <span>75%</span>
                      <span>65%</span>
                    </p>","a","binary","B","53.25","8","8","0","B","A","75","71","",""
"","","","","","html-keyboard-response","122","351522","0.0-9.0-0.27","038","null","<p style=""text-align: center;"">+</p>","null","fixation","","","","","","","","","","",""
"","","","","","html-keyboard-response","123","353914","0.0-9.0-1.27","038","2391","
                    <p class=""lotteries"">
                      <span><img src='img/A.png', width=""30""></span>
                      <span><img src='img/D.png', width=""30""></span>
                    </p>
                    <p class=""lotteries"">
                      <span>₪71</span>
                      <span>₪11</span>
                    </p>
                    <p class=""lotteries"">
                      <span>55%</span>
                      <span>75%</span>
                    </p>","a","binary","A","39.05","18","18","0","A","B","55","71","",""
"","","","","","html-keyboard-response","124","355288","0.0-9.0-0.28","038","null","<p style=""text-align: center;"">+</p>","null","fixation","","","","","","","","","","",""
"","","","","","html-keyboard-response","125","357474","0.0-9.0-1.28","038","2185","
                    <p class=""lotteries"">
                      <span><img src='img/A.png', width=""30""></span>
                      <span><img src='img/D.png', width=""30""></span>
                    </p>
                    <p class=""lotteries"">
                      <span>₪36</span>
                      <span>₪58</span>
                    </p>
                    <p class=""lotteries"">
                      <span>75%</span>
                      <span>40%</span>
                    </p>","a","binary","B","27","13","13","0","B","A","75","36","",""
"","","","","","html-keyboard-response","126","358106","0.0-9.0-0.29","038","null","<p style=""text-align: center;"">+</p>","null","fixation","","","","","","","","","","",""
"","","","","","html-keyboard-response","127","366986","0.0-9.0-1.29","038","8878","
                    <p class=""lotteries"">
                      <span><img src='img/A.png', width=""30""></span>
                      <span><img src='img/D.png', width=""30""></span>
                    </p>
                    <p class=""lotteries"">
                      <span>₪36</span>
                      <span>₪4</span>
                    </p>
                    <p class=""lotteries"">
                      <span>30%</span>
                      <span>75%</span>
                    </p>","d","binary","B","3","20","20","0","A","B","75","4","",""
"","","","","","html-keyboard-response","128","367994","0.0-10.0","038","null","<p style=""text-align: center;"">+</p>","null","fixation","","","","","","","","","","",""
"","","","","","html-keyboard-response","129","369322","0.0-11.0","038","1326","<p>הפסקה.
          <br>לחצו על רווח כדי להמשיך.</p>"," ","scan_wait","","","","","","","","","","",""
"","","","","","html-keyboard-response","130","370329","0.0-12.0-0.0","038","null","<p style=""text-align: center;"">+</p>","null","fixation","","","","","","","","","","",""
"","","","","","html-keyboard-response","131","372429","0.0-12.0-1.0","038","2096","
                    <p class=""lotteries"">
                      <span><img src='img/A.png', width=""30""></span>
                      <span><img src='img/D.png', width=""30""></span>
                    </p>
                    <p class=""lotteries"">
                      <span>₪4</span>
                      <span>₪36</span>
                    </p>
                    <p class=""lotteries"">
                      <span>75%</span>
                      <span>30%</span>
                    </p>","a","binary","B","3","20","20","0","B","A","75","4","",""
"","","","","","html-keyboard-response","132","373135","0.0-12.0-0.1","038","null","<p style=""text-align: center;"">+</p>","null","fixation","","","","","","","","","","",""
"","","","","","html-keyboard-response","133","375229","0.0-12.0-1.1","038","2093","
                    <p class=""lotteries"">
                      <span><img src='img/A.png', width=""30""></span>
                      <span><img src='img/D.png', width=""30""></span>
                    </p>
                    <p class=""lotteries"">
                      <span>₪4</span>
                      <span>₪16</span>
                    </p>
                    <p class=""lotteries"">
                      <span>50%</span>
                      <span>20%</span>
                    </p>","d","binary","A","3.2","17","17","0","B","A","20","16","",""
"","","","","","html-keyboard-response","134","376141","0.0-12.0-0.2","038","null","<p style=""text-align: center;"">+</p>","null","fixation","","","","","","","","","","",""
"","","","","","html-keyboard-response","135","379277","0.0-12.0-1.2","038","3135","
                    <p class=""lotteries"">
                      <span><img src='img/A.png', width=""30""></span>
                      <span><img src='img/D.png', width=""30""></span>
                    </p>
                    <p class=""lotteries"">
                      <span>₪36</span>
                      <span>₪64</span>
                    </p>
                    <p class=""lotteries"">
                      <span>70%</span>
                      <span>50%</span>
                    </p>","a","binary","A","25.2","3","3","0","A","B","70","36","",""
"","","","","","html-keyboard-response","136","380034","0.0-12.0-0.3","038","null","<p style=""text-align: center;"">+</p>","null","fixation","","","","","","","","","","",""
"","","","","","html-keyboard-response","137","383589","0.0-12.0-1.3","038","3554","
                    <p class=""lotteries"">
                      <span><img src='img/A.png', width=""30""></span>
                      <span><img src='img/D.png', width=""30""></span>
                    </p>
                    <p class=""lotteries"">
                      <span>₪11</span>
                      <span>₪16</span>
                    </p>
                    <p class=""lotteries"">
                      <span>25%</span>
                      <span>20%</span>
                    </p>","a","binary","B","2.75","27","27","0","B","A","25","11","",""
"","","","","","html-keyboard-response","138","384691","0.0-12.0-0.4","038","null","<p style=""text-align: center;"">+</p>","null","fixation","","","","","","","","","","",""
"","","","","","html-keyboard-response","139","388037","0.0-12.0-1.4","038","3345","
                    <p class=""lotteries"">
                      <span><img src='img/A.png', width=""30""></span>
                      <span><img src='img/D.png', width=""30""></span>
                    </p>
                    <p class=""lotteries"">
                      <span>₪43</span>
                      <span>₪76</span>
                    </p>
                    <p class=""lotteries"">
                      <span>75%</span>
                      <span>65%</span>
                    </p>","d","binary","B","49.4","24","24","0","A","B","65","76","",""
"","","","","","html-keyboard-response","140","389204","0.0-12.0-0.5","038","null","<p style=""text-align: center;"">+</p>","null","fixation","","","","","","","","","","",""
"","","","","","html-keyboard-response","141","390885","0.0-12.0-1.5","038","1680","
                    <p class=""lotteries"">
                      <span><img src='img/A.png', width=""30""></span>
                      <span><img src='img/D.png', width=""30""></span>
                    </p>
                    <p class=""lotteries"">
                      <span>₪71</span>
                      <span>₪36</span>
                    </p>
                    <p class=""lotteries"">
                      <span>55%</span>
                      <span>75%</span>
                    </p>","d","binary","A","27","5","5","0","B","A","75","36","",""
"","","","","","html-keyboard-response","142","391663","0.0-12.0-0.6","038","null","<p style=""text-align: center;"">+</p>","null","fixation","","","","","","","","","","",""
"","","","","","html-keyboard-response","143","395854","0.0-12.0-1.6","038","4189","
                    <p class=""lotteries"">
                      <span><img src='img/A.png', width=""30""></span>
                      <span><img src='img/D.png', width=""30""></span>
                    </p>
                    <p class=""lotteries"">
                      <span>₪58</span>
                      <span>₪11</span>
                    </p>
                    <p class=""lotteries"">
                      <span>30%</span>
                      <span>25%</span>
                    </p>","a","binary","A","17.4","30","30","1","A","B","30","58","",""
"","","","","","html-keyboard-response","144","397270","0.0-12.0-0.7","038","null","<p style=""text-align: center;"">+</p>","null","fixation","","","","","","","","","","",""
"","","","","","html-keyboard-response","145","399877","0.0-12.0-1.7","038","2606","
                    <p class=""lotteries"">
                      <span><img src='img/A.png', width=""30""></span>
                      <span><img src='img/D.png', width=""30""></span>
                    </p>
                    <p class=""lotteries"">
                      <span>₪71</span>
                      <span>₪79</span>
                    </p>
                    <p class=""lotteries"">
                      <span>75%</span>
                      <span>65%</span>
                    </p>","a","binary","B","53.25","8","8","0","B","A","75","71","",""
"","","","","","html-keyboard-response","146","401039","0.0-12.0-0.8","038","null","<p style=""text-align: center;"">+</p>","null","fixation","","","","","","","","","","",""
"","","","","","html-keyboard-response","147","403965","0.0-12.0-1.8","038","2925","
                    <p class=""lotteries"">
                      <span><img src='img/A.png', width=""30""></span>
                      <span><img src='img/D.png', width=""30""></span>
                    </p>
                    <p class=""lotteries"">
                      <span>₪43</span>
                      <span>₪76</span>
                    </p>
                    <p class=""lotteries"">
                      <span>75%</span>
                      <span>65%</span>
                    </p>","d","binary","A","49.4","19","19","0","B","A","65","76","",""
"","","","","","html-keyboard-response","148","404887","0.0-12.0-0.9","038","null","<p style=""text-align: center;"">+</p>","null","fixation","","","","","","","","","","",""
"","","","","","html-keyboard-response","149","407806","0.0-12.0-1.9","038","2918","
                    <p class=""lotteries"">
                      <span><img src='img/A.png', width=""30""></span>
                      <span><img src='img/D.png', width=""30""></span>
                    </p>
                    <p class=""lotteries"">
                      <span>₪4</span>
                      <span>₪11</span>
                    </p>
                    <p class=""lotteries"">
                      <span>75%</span>
                      <span>25%</span>
                    </p>","a","binary","B","3","12","12","0","B","A","75","4","",""
"","","","","","html-keyboard-response","150","408360","0.0-12.0-0.10","038","null","<p style=""text-align: center;"">+</p>","null","fixation","","","","","","","","","","",""
"","","","","","html-keyboard-response","151","412791","0.0-12.0-1.10","038","4429","
                    <p class=""lotteries"">
                      <span><img src='img/A.png', width=""30""></span>
                      <span><img src='img/D.png', width=""30""></span>
                    </p>
                    <p class=""lotteries"">
                      <span>₪58</span>
                      <span>₪36</span>
                    </p>
                    <p class=""lotteries"">
                      <span>40%</span>
                      <span>75%</span>
                    </p>","d","binary","B","27","13","13","0","A","B","75","36","",""
"","","","","","html-keyboard-response","152","413407","0.0-12.0-0.11","038","null","<p style=""text-align: center;"">+</p>","null","fixation","","","","","","","","","","",""
"","","","","","html-keyboard-response","153","415069","0.0-12.0-1.11","038","1662","
                    <p class=""lotteries"">
                      <span><img src='img/A.png', width=""30""></span>
                      <span><img src='img/D.png', width=""30""></span>
                    </p>
                    <p class=""lotteries"">
                      <span>₪64</span>
                      <span>₪36</span>
                    </p>
                    <p class=""lotteries"">
                      <span>50%</span>
                      <span>75%</span>
                    </p>","a","binary","A","32","4","4","0","A","B","50","64","",""
"","","","","","html-keyboard-response","154","416440","0.0-12.0-0.12","038","null","<p style=""text-align: center;"">+</p>","null","fixation","","","","","","","","","","",""
"","","","","","html-keyboard-response","155","418237","0.0-12.0-1.12","038","1796","
                    <p class=""lotteries"">
                      <span><img src='img/A.png', width=""30""></span>
                      <span><img src='img/D.png', width=""30""></span>
                    </p>
                    <p class=""lotteries"">
                      <span>₪18</span>
                      <span>₪36</span>
                    </p>
                    <p class=""lotteries"">
                      <span>50%</span>
                      <span>30%</span>
                    </p>","a","binary","B","9","22","22","0","B","A","50","18","",""
"","","","","","html-keyboard-response","156","419685","0.0-12.0-0.13","038","null","<p style=""text-align: center;"">+</p>","null","fixation","","","","","","","","","","",""
"","","","","","html-keyboard-response","157","428101","0.0-12.0-1.13","038","8414","
                    <p class=""lotteries"">
                      <span><img src='img/A.png', width=""30""></span>
                      <span><img src='img/D.png', width=""30""></span>
                    </p>
                    <p class=""lotteries"">
                      <span>₪58</span>
                      <span>₪64</span>
                    </p>
                    <p class=""lotteries"">
                      <span>40%</span>
                      <span>25%</span>
                    </p>","d","binary","A","16","21","21","0","B","A","25","64","",""
"","","","","","html-keyboard-response","158","428848","0.0-12.0-0.14","038","null","<p style=""text-align: center;"">+</p>","null","fixation","","","","","","","","","","",""
"","","","","","html-keyboard-response","159","433429","0.0-12.0-1.14","038","4581","
                    <p class=""lotteries"">
                      <span><img src='img/A.png', width=""30""></span>
                      <span><img src='img/D.png', width=""30""></span>
                    </p>
                    <p class=""lotteries"">
                      <span>₪61</span>
                      <span>₪43</span>
                    </p>
                    <p class=""lotteries"">
                      <span>45%</span>
                      <span>75%</span>
                    </p>","d","binary","B","32.25","11","11","0","A","B","75","43","",""
"","","","","","html-keyboard-response","160","434790","0.0-12.0-0.15","038","null","<p style=""text-align: center;"">+</p>","null","fixation","","","","","","","","","","",""
"","","","","","html-keyboard-response","161","439237","0.0-12.0-1.15","038","4445","
                    <p class=""lotteries"">
                      <span><img src='img/A.png', width=""30""></span>
                      <span><img src='img/D.png', width=""30""></span>
                    </p>
                    <p class=""lotteries"">
                      <span>₪11</span>
                      <span>₪18</span>
                    </p>
                    <p class=""lotteries"">
                      <span>25%</span>
                      <span>50%</span>
                    </p>","d","binary","A","9","28","28","1","B","A","50","18","",""
"","","","","","html-keyboard-response","162","440542","0.0-12.0-0.16","038","null","<p style=""text-align: center;"">+</p>","null","fixation","","","","","","","","","","",""
"","","","","","html-keyboard-response","163","443204","0.0-12.0-1.16","038","2661","
                    <p class=""lotteries"">
                      <span><img src='img/A.png', width=""30""></span>
                      <span><img src='img/D.png', width=""30""></span>
                    </p>
                    <p class=""lotteries"">
                      <span>₪39</span>
                      <span>₪64</span>
                    </p>
                    <p class=""lotteries"">
                      <span>65%</span>
                      <span>50%</span>
                    </p>","d","binary","B","32","1","1","0","A","B","50","64","",""
"","","","","","html-keyboard-response","164","444511","0.0-12.0-0.17","038","null","<p style=""text-align: center;"">+</p>","null","fixation","","","","","","","","","","",""
"","","","","","html-keyboard-response","165","446876","0.0-12.0-1.17","038","2364","
                    <p class=""lotteries"">
                      <span><img src='img/A.png', width=""30""></span>
                      <span><img src='img/D.png', width=""30""></span>
                    </p>
                    <p class=""lotteries"">
                      <span>₪64</span>
                      <span>₪11</span>
                    </p>
                    <p class=""lotteries"">
                      <span>25%</span>
                      <span>75%</span>
                    </p>","d","binary","B","8.25","6","6","0","A","B","75","11","",""
"","","","","","html-keyboard-response","166","448285","0.0-12.0-0.18","038","null","<p style=""text-align: center;"">+</p>","null","fixation","","","","","","","","","","",""
"","","","","","html-keyboard-response","167","454468","0.0-12.0-1.18","038","6182","
                    <p class=""lotteries"">
                      <span><img src='img/A.png', width=""30""></span>
                      <span><img src='img/D.png', width=""30""></span>
                    </p>
                    <p class=""lotteries"">
                      <span>₪79</span>
                      <span>₪43</span>
                    </p>
                    <p class=""lotteries"">
                      <span>40%</span>
                      <span>60%</span>
                    </p>","d","binary","A","25.8","9","9","0","B","A","60","43","",""
"","","","","","html-keyboard-response","168","455056","0.0-12.0-0.19","038","null","<p style=""text-align: center;"">+</p>","null","fixation","","","","","","","","","","",""
"","","","","","html-keyboard-response","169","457468","0.0-12.0-1.19","038","2411","
                    <p class=""lotteries"">
                      <span><img src='img/A.png', width=""30""></span>
                      <span><img src='img/D.png', width=""30""></span>
                    </p>
                    <p class=""lotteries"">
                      <span>₪11</span>
                      <span>₪18</span>
                    </p>
                    <p class=""lotteries"">
                      <span>45%</span>
                      <span>25%</span>
                    </p>","a","binary","B","4.95","14","14","0","B","A","45","11","",""
"","","","","","html-keyboard-response","170","458040","0.0-12.0-0.20","038","null","<p style=""text-align: center;"">+</p>","null","fixation","","","","","","","","","","",""
"","","","","","html-keyboard-response","171","459917","0.0-12.0-1.20","038","1875","
                    <p class=""lotteries"">
                      <span><img src='img/A.png', width=""30""></span>
                      <span><img src='img/D.png', width=""30""></span>
                    </p>
                    <p class=""lotteries"">
                      <span>₪4</span>
                      <span>₪11</span>
                    </p>
                    <p class=""lotteries"">
                      <span>25%</span>
                      <span>75%</span>
                    </p>","d","binary","A","8.25","29","29","1","B","A","75","11","",""
"","","","","","html-keyboard-response","172","460616","0.0-12.0-0.21","038","null","<p style=""text-align: center;"">+</p>","null","fixation","","","","","","","","","","",""
"","","","","","html-keyboard-response","173","462508","0.0-12.0-1.21","038","1891","
                    <p class=""lotteries"">
                      <span><img src='img/A.png', width=""30""></span>
                      <span><img src='img/D.png', width=""30""></span>
                    </p>
                    <p class=""lotteries"">
                      <span>₪39</span>
                      <span>₪58</span>
                    </p>
                    <p class=""lotteries"">
                      <span>60%</span>
                      <span>45%</span>
                    </p>","a","binary","B","23.4","25","25","0","B","A","60","39","",""
"","","","","","html-keyboard-response","174","463856","0.0-12.0-0.22","038","null","<p style=""text-align: center;"">+</p>","null","fixation","","","","","","","","","","",""
"","","","","","html-keyboard-response","175","465748","0.0-12.0-1.22","038","1891","
                    <p class=""lotteries"">
                      <span><img src='img/A.png', width=""30""></span>
                      <span><img src='img/D.png', width=""30""></span>
                    </p>
                    <p class=""lotteries"">
                      <span>₪36</span>
                      <span>₪61</span>
                    </p>
                    <p class=""lotteries"">
                      <span>70%</span>
                      <span>45%</span>
                    </p>","d","binary","A","27.45","10","10","0","B","A","45","61","",""
"","","","","","html-keyboard-response","176","466745","0.0-12.0-0.23","038","null","<p style=""text-align: center;"">+</p>","null","fixation","","","","","","","","","","",""
"","","","","","html-keyboard-response","177","468484","0.0-12.0-1.23","038","1738","
                    <p class=""lotteries"">
                      <span><img src='img/A.png', width=""30""></span>
                      <span><img src='img/D.png', width=""30""></span>
                    </p>
                    <p class=""lotteries"">
                      <span>₪43</span>
                      <span>₪61</span>
                    </p>
                    <p class=""lotteries"">
                      <span>75%</span>
                      <span>55%</span>
                    </p>","a","binary","A","32.25","26","26","0","A","B","75","43","",""
"","","","","","html-keyboard-response","178","469104","0.0-12.0-0.24","038","null","<p style=""text-align: center;"">+</p>","null","fixation","","","","","","","","","","",""
"","","","","","html-keyboard-response","179","472797","0.0-12.0-1.24","038","3691","
                    <p class=""lotteries"">
                      <span><img src='img/A.png', width=""30""></span>
                      <span><img src='img/D.png', width=""30""></span>
                    </p>
                    <p class=""lotteries"">
                      <span>₪43</span>
                      <span>₪71</span>
                    </p>
                    <p class=""lotteries"">
                      <span>60%</span>
                      <span>45%</span>
                    </p>","d","binary","B","31.95","2","2","0","A","B","45","71","",""
"","","","","","html-keyboard-response","180","473561","0.0-12.0-0.25","038","null","<p style=""text-align: center;"">+</p>","null","fixation","","","","","","","","","","",""
"","","","","","html-keyboard-response","181","476620","0.0-12.0-1.25","038","3058","
                    <p class=""lotteries"">
                      <span><img src='img/A.png', width=""30""></span>
                      <span><img src='img/D.png', width=""30""></span>
                    </p>
                    <p class=""lotteries"">
                      <span>₪4</span>
                      <span>₪18</span>
                    </p>
                    <p class=""lotteries"">
                      <span>75%</span>
                      <span>25%</span>
                    </p>","d","binary","A","4.5","23","23","0","B","A","25","18","",""
"","","","","","html-keyboard-response","182","477830","0.0-12.0-0.26","038","null","<p style=""text-align: center;"">+</p>","null","fixation","","","","","","","","","","",""
"","","","","","html-keyboard-response","183","479796","0.0-12.0-1.26","038","1965","
                    <p class=""lotteries"">
                      <span><img src='img/A.png', width=""30""></span>
                      <span><img src='img/D.png', width=""30""></span>
                    </p>
                    <p class=""lotteries"">
                      <span>₪39</span>
                      <span>₪43</span>
                    </p>
                    <p class=""lotteries"">
                      <span>65%</span>
                      <span>60%</span>
                    </p>","d","binary","B","25.8","15","15","0","A","B","60","43","",""
"","","","","","html-keyboard-response","184","481030","0.0-12.0-0.27","038","null","<p style=""text-align: center;"">+</p>","null","fixation","","","","","","","","","","",""
"","","","","","html-keyboard-response","185","486916","0.0-12.0-1.27","038","5885","
                    <p class=""lotteries"">
                      <span><img src='img/A.png', width=""30""></span>
                      <span><img src='img/D.png', width=""30""></span>
                    </p>
                    <p class=""lotteries"">
                      <span>₪61</span>
                      <span>₪43</span>
                    </p>
                    <p class=""lotteries"">
                      <span>55%</span>
                      <span>60%</span>
                    </p>","a","binary","B","33.55","7","7","0","B","A","55","61","",""
"","","","","","html-keyboard-response","186","487645","0.0-12.0-0.28","038","null","<p style=""text-align: center;"">+</p>","null","fixation","","","","","","","","","","",""
"","","","","","html-keyboard-response","187","493993","0.0-12.0-1.28","038","6350","
                    <p class=""lotteries"">
                      <span><img src='img/A.png', width=""30""></span>
                      <span><img src='img/D.png', width=""30""></span>
                    </p>
                    <p class=""lotteries"">
                      <span>₪71</span>
                      <span>₪36</span>
                    </p>
                    <p class=""lotteries"">
                      <span>45%</span>
                      <span>75%</span>
                    </p>","a","binary","A","31.95","16","16","0","A","B","45","71","",""
"","","","","","html-keyboard-response","188","494758","0.0-12.0-0.29","038","null","<p style=""text-align: center;"">+</p>","null","fixation","","","","","","","","","","",""
"","","","","","html-keyboard-response","189","496649","0.0-12.0-1.29","038","1890","
                    <p class=""lotteries"">
                      <span><img src='img/A.png', width=""30""></span>
                      <span><img src='img/D.png', width=""30""></span>
                    </p>
                    <p class=""lotteries"">
                      <span>₪11</span>
                      <span>₪71</span>
                    </p>
                    <p class=""lotteries"">
                      <span>75%</span>
                      <span>55%</span>
                    </p>","a","binary","B","8.25","18","18","0","B","A","75","11","",""
"","","","","","html-keyboard-response","190","497657","0.0-13.0","038","null","<p style=""text-align: center;"">+</p>","null","fixation","","","","","","","","","","",""
"","","","","","html-keyboard-response","191","498362","0.0-14.0","038","null","","null","delay","","","","","","","","","","",""
"","","","","","html-keyboard-response","192","528930","0.0-15.0","038","30566","<h1>הסוף</h1>
        <p>אנו מודים לכם על ההשתתפות!
        <p>כעת נשחק את אחת ההגרלות שבחרתם, באחד משני החלקים.
        <br>אנא קראו לנו להרצת ההגרלות.</p>"," ","","","","","","","","","","","",""
"","","","","","survey","193","547842","0.0-16.0","038","18786","","{""Gender"":""נקבה"",""Hand"":""ימין"",""Glasses"":""לא"",""Age"":""25""}","","","","","","","","","","","","[]"
