"success","timeout","failed_images","failed_audio","failed_video","trial_type","trial_index","time_elapsed","internal_node_id","subject_id","rt","stimulus","response","part","actual_choice","actual_EV","binary_id","trinary_id","catch","A_key","D_key","choice_prob","choice_amount","chosen_part","accuracy"
"true","false","[]","[]","[]","preload","0","55","0.0-0.0","046","","","","","","","","","","","","","","",""
"","","","","","html-keyboard-response","1","760","0.0-1.0","046","null","","null","delay","","","","","","","","","","",""
"","","","","","html-keyboard-response","2","60039","0.0-2.0","046","59274","
          <h1>חלק 2</h1>
          <p>בחלק זה יוצגו בפניכם שתי הגרלות.
          <br>אתם מתבקשים לבחור את ההגרלה שתרצו להשתתף בה.
          <br>שימו לב! בסוף הניסוי נבחר שלב אחד באקראי ונממש את ההגרלה שבחרתם. כלומר, הבחירה שלכם יכולה להפוך לכסף אמיתי.
          <br><br>לחצו רווח כדי להמשיך.</p>"," ","instructions","","","","","","","","","","",""
"","","","","","html-keyboard-response","3","83629","0.0-3.0","046","22878","
          <p>בואו נתחיל בדוגמה:
          <br>לפניכם שתי הגרלות.
          <br>לחצו 'A' אם אתם מעדיפים את ההגרלה השמאלית
          <br>לחצו 'D' אם אתם מעדיפים את ההגרלה הימנית
          <p class=""lotteries"">
            <span><img src='img/A.png', width=""30""></span>
            <span><img src='img/D.png', width=""30""></span>
          </p>
          <p class=""lotteries"">
            <span>₪39</span>
            <span>₪54</span>
          </p>
          <p class=""lotteries"">
            <span>65%</span>
            <span>35%</span>
          </p>","a","example","","","","","","","","","","",""
"","","","","","html-keyboard-response","4","91460","0.0-4.0","046","7124","<p>יפה מאוד!
                  <br>בחרתם את ההגרלה השמאלית. נשמע נכון?
                  <br>בואו ננסה דוגמה נוספת:</p>
                  <p class=""lotteries"">
                    <span><img src='img/A.png', width=""30""></span>
                    <span><img src='img/D.png', width=""30""></span>
                  </p>
                  <p class=""lotteries"">
                    <span>₪29</span>
                    <span>₪43</span>
                  </p>
                  <p class=""lotteries"">
                    <span>30%</span>
                    <span>65%</span>
                  </p>","d","example","","","","","","","","","","",""
"","","","","","html-keyboard-response","5","99164","0.0-5.0","046","6997","<p>יפה. כעת בחרתם את ההגרלה הימנית. 
                  <br>מיד נתחיל בניסוי.
                  <br>אתם תראו זוגות של הגרלות ותתבקשו לבחור את ההגרלה המועדפת עליכם.
                  <br><br>לחצו רווח כדי להמשיך.</p>"," ","instructions","","","","","","","","","","",""
"","","","","","html-keyboard-response","6","100878","0.0-6.0-0.0","046","null","<p style=""text-align: center;"">+</p>","null","fixation","","","","","","","","","","",""
"","","","","","html-keyboard-response","7","114140","0.0-6.0-1.0","046","13258","
                    <p class=""lotteries"">
                      <span><img src='img/A.png', width=""30""></span>
                      <span><img src='img/D.png', width=""30""></span>
                    </p>
                    <p class=""lotteries"">
                      <span>₪71</span>
                      <span>₪36</span>
                    </p>
                    <p class=""lotteries"">
                      <span>55%</span>
                      <span>75%</span>
                    </p>","a","binary","B","39.05","5","5","0","B","A","55","71","",""
"","","","","","html-keyboard-response","8","114833","0.0-6.0-0.1","046","null","<p style=""text-align: center;"">+</p>","null","fixation","","","","","","","","","","",""
"","","","","","html-keyboard-response","9","118940","0.0-6.0-1.1","046","4106","
                    <p class=""lotteries"">
                      <span><img src='img/A.png', width=""30""></span>
                      <span><img src='img/D.png', width=""30""></span>
                    </p>
                    <p class=""lotteries"">
                      <span>₪39</span>
                      <span>₪58</span>
                    </p>
                    <p class=""lotteries"">
                      <span>60%</span>
                      <span>45%</span>
                    </p>","d","binary","A","26.1","25","25","0","B","A","45","58","",""
"","","","","","html-keyboard-response","10","119883","0.0-6.0-0.2","046","null","<p style=""text-align: center;"">+</p>","null","fixation","","","","","","","","","","",""
"","","","","","html-keyboard-response","11","125466","0.0-6.0-1.2","046","5584","
                    <p class=""lotteries"">
                      <span><img src='img/A.png', width=""30""></span>
                      <span><img src='img/D.png', width=""30""></span>
                    </p>
                    <p class=""lotteries"">
                      <span>₪18</span>
                      <span>₪36</span>
                    </p>
                    <p class=""lotteries"">
                      <span>50%</span>
                      <span>30%</span>
                    </p>","a","binary","B","9","22","22","0","B","A","50","18","",""
"","","","","","html-keyboard-response","12","126336","0.0-6.0-0.3","046","null","<p style=""text-align: center;"">+</p>","null","fixation","","","","","","","","","","",""
"","","","","","html-keyboard-response","13","131394","0.0-6.0-1.3","046","5056","
                    <p class=""lotteries"">
                      <span><img src='img/A.png', width=""30""></span>
                      <span><img src='img/D.png', width=""30""></span>
                    </p>
                    <p class=""lotteries"">
                      <span>₪58</span>
                      <span>₪36</span>
                    </p>
                    <p class=""lotteries"">
                      <span>40%</span>
                      <span>75%</span>
                    </p>","a","binary","A","23.2","13","13","0","A","B","40","58","",""
"","","","","","html-keyboard-response","14","132501","0.0-6.0-0.4","046","null","<p style=""text-align: center;"">+</p>","null","fixation","","","","","","","","","","",""
"","","","","","html-keyboard-response","15","136538","0.0-6.0-1.4","046","4035","
                    <p class=""lotteries"">
                      <span><img src='img/A.png', width=""30""></span>
                      <span><img src='img/D.png', width=""30""></span>
                    </p>
                    <p class=""lotteries"">
                      <span>₪11</span>
                      <span>₪18</span>
                    </p>
                    <p class=""lotteries"">
                      <span>25%</span>
                      <span>50%</span>
                    </p>","d","binary","A","9","28","28","1","B","A","50","18","",""
"","","","","","html-keyboard-response","16","137588","0.0-6.0-0.5","046","null","<p style=""text-align: center;"">+</p>","null","fixation","","","","","","","","","","",""
"","","","","","html-keyboard-response","17","143818","0.0-6.0-1.5","046","6228","
                    <p class=""lotteries"">
                      <span><img src='img/A.png', width=""30""></span>
                      <span><img src='img/D.png', width=""30""></span>
                    </p>
                    <p class=""lotteries"">
                      <span>₪43</span>
                      <span>₪61</span>
                    </p>
                    <p class=""lotteries"">
                      <span>75%</span>
                      <span>45%</span>
                    </p>","d","binary","A","27.45","11","11","0","B","A","45","61","",""
"","","","","","html-keyboard-response","18","144340","0.0-6.0-0.6","046","null","<p style=""text-align: center;"">+</p>","null","fixation","","","","","","","","","","",""
"","","","","","html-keyboard-response","19","147410","0.0-6.0-1.6","046","3068","
                    <p class=""lotteries"">
                      <span><img src='img/A.png', width=""30""></span>
                      <span><img src='img/D.png', width=""30""></span>
                    </p>
                    <p class=""lotteries"">
                      <span>₪11</span>
                      <span>₪18</span>
                    </p>
                    <p class=""lotteries"">
                      <span>45%</span>
                      <span>25%</span>
                    </p>","d","binary","A","4.5","14","14","0","B","A","25","18","",""
"","","","","","html-keyboard-response","20","148580","0.0-6.0-0.7","046","null","<p style=""text-align: center;"">+</p>","null","fixation","","","","","","","","","","",""
"","","","","","html-keyboard-response","21","156882","0.0-6.0-1.7","046","8300","
                    <p class=""lotteries"">
                      <span><img src='img/A.png', width=""30""></span>
                      <span><img src='img/D.png', width=""30""></span>
                    </p>
                    <p class=""lotteries"">
                      <span>₪39</span>
                      <span>₪64</span>
                    </p>
                    <p class=""lotteries"">
                      <span>65%</span>
                      <span>50%</span>
                    </p>","d","binary","B","32","1","1","0","A","B","50","64","",""
"","","","","","html-keyboard-response","22","157718","0.0-6.0-0.8","046","null","<p style=""text-align: center;"">+</p>","null","fixation","","","","","","","","","","",""
"","","","","","html-keyboard-response","23","163306","0.0-6.0-1.8","046","5587","
                    <p class=""lotteries"">
                      <span><img src='img/A.png', width=""30""></span>
                      <span><img src='img/D.png', width=""30""></span>
                    </p>
                    <p class=""lotteries"">
                      <span>₪71</span>
                      <span>₪79</span>
                    </p>
                    <p class=""lotteries"">
                      <span>75%</span>
                      <span>65%</span>
                    </p>","a","binary","B","53.25","8","8","0","B","A","75","71","",""
"","","","","","html-keyboard-response","24","164276","0.0-6.0-0.9","046","null","<p style=""text-align: center;"">+</p>","null","fixation","","","","","","","","","","",""
"","","","","","html-keyboard-response","25","168273","0.0-6.0-1.9","046","3996","
                    <p class=""lotteries"">
                      <span><img src='img/A.png', width=""30""></span>
                      <span><img src='img/D.png', width=""30""></span>
                    </p>
                    <p class=""lotteries"">
                      <span>₪61</span>
                      <span>₪43</span>
                    </p>
                    <p class=""lotteries"">
                      <span>55%</span>
                      <span>75%</span>
                    </p>","a","binary","B","33.55","26","26","0","B","A","55","61","",""
"","","","","","html-keyboard-response","26","169665","0.0-6.0-0.10","046","null","<p style=""text-align: center;"">+</p>","null","fixation","","","","","","","","","","",""
"","","","","","html-keyboard-response","27","172442","0.0-6.0-1.10","046","2776","
                    <p class=""lotteries"">
                      <span><img src='img/A.png', width=""30""></span>
                      <span><img src='img/D.png', width=""30""></span>
                    </p>
                    <p class=""lotteries"">
                      <span>₪71</span>
                      <span>₪11</span>
                    </p>
                    <p class=""lotteries"">
                      <span>55%</span>
                      <span>75%</span>
                    </p>","a","binary","A","39.05","18","18","0","A","B","55","71","",""
"","","","","","html-keyboard-response","28","173769","0.0-6.0-0.11","046","null","<p style=""text-align: center;"">+</p>","null","fixation","","","","","","","","","","",""
"","","","","","html-keyboard-response","29","177561","0.0-6.0-1.11","046","3791","
                    <p class=""lotteries"">
                      <span><img src='img/A.png', width=""30""></span>
                      <span><img src='img/D.png', width=""30""></span>
                    </p>
                    <p class=""lotteries"">
                      <span>₪11</span>
                      <span>₪64</span>
                    </p>
                    <p class=""lotteries"">
                      <span>75%</span>
                      <span>25%</span>
                    </p>","d","binary","A","16","6","6","0","B","A","25","64","",""
"","","","","","html-keyboard-response","30","178994","0.0-6.0-0.12","046","null","<p style=""text-align: center;"">+</p>","null","fixation","","","","","","","","","","",""
"","","","","","html-keyboard-response","31","182002","0.0-6.0-1.12","046","3006","
                    <p class=""lotteries"">
                      <span><img src='img/A.png', width=""30""></span>
                      <span><img src='img/D.png', width=""30""></span>
                    </p>
                    <p class=""lotteries"">
                      <span>₪16</span>
                      <span>₪4</span>
                    </p>
                    <p class=""lotteries"">
                      <span>20%</span>
                      <span>50%</span>
                    </p>","a","binary","A","3.2","17","17","0","A","B","20","16","",""
"","","","","","html-keyboard-response","32","183040","0.0-6.0-0.13","046","null","<p style=""text-align: center;"">+</p>","null","fixation","","","","","","","","","","",""
"","","","","","html-keyboard-response","33","189038","0.0-6.0-1.13","046","5984","
                    <p class=""lotteries"">
                      <span><img src='img/A.png', width=""30""></span>
                      <span><img src='img/D.png', width=""30""></span>
                    </p>
                    <p class=""lotteries"">
                      <span>₪64</span>
                      <span>₪36</span>
                    </p>
                    <p class=""lotteries"">
                      <span>50%</span>
                      <span>75%</span>
                    </p>","a","binary","A","32","4","4","0","A","B","50","64","",""
"","","","","","html-keyboard-response","34","189879","0.0-6.0-0.14","046","null","<p style=""text-align: center;"">+</p>","null","fixation","","","","","","","","","","",""
"","","","","","html-keyboard-response","35","192237","0.0-6.0-1.14","046","2358","
                    <p class=""lotteries"">
                      <span><img src='img/A.png', width=""30""></span>
                      <span><img src='img/D.png', width=""30""></span>
                    </p>
                    <p class=""lotteries"">
                      <span>₪36</span>
                      <span>₪4</span>
                    </p>
                    <p class=""lotteries"">
                      <span>30%</span>
                      <span>75%</span>
                    </p>","a","binary","A","10.8","20","20","0","A","B","30","36","",""
"","","","","","html-keyboard-response","36","193235","0.0-6.0-0.15","046","null","<p style=""text-align: center;"">+</p>","null","fixation","","","","","","","","","","",""
"","","","","","html-keyboard-response","37","197798","0.0-6.0-1.15","046","4561","
                    <p class=""lotteries"">
                      <span><img src='img/A.png', width=""30""></span>
                      <span><img src='img/D.png', width=""30""></span>
                    </p>
                    <p class=""lotteries"">
                      <span>₪11</span>
                      <span>₪4</span>
                    </p>
                    <p class=""lotteries"">
                      <span>25%</span>
                      <span>75%</span>
                    </p>","a","binary","A","2.75","12","12","0","A","B","25","11","",""
"","","","","","html-keyboard-response","38","198536","0.0-6.0-0.16","046","null","<p style=""text-align: center;"">+</p>","null","fixation","","","","","","","","","","",""
"","","","","","html-keyboard-response","39","204381","0.0-6.0-1.16","046","5844","
                    <p class=""lotteries"">
                      <span><img src='img/A.png', width=""30""></span>
                      <span><img src='img/D.png', width=""30""></span>
                    </p>
                    <p class=""lotteries"">
                      <span>₪43</span>
                      <span>₪79</span>
                    </p>
                    <p class=""lotteries"">
                      <span>60%</span>
                      <span>40%</span>
                    </p>","d","binary","B","31.6","9","9","0","A","B","40","79","",""
"","","","","","html-keyboard-response","40","204901","0.0-6.0-0.17","046","null","<p style=""text-align: center;"">+</p>","null","fixation","","","","","","","","","","",""
"","","","","","html-keyboard-response","41","212269","0.0-6.0-1.17","046","7367","
                    <p class=""lotteries"">
                      <span><img src='img/A.png', width=""30""></span>
                      <span><img src='img/D.png', width=""30""></span>
                    </p>
                    <p class=""lotteries"">
                      <span>₪71</span>
                      <span>₪36</span>
                    </p>
                    <p class=""lotteries"">
                      <span>45%</span>
                      <span>75%</span>
                    </p>","d","binary","B","27","16","16","0","A","B","75","36","",""
"","","","","","html-keyboard-response","42","213487","0.0-6.0-0.18","046","null","<p style=""text-align: center;"">+</p>","null","fixation","","","","","","","","","","",""
"","","","","","html-keyboard-response","43","218717","0.0-6.0-1.18","046","5229","
                    <p class=""lotteries"">
                      <span><img src='img/A.png', width=""30""></span>
                      <span><img src='img/D.png', width=""30""></span>
                    </p>
                    <p class=""lotteries"">
                      <span>₪64</span>
                      <span>₪36</span>
                    </p>
                    <p class=""lotteries"">
                      <span>50%</span>
                      <span>70%</span>
                    </p>","a","binary","B","32","3","3","0","B","A","50","64","",""
"","","","","","html-keyboard-response","44","219920","0.0-6.0-0.19","046","null","<p style=""text-align: center;"">+</p>","null","fixation","","","","","","","","","","",""
"","","","","","html-keyboard-response","45","221933","0.0-6.0-1.19","046","2011","
                    <p class=""lotteries"">
                      <span><img src='img/A.png', width=""30""></span>
                      <span><img src='img/D.png', width=""30""></span>
                    </p>
                    <p class=""lotteries"">
                      <span>₪43</span>
                      <span>₪76</span>
                    </p>
                    <p class=""lotteries"">
                      <span>75%</span>
                      <span>65%</span>
                    </p>","d","binary","B","49.4","24","24","0","A","B","65","76","",""
"","","","","","html-keyboard-response","46","223168","0.0-6.0-0.20","046","null","<p style=""text-align: center;"">+</p>","null","fixation","","","","","","","","","","",""
"","","","","","html-keyboard-response","47","227341","0.0-6.0-1.20","046","4171","
                    <p class=""lotteries"">
                      <span><img src='img/A.png', width=""30""></span>
                      <span><img src='img/D.png', width=""30""></span>
                    </p>
                    <p class=""lotteries"">
                      <span>₪39</span>
                      <span>₪43</span>
                    </p>
                    <p class=""lotteries"">
                      <span>65%</span>
                      <span>60%</span>
                    </p>","d","binary","B","25.8","15","15","0","A","B","60","43","",""
"","","","","","html-keyboard-response","48","228411","0.0-6.0-0.21","046","null","<p style=""text-align: center;"">+</p>","null","fixation","","","","","","","","","","",""
"","","","","","html-keyboard-response","49","231405","0.0-6.0-1.21","046","2993","
                    <p class=""lotteries"">
                      <span><img src='img/A.png', width=""30""></span>
                      <span><img src='img/D.png', width=""30""></span>
                    </p>
                    <p class=""lotteries"">
                      <span>₪58</span>
                      <span>₪11</span>
                    </p>
                    <p class=""lotteries"">
                      <span>30%</span>
                      <span>25%</span>
                    </p>","a","binary","A","17.4","30","30","1","A","B","30","58","",""
"","","","","","html-keyboard-response","50","232276","0.0-6.0-0.22","046","null","<p style=""text-align: center;"">+</p>","null","fixation","","","","","","","","","","",""
"","","","","","html-keyboard-response","51","237749","0.0-6.0-1.22","046","5472","
                    <p class=""lotteries"">
                      <span><img src='img/A.png', width=""30""></span>
                      <span><img src='img/D.png', width=""30""></span>
                    </p>
                    <p class=""lotteries"">
                      <span>₪76</span>
                      <span>₪43</span>
                    </p>
                    <p class=""lotteries"">
                      <span>65%</span>
                      <span>75%</span>
                    </p>","a","binary","A","49.4","19","19","0","A","B","65","76","",""
"","","","","","html-keyboard-response","52","238750","0.0-6.0-0.23","046","null","<p style=""text-align: center;"">+</p>","null","fixation","","","","","","","","","","",""
"","","","","","html-keyboard-response","53","240878","0.0-6.0-1.23","046","2126","
                    <p class=""lotteries"">
                      <span><img src='img/A.png', width=""30""></span>
                      <span><img src='img/D.png', width=""30""></span>
                    </p>
                    <p class=""lotteries"">
                      <span>₪18</span>
                      <span>₪4</span>
                    </p>
                    <p class=""lotteries"">
                      <span>25%</span>
                      <span>75%</span>
                    </p>","a","binary","A","4.5","23","23","0","A","B","25","18","",""
"","","","","","html-keyboard-response","54","241774","0.0-6.0-0.24","046","null","<p style=""text-align: center;"">+</p>","null","fixation","","","","","","","","","","",""
"","","","","","html-keyboard-response","55","245862","0.0-6.0-1.24","046","4086","
                    <p class=""lotteries"">
                      <span><img src='img/A.png', width=""30""></span>
                      <span><img src='img/D.png', width=""30""></span>
                    </p>
                    <p class=""lotteries"">
                      <span>₪16</span>
                      <span>₪11</span>
                    </p>
                    <p class=""lotteries"">
                      <span>20%</span>
                      <span>25%</span>
                    </p>","a","binary","A","3.2","27","27","0","A","B","20","16","",""
"","","","","","html-keyboard-response","56","246632","0.0-6.0-0.25","046","null","<p style=""text-align: center;"">+</p>","null","fixation","","","","","","","","","","",""
"","","","","","html-keyboard-response","57","251244","0.0-6.0-1.25","046","4612","
                    <p class=""lotteries"">
                      <span><img src='img/A.png', width=""30""></span>
                      <span><img src='img/D.png', width=""30""></span>
                    </p>
                    <p class=""lotteries"">
                      <span>₪43</span>
                      <span>₪71</span>
                    </p>
                    <p class=""lotteries"">
                      <span>60%</span>
                      <span>45%</span>
                    </p>","d","binary","B","31.95","2","2","0","A","B","45","71","",""
"","","","","","html-keyboard-response","58","252562","0.0-6.0-0.26","046","null","<p style=""text-align: center;"">+</p>","null","fixation","","","","","","","","","","",""
"","","","","","html-keyboard-response","59","258252","0.0-6.0-1.26","046","5688","
                    <p class=""lotteries"">
                      <span><img src='img/A.png', width=""30""></span>
                      <span><img src='img/D.png', width=""30""></span>
                    </p>
                    <p class=""lotteries"">
                      <span>₪11</span>
                      <span>₪4</span>
                    </p>
                    <p class=""lotteries"">
                      <span>75%</span>
                      <span>25%</span>
                    </p>","a","binary","A","8.25","29","29","1","A","B","75","11","",""
"","","","","","html-keyboard-response","60","259341","0.0-6.0-0.27","046","null","<p style=""text-align: center;"">+</p>","null","fixation","","","","","","","","","","",""
"","","","","","html-keyboard-response","61","264131","0.0-6.0-1.27","046","4789","
                    <p class=""lotteries"">
                      <span><img src='img/A.png', width=""30""></span>
                      <span><img src='img/D.png', width=""30""></span>
                    </p>
                    <p class=""lotteries"">
                      <span>₪61</span>
                      <span>₪43</span>
                    </p>
                    <p class=""lotteries"">
                      <span>55%</span>
                      <span>60%</span>
                    </p>","a","binary","B","33.55","7","7","0","B","A","55","61","",""
"","","","","","html-keyboard-response","62","264694","0.0-6.0-0.28","046","null","<p style=""text-align: center;"">+</p>","null","fixation","","","","","","","","","","",""
"","","","","","html-keyboard-response","63","269876","0.0-6.0-1.28","046","5180","
                    <p class=""lotteries"">
                      <span><img src='img/A.png', width=""30""></span>
                      <span><img src='img/D.png', width=""30""></span>
                    </p>
                    <p class=""lotteries"">
                      <span>₪36</span>
                      <span>₪61</span>
                    </p>
                    <p class=""lotteries"">
                      <span>70%</span>
                      <span>45%</span>
                    </p>","d","binary","A","27.45","10","10","0","B","A","45","61","",""
"","","","","","html-keyboard-response","64","271116","0.0-6.0-0.29","046","null","<p style=""text-align: center;"">+</p>","null","fixation","","","","","","","","","","",""
"","","","","","html-keyboard-response","65","274924","0.0-6.0-1.29","046","3806","
                    <p class=""lotteries"">
                      <span><img src='img/A.png', width=""30""></span>
                      <span><img src='img/D.png', width=""30""></span>
                    </p>
                    <p class=""lotteries"">
                      <span>₪58</span>
                      <span>₪64</span>
                    </p>
                    <p class=""lotteries"">
                      <span>40%</span>
                      <span>25%</span>
                    </p>","a","binary","B","23.2","21","21","0","B","A","40","58","",""
"","","","","","html-keyboard-response","66","275932","0.0-7.0","046","null","<p style=""text-align: center;"">+</p>","null","fixation","","","","","","","","","","",""
"","","","","","html-keyboard-response","67","280683","0.0-8.0","046","4749","<p>הפסקה.
          <br>לחצו על רווח כדי להמשיך.</p>"," ","scan_wait","","","","","","","","","","",""
"","","","","","html-keyboard-response","68","281649","0.0-9.0-0.0","046","null","<p style=""text-align: center;"">+</p>","null","fixation","","","","","","","","","","",""
"","","","","","html-keyboard-response","69","283588","0.0-9.0-1.0","046","1937","
                    <p class=""lotteries"">
                      <span><img src='img/A.png', width=""30""></span>
                      <span><img src='img/D.png', width=""30""></span>
                    </p>
                    <p class=""lotteries"">
                      <span>₪58</span>
                      <span>₪39</span>
                    </p>
                    <p class=""lotteries"">
                      <span>45%</span>
                      <span>60%</span>
                    </p>","a","binary","A","26.1","25","25","0","A","B","45","58","",""
"","","","","","html-keyboard-response","70","284659","0.0-9.0-0.1","046","null","<p style=""text-align: center;"">+</p>","null","fixation","","","","","","","","","","",""
"","","","","","html-keyboard-response","71","288948","0.0-9.0-1.1","046","4288","
                    <p class=""lotteries"">
                      <span><img src='img/A.png', width=""30""></span>
                      <span><img src='img/D.png', width=""30""></span>
                    </p>
                    <p class=""lotteries"">
                      <span>₪43</span>
                      <span>₪39</span>
                    </p>
                    <p class=""lotteries"">
                      <span>60%</span>
                      <span>65%</span>
                    </p>","d","binary","A","25.35","15","15","0","B","A","65","39","",""
"","","","","","html-keyboard-response","72","289682","0.0-9.0-0.2","046","null","<p style=""text-align: center;"">+</p>","null","fixation","","","","","","","","","","",""
"","","","","","html-keyboard-response","73","291731","0.0-9.0-1.2","046","2048","
                    <p class=""lotteries"">
                      <span><img src='img/A.png', width=""30""></span>
                      <span><img src='img/D.png', width=""30""></span>
                    </p>
                    <p class=""lotteries"">
                      <span>₪61</span>
                      <span>₪43</span>
                    </p>
                    <p class=""lotteries"">
                      <span>55%</span>
                      <span>75%</span>
                    </p>","a","binary","B","33.55","26","26","0","B","A","55","61","",""
"","","","","","html-keyboard-response","74","292715","0.0-9.0-0.3","046","null","<p style=""text-align: center;"">+</p>","null","fixation","","","","","","","","","","",""
"","","","","","html-keyboard-response","75","297268","0.0-9.0-1.3","046","4552","
                    <p class=""lotteries"">
                      <span><img src='img/A.png', width=""30""></span>
                      <span><img src='img/D.png', width=""30""></span>
                    </p>
                    <p class=""lotteries"">
                      <span>₪76</span>
                      <span>₪43</span>
                    </p>
                    <p class=""lotteries"">
                      <span>65%</span>
                      <span>75%</span>
                    </p>","a","binary","A","49.4","19","19","0","A","B","65","76","",""
"","","","","","html-keyboard-response","76","298014","0.0-9.0-0.4","046","null","<p style=""text-align: center;"">+</p>","null","fixation","","","","","","","","","","",""
"","","","","","html-keyboard-response","77","299916","0.0-9.0-1.4","046","1900","
                    <p class=""lotteries"">
                      <span><img src='img/A.png', width=""30""></span>
                      <span><img src='img/D.png', width=""30""></span>
                    </p>
                    <p class=""lotteries"">
                      <span>₪43</span>
                      <span>₪61</span>
                    </p>
                    <p class=""lotteries"">
                      <span>60%</span>
                      <span>55%</span>
                    </p>","d","binary","B","33.55","7","7","0","A","B","55","61","",""
"","","","","","html-keyboard-response","78","300788","0.0-9.0-0.5","046","null","<p style=""text-align: center;"">+</p>","null","fixation","","","","","","","","","","",""
"","","","","","html-keyboard-response","79","306332","0.0-9.0-1.5","046","5542","
                    <p class=""lotteries"">
                      <span><img src='img/A.png', width=""30""></span>
                      <span><img src='img/D.png', width=""30""></span>
                    </p>
                    <p class=""lotteries"">
                      <span>₪64</span>
                      <span>₪39</span>
                    </p>
                    <p class=""lotteries"">
                      <span>50%</span>
                      <span>65%</span>
                    </p>","a","binary","B","32","1","1","0","B","A","50","64","",""
"","","","","","html-keyboard-response","80","306956","0.0-9.0-0.6","046","null","<p style=""text-align: center;"">+</p>","null","fixation","","","","","","","","","","",""
"","","","","","html-keyboard-response","81","319949","0.0-9.0-1.6","046","12998","
                    <p class=""lotteries"">
                      <span><img src='img/A.png', width=""30""></span>
                      <span><img src='img/D.png', width=""30""></span>
                    </p>
                    <p class=""lotteries"">
                      <span>₪11</span>
                      <span>₪58</span>
                    </p>
                    <p class=""lotteries"">
                      <span>25%</span>
                      <span>30%</span>
                    </p>","d","binary","A","17.4","30","30","1","B","A","30","58","",""
"","","","","","html-keyboard-response","82","321034","0.0-9.0-0.7","046","null","<p style=""text-align: center;"">+</p>","null","fixation","","","","","","","","","","",""
"","","","","","html-keyboard-response","83","322957","0.0-9.0-1.7","046","1922","
                    <p class=""lotteries"">
                      <span><img src='img/A.png', width=""30""></span>
                      <span><img src='img/D.png', width=""30""></span>
                    </p>
                    <p class=""lotteries"">
                      <span>₪79</span>
                      <span>₪71</span>
                    </p>
                    <p class=""lotteries"">
                      <span>65%</span>
                      <span>75%</span>
                    </p>","a","binary","A","51.35","8","8","0","A","B","65","79","",""
"","","","","","html-keyboard-response","84","324254","0.0-9.0-0.8","046","null","<p style=""text-align: center;"">+</p>","null","fixation","","","","","","","","","","",""
"","","","","","html-keyboard-response","85","327885","0.0-9.0-1.8","046","3630","
                    <p class=""lotteries"">
                      <span><img src='img/A.png', width=""30""></span>
                      <span><img src='img/D.png', width=""30""></span>
                    </p>
                    <p class=""lotteries"">
                      <span>₪43</span>
                      <span>₪79</span>
                    </p>
                    <p class=""lotteries"">
                      <span>60%</span>
                      <span>40%</span>
                    </p>","d","binary","B","31.6","9","9","0","A","B","40","79","",""
"","","","","","html-keyboard-response","86","329172","0.0-9.0-0.9","046","null","<p style=""text-align: center;"">+</p>","null","fixation","","","","","","","","","","",""
"","","","","","html-keyboard-response","87","332021","0.0-9.0-1.9","046","2847","
                    <p class=""lotteries"">
                      <span><img src='img/A.png', width=""30""></span>
                      <span><img src='img/D.png', width=""30""></span>
                    </p>
                    <p class=""lotteries"">
                      <span>₪11</span>
                      <span>₪4</span>
                    </p>
                    <p class=""lotteries"">
                      <span>25%</span>
                      <span>75%</span>
                    </p>","a","binary","A","2.75","12","12","0","A","B","25","11","",""
"","","","","","html-keyboard-response","88","333320","0.0-9.0-0.10","046","null","<p style=""text-align: center;"">+</p>","null","fixation","","","","","","","","","","",""
"","","","","","html-keyboard-response","89","337773","0.0-9.0-1.10","046","4452","
                    <p class=""lotteries"">
                      <span><img src='img/A.png', width=""30""></span>
                      <span><img src='img/D.png', width=""30""></span>
                    </p>
                    <p class=""lotteries"">
                      <span>₪76</span>
                      <span>₪43</span>
                    </p>
                    <p class=""lotteries"">
                      <span>65%</span>
                      <span>75%</span>
                    </p>","a","binary","B","49.4","24","24","0","B","A","65","76","",""
"","","","","","html-keyboard-response","90","338553","0.0-9.0-0.11","046","null","<p style=""text-align: center;"">+</p>","null","fixation","","","","","","","","","","",""
"","","","","","html-keyboard-response","91","342165","0.0-9.0-1.11","046","3610","
                    <p class=""lotteries"">
                      <span><img src='img/A.png', width=""30""></span>
                      <span><img src='img/D.png', width=""30""></span>
                    </p>
                    <p class=""lotteries"">
                      <span>₪18</span>
                      <span>₪36</span>
                    </p>
                    <p class=""lotteries"">
                      <span>50%</span>
                      <span>30%</span>
                    </p>","d","binary","A","10.8","22","22","0","B","A","30","36","",""
"","","","","","html-keyboard-response","92","342955","0.0-9.0-0.12","046","null","<p style=""text-align: center;"">+</p>","null","fixation","","","","","","","","","","",""
"","","","","","html-keyboard-response","93","346094","0.0-9.0-1.12","046","3137","
                    <p class=""lotteries"">
                      <span><img src='img/A.png', width=""30""></span>
                      <span><img src='img/D.png', width=""30""></span>
                    </p>
                    <p class=""lotteries"">
                      <span>₪36</span>
                      <span>₪71</span>
                    </p>
                    <p class=""lotteries"">
                      <span>75%</span>
                      <span>45%</span>
                    </p>","d","binary","A","31.95","16","16","0","B","A","45","71","",""
"","","","","","html-keyboard-response","94","347230","0.0-9.0-0.13","046","null","<p style=""text-align: center;"">+</p>","null","fixation","","","","","","","","","","",""
"","","","","","html-keyboard-response","95","351421","0.0-9.0-1.13","046","4189","
                    <p class=""lotteries"">
                      <span><img src='img/A.png', width=""30""></span>
                      <span><img src='img/D.png', width=""30""></span>
                    </p>
                    <p class=""lotteries"">
                      <span>₪11</span>
                      <span>₪18</span>
                    </p>
                    <p class=""lotteries"">
                      <span>45%</span>
                      <span>25%</span>
                    </p>","d","binary","A","4.5","14","14","0","B","A","25","18","",""
"","","","","","html-keyboard-response","96","352625","0.0-9.0-0.14","046","null","<p style=""text-align: center;"">+</p>","null","fixation","","","","","","","","","","",""
"","","","","","html-keyboard-response","97","358341","0.0-9.0-1.14","046","5714","
                    <p class=""lotteries"">
                      <span><img src='img/A.png', width=""30""></span>
                      <span><img src='img/D.png', width=""30""></span>
                    </p>
                    <p class=""lotteries"">
                      <span>₪11</span>
                      <span>₪16</span>
                    </p>
                    <p class=""lotteries"">
                      <span>25%</span>
                      <span>20%</span>
                    </p>","d","binary","A","3.2","27","27","0","B","A","20","16","",""
"","","","","","html-keyboard-response","98","359135","0.0-9.0-0.15","046","null","<p style=""text-align: center;"">+</p>","null","fixation","","","","","","","","","","",""
"","","","","","html-keyboard-response","99","363037","0.0-9.0-1.15","046","3900","
                    <p class=""lotteries"">
                      <span><img src='img/A.png', width=""30""></span>
                      <span><img src='img/D.png', width=""30""></span>
                    </p>
                    <p class=""lotteries"">
                      <span>₪36</span>
                      <span>₪58</span>
                    </p>
                    <p class=""lotteries"">
                      <span>75%</span>
                      <span>40%</span>
                    </p>","d","binary","A","23.2","13","13","0","B","A","40","58","",""
"","","","","","html-keyboard-response","100","363882","0.0-9.0-0.16","046","null","<p style=""text-align: center;"">+</p>","null","fixation","","","","","","","","","","",""
"","","","","","html-keyboard-response","101","376773","0.0-9.0-1.16","046","12889","
                    <p class=""lotteries"">
                      <span><img src='img/A.png', width=""30""></span>
                      <span><img src='img/D.png', width=""30""></span>
                    </p>
                    <p class=""lotteries"">
                      <span>₪43</span>
                      <span>₪61</span>
                    </p>
                    <p class=""lotteries"">
                      <span>75%</span>
                      <span>45%</span>
                    </p>","a","binary","B","32.25","11","11","0","B","A","75","43","",""
"","","","","","html-keyboard-response","102","377677","0.0-9.0-0.17","046","null","<p style=""text-align: center;"">+</p>","null","fixation","","","","","","","","","","",""
"","","","","","html-keyboard-response","103","384351","0.0-9.0-1.17","046","6678","
                    <p class=""lotteries"">
                      <span><img src='img/A.png', width=""30""></span>
                      <span><img src='img/D.png', width=""30""></span>
                    </p>
                    <p class=""lotteries"">
                      <span>₪36</span>
                      <span>₪71</span>
                    </p>
                    <p class=""lotteries"">
                      <span>75%</span>
                      <span>55%</span>
                    </p>","d","binary","B","39.05","5","5","0","A","B","55","71","",""
"","","","","","html-keyboard-response","104","385084","0.0-9.0-0.18","046","null","<p style=""text-align: center;"">+</p>","null","fixation","","","","","","","","","","",""
"","","","","","html-keyboard-response","105","391006","0.0-9.0-1.18","046","5921","
                    <p class=""lotteries"">
                      <span><img src='img/A.png', width=""30""></span>
                      <span><img src='img/D.png', width=""30""></span>
                    </p>
                    <p class=""lotteries"">
                      <span>₪36</span>
                      <span>₪64</span>
                    </p>
                    <p class=""lotteries"">
                      <span>70%</span>
                      <span>50%</span>
                    </p>","d","binary","B","32","3","3","0","A","B","50","64","",""
"","","","","","html-keyboard-response","106","392125","0.0-9.0-0.19","046","null","<p style=""text-align: center;"">+</p>","null","fixation","","","","","","","","","","",""
"","","","","","html-keyboard-response","107","394159","0.0-9.0-1.19","046","2033","
                    <p class=""lotteries"">
                      <span><img src='img/A.png', width=""30""></span>
                      <span><img src='img/D.png', width=""30""></span>
                    </p>
                    <p class=""lotteries"">
                      <span>₪4</span>
                      <span>₪36</span>
                    </p>
                    <p class=""lotteries"">
                      <span>75%</span>
                      <span>30%</span>
                    </p>","d","binary","A","10.8","20","20","0","B","A","30","36","",""
"","","","","","html-keyboard-response","108","394775","0.0-9.0-0.20","046","null","<p style=""text-align: center;"">+</p>","null","fixation","","","","","","","","","","",""
"","","","","","html-keyboard-response","109","397007","0.0-9.0-1.20","046","2231","
                    <p class=""lotteries"">
                      <span><img src='img/A.png', width=""30""></span>
                      <span><img src='img/D.png', width=""30""></span>
                    </p>
                    <p class=""lotteries"">
                      <span>₪16</span>
                      <span>₪4</span>
                    </p>
                    <p class=""lotteries"">
                      <span>20%</span>
                      <span>50%</span>
                    </p>","a","binary","A","3.2","17","17","0","A","B","20","16","",""
"","","","","","html-keyboard-response","110","397828","0.0-9.0-0.21","046","null","<p style=""text-align: center;"">+</p>","null","fixation","","","","","","","","","","",""
"","","","","","html-keyboard-response","111","400455","0.0-9.0-1.21","046","2626","
                    <p class=""lotteries"">
                      <span><img src='img/A.png', width=""30""></span>
                      <span><img src='img/D.png', width=""30""></span>
                    </p>
                    <p class=""lotteries"">
                      <span>₪58</span>
                      <span>₪64</span>
                    </p>
                    <p class=""lotteries"">
                      <span>40%</span>
                      <span>25%</span>
                    </p>","a","binary","B","23.2","21","21","0","B","A","40","58","",""
"","","","","","html-keyboard-response","112","401931","0.0-9.0-0.22","046","null","<p style=""text-align: center;"">+</p>","null","fixation","","","","","","","","","","",""
"","","","","","html-keyboard-response","113","409319","0.0-9.0-1.22","046","7386","
                    <p class=""lotteries"">
                      <span><img src='img/A.png', width=""30""></span>
                      <span><img src='img/D.png', width=""30""></span>
                    </p>
                    <p class=""lotteries"">
                      <span>₪71</span>
                      <span>₪11</span>
                    </p>
                    <p class=""lotteries"">
                      <span>55%</span>
                      <span>75%</span>
                    </p>","a","binary","A","39.05","18","18","0","A","B","55","71","",""
"","","","","","html-keyboard-response","114","409939","0.0-9.0-0.23","046","null","<p style=""text-align: center;"">+</p>","null","fixation","","","","","","","","","","",""
"","","","","","html-keyboard-response","115","412431","0.0-9.0-1.23","046","2490","
                    <p class=""lotteries"">
                      <span><img src='img/A.png', width=""30""></span>
                      <span><img src='img/D.png', width=""30""></span>
                    </p>
                    <p class=""lotteries"">
                      <span>₪36</span>
                      <span>₪64</span>
                    </p>
                    <p class=""lotteries"">
                      <span>75%</span>
                      <span>50%</span>
                    </p>","d","binary","A","32","4","4","0","B","A","50","64","",""
"","","","","","html-keyboard-response","116","413478","0.0-9.0-0.24","046","null","<p style=""text-align: center;"">+</p>","null","fixation","","","","","","","","","","",""
"","","","","","html-keyboard-response","117","415495","0.0-9.0-1.24","046","2015","
                    <p class=""lotteries"">
                      <span><img src='img/A.png', width=""30""></span>
                      <span><img src='img/D.png', width=""30""></span>
                    </p>
                    <p class=""lotteries"">
                      <span>₪71</span>
                      <span>₪43</span>
                    </p>
                    <p class=""lotteries"">
                      <span>45%</span>
                      <span>60%</span>
                    </p>","a","binary","B","31.95","2","2","0","B","A","45","71","",""
"","","","","","html-keyboard-response","118","416732","0.0-9.0-0.25","046","null","<p style=""text-align: center;"">+</p>","null","fixation","","","","","","","","","","",""
"","","","","","html-keyboard-response","119","424223","0.0-9.0-1.25","046","7489","
                    <p class=""lotteries"">
                      <span><img src='img/A.png', width=""30""></span>
                      <span><img src='img/D.png', width=""30""></span>
                    </p>
                    <p class=""lotteries"">
                      <span>₪61</span>
                      <span>₪36</span>
                    </p>
                    <p class=""lotteries"">
                      <span>45%</span>
                      <span>70%</span>
                    </p>","a","binary","A","27.45","10","10","0","A","B","45","61","",""
"","","","","","html-keyboard-response","120","425404","0.0-9.0-0.26","046","null","<p style=""text-align: center;"">+</p>","null","fixation","","","","","","","","","","",""
"","","","","","html-keyboard-response","121","426767","0.0-9.0-1.26","046","1361","
                    <p class=""lotteries"">
                      <span><img src='img/A.png', width=""30""></span>
                      <span><img src='img/D.png', width=""30""></span>
                    </p>
                    <p class=""lotteries"">
                      <span>₪18</span>
                      <span>₪11</span>
                    </p>
                    <p class=""lotteries"">
                      <span>50%</span>
                      <span>25%</span>
                    </p>","a","binary","A","9","28","28","1","A","B","50","18","",""
"","","","","","html-keyboard-response","122","427592","0.0-9.0-0.27","046","null","<p style=""text-align: center;"">+</p>","null","fixation","","","","","","","","","","",""
"","","","","","html-keyboard-response","123","430823","0.0-9.0-1.27","046","3229","
                    <p class=""lotteries"">
                      <span><img src='img/A.png', width=""30""></span>
                      <span><img src='img/D.png', width=""30""></span>
                    </p>
                    <p class=""lotteries"">
                      <span>₪4</span>
                      <span>₪11</span>
                    </p>
                    <p class=""lotteries"">
                      <span>25%</span>
                      <span>75%</span>
                    </p>","d","binary","A","8.25","29","29","1","B","A","75","11","",""
"","","","","","html-keyboard-response","124","431534","0.0-9.0-0.28","046","null","<p style=""text-align: center;"">+</p>","null","fixation","","","","","","","","","","",""
"","","","","","html-keyboard-response","125","433424","0.0-9.0-1.28","046","1889","
                    <p class=""lotteries"">
                      <span><img src='img/A.png', width=""30""></span>
                      <span><img src='img/D.png', width=""30""></span>
                    </p>
                    <p class=""lotteries"">
                      <span>₪64</span>
                      <span>₪11</span>
                    </p>
                    <p class=""lotteries"">
                      <span>25%</span>
                      <span>75%</span>
                    </p>","a","binary","A","16","6","6","0","A","B","25","64","",""
"","","","","","html-keyboard-response","126","434025","0.0-9.0-0.29","046","null","<p style=""text-align: center;"">+</p>","null","fixation","","","","","","","","","","",""
"","","","","","html-keyboard-response","127","436759","0.0-9.0-1.29","046","2733","
                    <p class=""lotteries"">
                      <span><img src='img/A.png', width=""30""></span>
                      <span><img src='img/D.png', width=""30""></span>
                    </p>
                    <p class=""lotteries"">
                      <span>₪18</span>
                      <span>₪4</span>
                    </p>
                    <p class=""lotteries"">
                      <span>25%</span>
                      <span>75%</span>
                    </p>","a","binary","A","4.5","23","23","0","A","B","25","18","",""
"","","","","","html-keyboard-response","128","437765","0.0-10.0","046","null","<p style=""text-align: center;"">+</p>","null","fixation","","","","","","","","","","",""
"","","","","","html-keyboard-response","129","439655","0.0-11.0","046","1889","<p>הפסקה.
          <br>לחצו על רווח כדי להמשיך.</p>"," ","scan_wait","","","","","","","","","","",""
"","","","","","html-keyboard-response","130","440804","0.0-12.0-0.0","046","null","<p style=""text-align: center;"">+</p>","null","fixation","","","","","","","","","","",""
"","","","","","html-keyboard-response","131","444688","0.0-12.0-1.0","046","3882","
                    <p class=""lotteries"">
                      <span><img src='img/A.png', width=""30""></span>
                      <span><img src='img/D.png', width=""30""></span>
                    </p>
                    <p class=""lotteries"">
                      <span>₪43</span>
                      <span>₪39</span>
                    </p>
                    <p class=""lotteries"">
                      <span>60%</span>
                      <span>65%</span>
                    </p>","a","binary","B","25.8","15","15","0","B","A","60","43","",""
"","","","","","html-keyboard-response","132","445525","0.0-12.0-0.1","046","null","<p style=""text-align: center;"">+</p>","null","fixation","","","","","","","","","","",""
"","","","","","html-keyboard-response","133","450097","0.0-12.0-1.1","046","4570","
                    <p class=""lotteries"">
                      <span><img src='img/A.png', width=""30""></span>
                      <span><img src='img/D.png', width=""30""></span>
                    </p>
                    <p class=""lotteries"">
                      <span>₪16</span>
                      <span>₪4</span>
                    </p>
                    <p class=""lotteries"">
                      <span>20%</span>
                      <span>50%</span>
                    </p>","a","binary","A","3.2","17","17","0","A","B","20","16","",""
"","","","","","html-keyboard-response","134","450911","0.0-12.0-0.2","046","null","<p style=""text-align: center;"">+</p>","null","fixation","","","","","","","","","","",""
"","","","","","html-keyboard-response","135","452344","0.0-12.0-1.2","046","1432","
                    <p class=""lotteries"">
                      <span><img src='img/A.png', width=""30""></span>
                      <span><img src='img/D.png', width=""30""></span>
                    </p>
                    <p class=""lotteries"">
                      <span>₪36</span>
                      <span>₪71</span>
                    </p>
                    <p class=""lotteries"">
                      <span>75%</span>
                      <span>55%</span>
                    </p>","d","binary","B","39.05","5","5","0","A","B","55","71","",""
"","","","","","html-keyboard-response","136","452958","0.0-12.0-0.3","046","null","<p style=""text-align: center;"">+</p>","null","fixation","","","","","","","","","","",""
"","","","","","html-keyboard-response","137","456551","0.0-12.0-1.3","046","3592","
                    <p class=""lotteries"">
                      <span><img src='img/A.png', width=""30""></span>
                      <span><img src='img/D.png', width=""30""></span>
                    </p>
                    <p class=""lotteries"">
                      <span>₪4</span>
                      <span>₪36</span>
                    </p>
                    <p class=""lotteries"">
                      <span>75%</span>
                      <span>30%</span>
                    </p>","d","binary","A","10.8","20","20","0","B","A","30","36","",""
"","","","","","html-keyboard-response","138","457345","0.0-12.0-0.4","046","null","<p style=""text-align: center;"">+</p>","null","fixation","","","","","","","","","","",""
"","","","","","html-keyboard-response","139","459016","0.0-12.0-1.4","046","1670","
                    <p class=""lotteries"">
                      <span><img src='img/A.png', width=""30""></span>
                      <span><img src='img/D.png', width=""30""></span>
                    </p>
                    <p class=""lotteries"">
                      <span>₪18</span>
                      <span>₪4</span>
                    </p>
                    <p class=""lotteries"">
                      <span>25%</span>
                      <span>75%</span>
                    </p>","a","binary","A","4.5","23","23","0","A","B","25","18","",""
"","","","","","html-keyboard-response","140","460514","0.0-12.0-0.5","046","null","<p style=""text-align: center;"">+</p>","null","fixation","","","","","","","","","","",""
"","","","","","html-keyboard-response","141","464160","0.0-12.0-1.5","046","3645","
                    <p class=""lotteries"">
                      <span><img src='img/A.png', width=""30""></span>
                      <span><img src='img/D.png', width=""30""></span>
                    </p>
                    <p class=""lotteries"">
                      <span>₪36</span>
                      <span>₪64</span>
                    </p>
                    <p class=""lotteries"">
                      <span>75%</span>
                      <span>50%</span>
                    </p>","d","binary","A","32","4","4","0","B","A","50","64","",""
"","","","","","html-keyboard-response","142","464838","0.0-12.0-0.6","046","null","<p style=""text-align: center;"">+</p>","null","fixation","","","","","","","","","","",""
"","","","","","html-keyboard-response","143","466728","0.0-12.0-1.6","046","1889","
                    <p class=""lotteries"">
                      <span><img src='img/A.png', width=""30""></span>
                      <span><img src='img/D.png', width=""30""></span>
                    </p>
                    <p class=""lotteries"">
                      <span>₪71</span>
                      <span>₪79</span>
                    </p>
                    <p class=""lotteries"">
                      <span>75%</span>
                      <span>65%</span>
                    </p>","d","binary","A","51.35","8","8","0","B","A","65","79","",""
"","","","","","html-keyboard-response","144","467418","0.0-12.0-0.7","046","null","<p style=""text-align: center;"">+</p>","null","fixation","","","","","","","","","","",""
"","","","","","html-keyboard-response","145","468792","0.0-12.0-1.7","046","1372","
                    <p class=""lotteries"">
                      <span><img src='img/A.png', width=""30""></span>
                      <span><img src='img/D.png', width=""30""></span>
                    </p>
                    <p class=""lotteries"">
                      <span>₪71</span>
                      <span>₪11</span>
                    </p>
                    <p class=""lotteries"">
                      <span>55%</span>
                      <span>75%</span>
                    </p>","a","binary","A","39.05","18","18","0","A","B","55","71","",""
"","","","","","html-keyboard-response","146","470001","0.0-12.0-0.8","046","null","<p style=""text-align: center;"">+</p>","null","fixation","","","","","","","","","","",""
"","","","","","html-keyboard-response","147","471320","0.0-12.0-1.8","046","1318","
                    <p class=""lotteries"">
                      <span><img src='img/A.png', width=""30""></span>
                      <span><img src='img/D.png', width=""30""></span>
                    </p>
                    <p class=""lotteries"">
                      <span>₪61</span>
                      <span>₪36</span>
                    </p>
                    <p class=""lotteries"">
                      <span>45%</span>
                      <span>70%</span>
                    </p>","a","binary","A","27.45","10","10","0","A","B","45","61","",""
"","","","","","html-keyboard-response","148","472158","0.0-12.0-0.9","046","null","<p style=""text-align: center;"">+</p>","null","fixation","","","","","","","","","","",""
"","","","","","html-keyboard-response","149","474080","0.0-12.0-1.9","046","1920","
                    <p class=""lotteries"">
                      <span><img src='img/A.png', width=""30""></span>
                      <span><img src='img/D.png', width=""30""></span>
                    </p>
                    <p class=""lotteries"">
                      <span>₪4</span>
                      <span>₪11</span>
                    </p>
                    <p class=""lotteries"">
                      <span>25%</span>
                      <span>75%</span>
                    </p>","d","binary","A","8.25","29","29","1","B","A","75","11","",""
"","","","","","html-keyboard-response","150","474862","0.0-12.0-0.10","046","null","<p style=""text-align: center;"">+</p>","null","fixation","","","","","","","","","","",""
"","","","","","html-keyboard-response","151","476720","0.0-12.0-1.10","046","1857","
                    <p class=""lotteries"">
                      <span><img src='img/A.png', width=""30""></span>
                      <span><img src='img/D.png', width=""30""></span>
                    </p>
                    <p class=""lotteries"">
                      <span>₪71</span>
                      <span>₪43</span>
                    </p>
                    <p class=""lotteries"">
                      <span>45%</span>
                      <span>60%</span>
                    </p>","a","binary","B","31.95","2","2","0","B","A","45","71","",""
"","","","","","html-keyboard-response","152","477558","0.0-12.0-0.11","046","null","<p style=""text-align: center;"">+</p>","null","fixation","","","","","","","","","","",""
"","","","","","html-keyboard-response","153","480504","0.0-12.0-1.11","046","2945","
                    <p class=""lotteries"">
                      <span><img src='img/A.png', width=""30""></span>
                      <span><img src='img/D.png', width=""30""></span>
                    </p>
                    <p class=""lotteries"">
                      <span>₪64</span>
                      <span>₪36</span>
                    </p>
                    <p class=""lotteries"">
                      <span>50%</span>
                      <span>70%</span>
                    </p>","a","binary","B","32","3","3","0","B","A","50","64","",""
"","","","","","html-keyboard-response","154","481232","0.0-12.0-0.12","046","null","<p style=""text-align: center;"">+</p>","null","fixation","","","","","","","","","","",""
"","","","","","html-keyboard-response","155","484280","0.0-12.0-1.12","046","3047","
                    <p class=""lotteries"">
                      <span><img src='img/A.png', width=""30""></span>
                      <span><img src='img/D.png', width=""30""></span>
                    </p>
                    <p class=""lotteries"">
                      <span>₪11</span>
                      <span>₪18</span>
                    </p>
                    <p class=""lotteries"">
                      <span>45%</span>
                      <span>25%</span>
                    </p>","d","binary","A","4.5","14","14","0","B","A","25","18","",""
"","","","","","html-keyboard-response","156","485562","0.0-12.0-0.13","046","null","<p style=""text-align: center;"">+</p>","null","fixation","","","","","","","","","","",""
"","","","","","html-keyboard-response","157","491728","0.0-12.0-1.13","046","6165","
                    <p class=""lotteries"">
                      <span><img src='img/A.png', width=""30""></span>
                      <span><img src='img/D.png', width=""30""></span>
                    </p>
                    <p class=""lotteries"">
                      <span>₪39</span>
                      <span>₪64</span>
                    </p>
                    <p class=""lotteries"">
                      <span>65%</span>
                      <span>50%</span>
                    </p>","d","binary","B","32","1","1","0","A","B","50","64","",""
"","","","","","html-keyboard-response","158","492715","0.0-12.0-0.14","046","null","<p style=""text-align: center;"">+</p>","null","fixation","","","","","","","","","","",""
"","","","","","html-keyboard-response","159","497384","0.0-12.0-1.14","046","4668","
                    <p class=""lotteries"">
                      <span><img src='img/A.png', width=""30""></span>
                      <span><img src='img/D.png', width=""30""></span>
                    </p>
                    <p class=""lotteries"">
                      <span>₪11</span>
                      <span>₪16</span>
                    </p>
                    <p class=""lotteries"">
                      <span>25%</span>
                      <span>20%</span>
                    </p>","d","binary","A","3.2","27","27","0","B","A","20","16","",""
"","","","","","html-keyboard-response","160","498396","0.0-12.0-0.15","046","null","<p style=""text-align: center;"">+</p>","null","fixation","","","","","","","","","","",""
"","","","","","html-keyboard-response","161","500440","0.0-12.0-1.15","046","2043","
                    <p class=""lotteries"">
                      <span><img src='img/A.png', width=""30""></span>
                      <span><img src='img/D.png', width=""30""></span>
                    </p>
                    <p class=""lotteries"">
                      <span>₪11</span>
                      <span>₪4</span>
                    </p>
                    <p class=""lotteries"">
                      <span>25%</span>
                      <span>75%</span>
                    </p>","a","binary","A","2.75","12","12","0","A","B","25","11","",""
"","","","","","html-keyboard-response","162","501542","0.0-12.0-0.16","046","null","<p style=""text-align: center;"">+</p>","null","fixation","","","","","","","","","","",""
"","","","","","html-keyboard-response","163","504184","0.0-12.0-1.16","046","2641","
                    <p class=""lotteries"">
                      <span><img src='img/A.png', width=""30""></span>
                      <span><img src='img/D.png', width=""30""></span>
                    </p>
                    <p class=""lotteries"">
                      <span>₪79</span>
                      <span>₪43</span>
                    </p>
                    <p class=""lotteries"">
                      <span>40%</span>
                      <span>60%</span>
                    </p>","a","binary","B","31.6","9","9","0","B","A","40","79","",""
"","","","","","html-keyboard-response","164","505084","0.0-12.0-0.17","046","null","<p style=""text-align: center;"">+</p>","null","fixation","","","","","","","","","","",""
"","","","","","html-keyboard-response","165","507925","0.0-12.0-1.17","046","2840","
                    <p class=""lotteries"">
                      <span><img src='img/A.png', width=""30""></span>
                      <span><img src='img/D.png', width=""30""></span>
                    </p>
                    <p class=""lotteries"">
                      <span>₪64</span>
                      <span>₪11</span>
                    </p>
                    <p class=""lotteries"">
                      <span>25%</span>
                      <span>75%</span>
                    </p>","a","binary","A","16","6","6","0","A","B","25","64","",""
"","","","","","html-keyboard-response","166","508442","0.0-12.0-0.18","046","null","<p style=""text-align: center;"">+</p>","null","fixation","","","","","","","","","","",""
"","","","","","html-keyboard-response","167","512054","0.0-12.0-1.18","046","3611","
                    <p class=""lotteries"">
                      <span><img src='img/A.png', width=""30""></span>
                      <span><img src='img/D.png', width=""30""></span>
                    </p>
                    <p class=""lotteries"">
                      <span>₪11</span>
                      <span>₪58</span>
                    </p>
                    <p class=""lotteries"">
                      <span>25%</span>
                      <span>30%</span>
                    </p>","d","binary","A","17.4","30","30","1","B","A","30","58","",""
"","","","","","html-keyboard-response","168","513371","0.0-12.0-0.19","046","null","<p style=""text-align: center;"">+</p>","null","fixation","","","","","","","","","","",""
"","","","","","html-keyboard-response","169","516917","0.0-12.0-1.19","046","3545","
                    <p class=""lotteries"">
                      <span><img src='img/A.png', width=""30""></span>
                      <span><img src='img/D.png', width=""30""></span>
                    </p>
                    <p class=""lotteries"">
                      <span>₪43</span>
                      <span>₪76</span>
                    </p>
                    <p class=""lotteries"">
                      <span>75%</span>
                      <span>65%</span>
                    </p>","d","binary","A","49.4","19","19","0","B","A","65","76","",""
"","","","","","html-keyboard-response","170","517627","0.0-12.0-0.20","046","null","<p style=""text-align: center;"">+</p>","null","fixation","","","","","","","","","","",""
"","","","","","html-keyboard-response","171","523493","0.0-12.0-1.20","046","5864","
                    <p class=""lotteries"">
                      <span><img src='img/A.png', width=""30""></span>
                      <span><img src='img/D.png', width=""30""></span>
                    </p>
                    <p class=""lotteries"">
                      <span>₪61</span>
                      <span>₪43</span>
                    </p>
                    <p class=""lotteries"">
                      <span>55%</span>
                      <span>60%</span>
                    </p>","a","binary","B","33.55","7","7","0","B","A","55","61","",""
"","","","","","html-keyboard-response","172","524023","0.0-12.0-0.21","046","null","<p style=""text-align: center;"">+</p>","null","fixation","","","","","","","","","","",""
"","","","","","html-keyboard-response","173","528549","0.0-12.0-1.21","046","4524","
                    <p class=""lotteries"">
                      <span><img src='img/A.png', width=""30""></span>
                      <span><img src='img/D.png', width=""30""></span>
                    </p>
                    <p class=""lotteries"">
                      <span>₪64</span>
                      <span>₪58</span>
                    </p>
                    <p class=""lotteries"">
                      <span>25%</span>
                      <span>40%</span>
                    </p>","d","binary","B","23.2","21","21","0","A","B","40","58","",""
"","","","","","html-keyboard-response","174","529808","0.0-12.0-0.22","046","null","<p style=""text-align: center;"">+</p>","null","fixation","","","","","","","","","","",""
"","","","","","html-keyboard-response","175","543173","0.0-12.0-1.22","046","13364","
                    <p class=""lotteries"">
                      <span><img src='img/A.png', width=""30""></span>
                      <span><img src='img/D.png', width=""30""></span>
                    </p>
                    <p class=""lotteries"">
                      <span>₪18</span>
                      <span>₪36</span>
                    </p>
                    <p class=""lotteries"">
                      <span>50%</span>
                      <span>30%</span>
                    </p>","d","binary","A","10.8","22","22","0","B","A","30","36","",""
"","","","","","html-keyboard-response","176","544129","0.0-12.0-0.23","046","null","<p style=""text-align: center;"">+</p>","null","fixation","","","","","","","","","","",""
"","","","","","html-keyboard-response","177","549933","0.0-12.0-1.23","046","5803","
                    <p class=""lotteries"">
                      <span><img src='img/A.png', width=""30""></span>
                      <span><img src='img/D.png', width=""30""></span>
                    </p>
                    <p class=""lotteries"">
                      <span>₪61</span>
                      <span>₪43</span>
                    </p>
                    <p class=""lotteries"">
                      <span>55%</span>
                      <span>75%</span>
                    </p>","a","binary","B","33.55","26","26","0","B","A","55","61","",""
"","","","","","html-keyboard-response","178","550848","0.0-12.0-0.24","046","null","<p style=""text-align: center;"">+</p>","null","fixation","","","","","","","","","","",""
"","","","","","html-keyboard-response","179","554277","0.0-12.0-1.24","046","3427","
                    <p class=""lotteries"">
                      <span><img src='img/A.png', width=""30""></span>
                      <span><img src='img/D.png', width=""30""></span>
                    </p>
                    <p class=""lotteries"">
                      <span>₪43</span>
                      <span>₪76</span>
                    </p>
                    <p class=""lotteries"">
                      <span>75%</span>
                      <span>65%</span>
                    </p>","d","binary","B","49.4","24","24","0","A","B","65","76","",""
"","","","","","html-keyboard-response","180","555509","0.0-12.0-0.25","046","null","<p style=""text-align: center;"">+</p>","null","fixation","","","","","","","","","","",""
"","","","","","html-keyboard-response","181","569773","0.0-12.0-1.25","046","14263","
                    <p class=""lotteries"">
                      <span><img src='img/A.png', width=""30""></span>
                      <span><img src='img/D.png', width=""30""></span>
                    </p>
                    <p class=""lotteries"">
                      <span>₪39</span>
                      <span>₪58</span>
                    </p>
                    <p class=""lotteries"">
                      <span>60%</span>
                      <span>45%</span>
                    </p>","d","binary","A","26.1","25","25","0","B","A","45","58","",""
"","","","","","html-keyboard-response","182","570384","0.0-12.0-0.26","046","null","<p style=""text-align: center;"">+</p>","null","fixation","","","","","","","","","","",""
"","","","","","html-keyboard-response","183","578229","0.0-12.0-1.26","046","7844","
                    <p class=""lotteries"">
                      <span><img src='img/A.png', width=""30""></span>
                      <span><img src='img/D.png', width=""30""></span>
                    </p>
                    <p class=""lotteries"">
                      <span>₪58</span>
                      <span>₪36</span>
                    </p>
                    <p class=""lotteries"">
                      <span>40%</span>
                      <span>75%</span>
                    </p>","a","binary","A","23.2","13","13","0","A","B","40","58","",""
"","","","","","html-keyboard-response","184","579318","0.0-12.0-0.27","046","null","<p style=""text-align: center;"">+</p>","null","fixation","","","","","","","","","","",""
"","","","","","html-keyboard-response","185","581005","0.0-12.0-1.27","046","1686","
                    <p class=""lotteries"">
                      <span><img src='img/A.png', width=""30""></span>
                      <span><img src='img/D.png', width=""30""></span>
                    </p>
                    <p class=""lotteries"">
                      <span>₪11</span>
                      <span>₪18</span>
                    </p>
                    <p class=""lotteries"">
                      <span>25%</span>
                      <span>50%</span>
                    </p>","d","binary","A","9","28","28","1","B","A","50","18","",""
"","","","","","html-keyboard-response","186","582508","0.0-12.0-0.28","046","null","<p style=""text-align: center;"">+</p>","null","fixation","","","","","","","","","","",""
"","","","","","html-keyboard-response","187","585469","0.0-12.0-1.28","046","2959","
                    <p class=""lotteries"">
                      <span><img src='img/A.png', width=""30""></span>
                      <span><img src='img/D.png', width=""30""></span>
                    </p>
                    <p class=""lotteries"">
                      <span>₪71</span>
                      <span>₪36</span>
                    </p>
                    <p class=""lotteries"">
                      <span>45%</span>
                      <span>75%</span>
                    </p>","a","binary","A","31.95","16","16","0","A","B","45","71","",""
"","","","","","html-keyboard-response","188","586366","0.0-12.0-0.29","046","null","<p style=""text-align: center;"">+</p>","null","fixation","","","","","","","","","","",""
"","","","","","html-keyboard-response","189","588495","0.0-12.0-1.29","046","2128","
                    <p class=""lotteries"">
                      <span><img src='img/A.png', width=""30""></span>
                      <span><img src='img/D.png', width=""30""></span>
                    </p>
                    <p class=""lotteries"">
                      <span>₪61</span>
                      <span>₪43</span>
                    </p>
                    <p class=""lotteries"">
                      <span>45%</span>
                      <span>75%</span>
                    </p>","a","binary","A","27.45","11","11","0","A","B","45","61","",""
"","","","","","html-keyboard-response","190","589507","0.0-13.0","046","null","<p style=""text-align: center;"">+</p>","null","fixation","","","","","","","","","","",""
"","","","","","html-keyboard-response","191","590210","0.0-14.0","046","null","","null","delay","","","","","","","","","","",""
"","","","","","html-keyboard-response","192","607117","0.0-15.0","046","16906","<h1>הסוף</h1>
        <p>אנו מודים לכם על ההשתתפות!
        <p>כעת נשחק את אחת ההגרלות שבחרתם, באחד משני החלקים.
        <br>אנא קראו לנו להרצת ההגרלות.</p>"," ","","","","","","","","","","","",""
"","","","","","survey","193","626620","0.0-16.0","046","19393","","{""Gender"":""נקבה"",""Hand"":""ימין"",""Glasses"":""כן"",""Age"":""23""}","","","","","","","","","","","","[]"
