"success","timeout","failed_images","failed_audio","failed_video","trial_type","trial_index","time_elapsed","internal_node_id","subject_id","rt","stimulus","response","part","actual_choice","actual_EV","binary_id","trinary_id","catch","direction","A_key","S_key","D_key","choice_prob","choice_amount","chosen_part","accuracy"
"true","false","[]","[]","[]","preload","0","41","0.0-0.0","049","","","","","","","","","","","","","","","","",""
"","","","","","html-keyboard-response","1","745","0.0-1.0","049","null","","null","delay","","","","","","","","","","","","",""
"","","","","","html-keyboard-response","2","20908","0.0-2.0","049","20162","
          <h1>חלק 2</h1>
          <p>ברוכים הבאים לחלק 2 של הניסוי.
          <br>בחלק זה יוצגו בפניכם שלוש הגרלות.
          <br>אתם מתבקשים לבחור את ההגרלה שתרצו להשתתף בה.
          <br>שימו לב! בסוף הניסוי נבחר שלב אחד באקראי ונממש את ההגרלה שבחרתם בו. כלומר, הבחירה שלכם יכולה להפוך לכסף אמיתי.
          <br><br>לחצו רווח כדי להמשיך.</p>"," ","","","","","","","","","","","","","",""
"","","","","","html-keyboard-response","3","37340","0.0-3.0","049","15725","
          <p>בואו נתחיל בדוגמה:
          <br>לפניכם שלוש הגרלות.
          <br>לחצו 'A' אם אתם מעדיפים את ההגרלה השמאלית
          <br>לחצו 'S' אם אתם מעדיפים את ההגרלה האמצעית
          <br>לחצו 'D' אם אתם מעדיפים את ההגרלה הימנית
          <p class=""lotteries"">
            <span><img src='img/A.png', width=""30""></span>
            <span><img src='img/S.png', width=""30""></span>
            <span><img src='img/D.png', width=""30""></span>
          </p>
          <p class=""lotteries"">
            <span>₪39</span>
            <span>₪46</span>
            <span>₪54</span>
          </p>
          <p class=""lotteries"">
            <span>65%</span>
            <span>40%</span>
            <span>35%</span>
          </p>","s","example","","","","","","","","","","","","",""
"","","","","","html-keyboard-response","4","45796","0.0-4.0","049","7748","<p>עבודה טובה!
                  <br>בחרתם את ההגרלה האמצעית.  
                  <br>בואו ננסה דוגמה נוספת:
                  <p class=""lotteries"">
                    <span><img src='img/A.png', width=""30""></span>
                    <span><img src='img/S.png', width=""30""></span>
                    <span><img src='img/D.png', width=""30""></span>
                  </p>
                  <p class=""lotteries"">
                    <span>₪29</span>
                    <span>₪18</span>
                    <span>₪43</span>
                  </p>
                  <p class=""lotteries"">
                    <span>30%</span>
                    <span>50%</span>
                    <span>65%</span>
                  </p>","d","example","","","","","","","","","","","","",""
"","","","","","html-keyboard-response","5","52190","0.0-5.0","049","5676","<p>בחרתם את ההגרלה הימנית. נשמע נכון?
                  <br><br>כעת נתחיל בניסוי.
                  <br>אתם תראו שלשות של הגרלות ותתבקשו לבחור את ההגרלה המועדפת עליכם.
                  <br>חלק זה לא מוגבל בזמן.
                  <br><br>לחצו רווח כדי להתחיל את הניסוי.</p>"," ","","","","","","","","","","","","","",""
"","","","","","html-keyboard-response","6","54315","0.0-6.0-0.0","049","null","<p style=""text-align: center;"">+</p>","null","fixation","","","","","","","","","","","","",""
"","","","","","html-keyboard-response","7","61845","0.0-6.0-1.0","049","7525","
                    <p class=""lotteries"">
                      <span><img src='img/A.png', width=""30""></span>
                      <span><img src='img/S.png', width=""30""></span>
                      <span><img src='img/D.png', width=""30""></span>
                    </p>
                    <p class=""lotteries"">
                      <span>₪76</span>
                      <span>₪71</span>
                      <span>₪79</span>
                    </p>
                    <p class=""lotteries"">
                      <span>65%</span>
                      <span>75%</span>
                      <span>65%</span>
                    </p>","s","trinary","B","53.25","8","8","0","A","C","B","A","75","71","",""
"","","","","","html-keyboard-response","8","62952","0.0-6.0-0.1","049","null","<p style=""text-align: center;"">+</p>","null","fixation","","","","","","","","","","","","",""
"","","","","","html-keyboard-response","9","70669","0.0-6.0-1.1","049","7715","
                    <p class=""lotteries"">
                      <span><img src='img/A.png', width=""30""></span>
                      <span><img src='img/S.png', width=""30""></span>
                      <span><img src='img/D.png', width=""30""></span>
                    </p>
                    <p class=""lotteries"">
                      <span>₪11</span>
                      <span>₪39</span>
                      <span>₪58</span>
                    </p>
                    <p class=""lotteries"">
                      <span>45%</span>
                      <span>60%</span>
                      <span>45%</span>
                    </p>","d","trinary","A","26.1","25","25","0","A","C","B","A","45","58","",""
"","","","","","html-keyboard-response","10","71583","0.0-6.0-0.2","049","null","<p style=""text-align: center;"">+</p>","null","fixation","","","","","","","","","","","","",""
"","","","","","html-keyboard-response","11","74869","0.0-6.0-1.2","049","3284","
                    <p class=""lotteries"">
                      <span><img src='img/A.png', width=""30""></span>
                      <span><img src='img/S.png', width=""30""></span>
                      <span><img src='img/D.png', width=""30""></span>
                    </p>
                    <p class=""lotteries"">
                      <span>₪4</span>
                      <span>₪58</span>
                      <span>₪11</span>
                    </p>
                    <p class=""lotteries"">
                      <span>25%</span>
                      <span>30%</span>
                      <span>25%</span>
                    </p>","s","trinary","A","17.4","30","30","1","-","C","A","B","30","58","",""
"","","","","","html-keyboard-response","12","75782","0.0-6.0-0.3","049","null","<p style=""text-align: center;"">+</p>","null","fixation","","","","","","","","","","","","",""
"","","","","","html-keyboard-response","13","82101","0.0-6.0-1.3","049","6317","
                    <p class=""lotteries"">
                      <span><img src='img/A.png', width=""30""></span>
                      <span><img src='img/S.png', width=""30""></span>
                      <span><img src='img/D.png', width=""30""></span>
                    </p>
                    <p class=""lotteries"">
                      <span>₪39</span>
                      <span>₪79</span>
                      <span>₪43</span>
                    </p>
                    <p class=""lotteries"">
                      <span>60%</span>
                      <span>40%</span>
                      <span>60%</span>
                    </p>","d","trinary","A","25.8","9","9","0","A","C","B","A","60","43","",""
"","","","","","html-keyboard-response","14","82954","0.0-6.0-0.4","049","null","<p style=""text-align: center;"">+</p>","null","fixation","","","","","","","","","","","","",""
"","","","","","html-keyboard-response","15","87333","0.0-6.0-1.4","049","4377","
                    <p class=""lotteries"">
                      <span><img src='img/A.png', width=""30""></span>
                      <span><img src='img/S.png', width=""30""></span>
                      <span><img src='img/D.png', width=""30""></span>
                    </p>
                    <p class=""lotteries"">
                      <span>₪4</span>
                      <span>₪18</span>
                      <span>₪11</span>
                    </p>
                    <p class=""lotteries"">
                      <span>75%</span>
                      <span>25%</span>
                      <span>20%</span>
                    </p>","s","trinary","A","4.5","23","23","0","A","B","A","C","25","18","",""
"","","","","","html-keyboard-response","16","87919","0.0-6.0-0.5","049","null","<p style=""text-align: center;"">+</p>","null","fixation","","","","","","","","","","","","",""
"","","","","","html-keyboard-response","17","91124","0.0-6.0-1.5","049","3204","
                    <p class=""lotteries"">
                      <span><img src='img/A.png', width=""30""></span>
                      <span><img src='img/S.png', width=""30""></span>
                      <span><img src='img/D.png', width=""30""></span>
                    </p>
                    <p class=""lotteries"">
                      <span>₪16</span>
                      <span>₪11</span>
                      <span>₪18</span>
                    </p>
                    <p class=""lotteries"">
                      <span>20%</span>
                      <span>45%</span>
                      <span>25%</span>
                    </p>","s","trinary","B","4.95","14","14","0","A","C","B","A","45","11","",""
"","","","","","html-keyboard-response","18","92110","0.0-6.0-0.6","049","null","<p style=""text-align: center;"">+</p>","null","fixation","","","","","","","","","","","","",""
"","","","","","html-keyboard-response","19","95701","0.0-6.0-1.6","049","3589","
                    <p class=""lotteries"">
                      <span><img src='img/A.png', width=""30""></span>
                      <span><img src='img/S.png', width=""30""></span>
                      <span><img src='img/D.png', width=""30""></span>
                    </p>
                    <p class=""lotteries"">
                      <span>₪4</span>
                      <span>₪11</span>
                      <span>₪64</span>
                    </p>
                    <p class=""lotteries"">
                      <span>25%</span>
                      <span>75%</span>
                      <span>25%</span>
                    </p>","d","trinary","A","16","6","6","0","B","C","B","A","25","64","",""
"","","","","","html-keyboard-response","20","96990","0.0-6.0-0.7","049","null","<p style=""text-align: center;"">+</p>","null","fixation","","","","","","","","","","","","",""
"","","","","","html-keyboard-response","21","100773","0.0-6.0-1.7","049","3782","
                    <p class=""lotteries"">
                      <span><img src='img/A.png', width=""30""></span>
                      <span><img src='img/S.png', width=""30""></span>
                      <span><img src='img/D.png', width=""30""></span>
                    </p>
                    <p class=""lotteries"">
                      <span>₪4</span>
                      <span>₪11</span>
                      <span>₪16</span>
                    </p>
                    <p class=""lotteries"">
                      <span>50%</span>
                      <span>20%</span>
                      <span>20%</span>
                    </p>","d","trinary","A","3.2","17","17","0","A","B","C","A","20","16","",""
"","","","","","html-keyboard-response","22","101806","0.0-6.0-0.8","049","null","<p style=""text-align: center;"">+</p>","null","fixation","","","","","","","","","","","","",""
"","","","","","html-keyboard-response","23","106557","0.0-6.0-1.8","049","4749","
                    <p class=""lotteries"">
                      <span><img src='img/A.png', width=""30""></span>
                      <span><img src='img/S.png', width=""30""></span>
                      <span><img src='img/D.png', width=""30""></span>
                    </p>
                    <p class=""lotteries"">
                      <span>₪11</span>
                      <span>₪58</span>
                      <span>₪64</span>
                    </p>
                    <p class=""lotteries"">
                      <span>45%</span>
                      <span>40%</span>
                      <span>25%</span>
                    </p>","s","trinary","B","23.2","21","21","0","-","C","B","A","40","58","",""
"","","","","","html-keyboard-response","24","107887","0.0-6.0-0.9","049","null","<p style=""text-align: center;"">+</p>","null","fixation","","","","","","","","","","","","",""
"","","","","","html-keyboard-response","25","111268","0.0-6.0-1.9","049","3379","
                    <p class=""lotteries"">
                      <span><img src='img/A.png', width=""30""></span>
                      <span><img src='img/S.png', width=""30""></span>
                      <span><img src='img/D.png', width=""30""></span>
                    </p>
                    <p class=""lotteries"">
                      <span>₪4</span>
                      <span>₪4</span>
                      <span>₪11</span>
                    </p>
                    <p class=""lotteries"">
                      <span>75%</span>
                      <span>25%</span>
                      <span>75%</span>
                    </p>","d","trinary","A","8.25","29","29","1","-","C","B","A","75","11","",""
"","","","","","html-keyboard-response","26","112345","0.0-6.0-0.10","049","null","<p style=""text-align: center;"">+</p>","null","fixation","","","","","","","","","","","","",""
"","","","","","html-keyboard-response","27","118134","0.0-6.0-1.10","049","5788","
                    <p class=""lotteries"">
                      <span><img src='img/A.png', width=""30""></span>
                      <span><img src='img/S.png', width=""30""></span>
                      <span><img src='img/D.png', width=""30""></span>
                    </p>
                    <p class=""lotteries"">
                      <span>₪61</span>
                      <span>₪58</span>
                      <span>₪43</span>
                    </p>
                    <p class=""lotteries"">
                      <span>45%</span>
                      <span>45%</span>
                      <span>75%</span>
                    </p>","d","trinary","B","32.25","11","11","0","A","A","C","B","75","43","",""
"","","","","","html-keyboard-response","28","118710","0.0-6.0-0.11","049","null","<p style=""text-align: center;"">+</p>","null","fixation","","","","","","","","","","","","",""
"","","","","","html-keyboard-response","29","126517","0.0-6.0-1.11","049","7806","
                    <p class=""lotteries"">
                      <span><img src='img/A.png', width=""30""></span>
                      <span><img src='img/S.png', width=""30""></span>
                      <span><img src='img/D.png', width=""30""></span>
                    </p>
                    <p class=""lotteries"">
                      <span>₪16</span>
                      <span>₪36</span>
                      <span>₪4</span>
                    </p>
                    <p class=""lotteries"">
                      <span>20%</span>
                      <span>30%</span>
                      <span>75%</span>
                    </p>","s","trinary","A","10.8","20","20","0","A","C","A","B","30","36","",""
"","","","","","html-keyboard-response","30","127549","0.0-6.0-0.12","049","null","<p style=""text-align: center;"">+</p>","null","fixation","","","","","","","","","","","","",""
"","","","","","html-keyboard-response","31","141181","0.0-6.0-1.12","049","13631","
                    <p class=""lotteries"">
                      <span><img src='img/A.png', width=""30""></span>
                      <span><img src='img/S.png', width=""30""></span>
                      <span><img src='img/D.png', width=""30""></span>
                    </p>
                    <p class=""lotteries"">
                      <span>₪58</span>
                      <span>₪58</span>
                      <span>₪36</span>
                    </p>
                    <p class=""lotteries"">
                      <span>30%</span>
                      <span>40%</span>
                      <span>75%</span>
                    </p>","d","trinary","B","27","13","13","0","A","C","A","B","75","36","",""
"","","","","","html-keyboard-response","32","142089","0.0-6.0-0.13","049","null","<p style=""text-align: center;"">+</p>","null","fixation","","","","","","","","","","","","",""
"","","","","","html-keyboard-response","33","146406","0.0-6.0-1.13","049","4315","
                    <p class=""lotteries"">
                      <span><img src='img/A.png', width=""30""></span>
                      <span><img src='img/S.png', width=""30""></span>
                      <span><img src='img/D.png', width=""30""></span>
                    </p>
                    <p class=""lotteries"">
                      <span>₪43</span>
                      <span>₪76</span>
                      <span>₪11</span>
                    </p>
                    <p class=""lotteries"">
                      <span>75%</span>
                      <span>65%</span>
                      <span>75%</span>
                    </p>","s","trinary","B","49.4","24","24","0","A","A","B","C","65","76","",""
"","","","","","html-keyboard-response","34","147914","0.0-6.0-0.14","049","null","<p style=""text-align: center;"">+</p>","null","fixation","","","","","","","","","","","","",""
"","","","","","html-keyboard-response","35","156381","0.0-6.0-1.14","049","8465","
                    <p class=""lotteries"">
                      <span><img src='img/A.png', width=""30""></span>
                      <span><img src='img/S.png', width=""30""></span>
                      <span><img src='img/D.png', width=""30""></span>
                    </p>
                    <p class=""lotteries"">
                      <span>₪61</span>
                      <span>₪36</span>
                      <span>₪43</span>
                    </p>
                    <p class=""lotteries"">
                      <span>55%</span>
                      <span>60%</span>
                      <span>60%</span>
                    </p>","a","trinary","B","33.55","7","7","0","A","B","C","A","55","61","",""
"","","","","","html-keyboard-response","36","157819","0.0-6.0-0.15","049","null","<p style=""text-align: center;"">+</p>","null","fixation","","","","","","","","","","","","",""
"","","","","","html-keyboard-response","37","161693","0.0-6.0-1.15","049","3872","
                    <p class=""lotteries"">
                      <span><img src='img/A.png', width=""30""></span>
                      <span><img src='img/S.png', width=""30""></span>
                      <span><img src='img/D.png', width=""30""></span>
                    </p>
                    <p class=""lotteries"">
                      <span>₪64</span>
                      <span>₪36</span>
                      <span>₪4</span>
                    </p>
                    <p class=""lotteries"">
                      <span>50%</span>
                      <span>75%</span>
                      <span>50%</span>
                    </p>","s","trinary","B","27","4","4","0","A","A","B","C","75","36","",""
"","","","","","html-keyboard-response","38","162401","0.0-6.0-0.16","049","null","<p style=""text-align: center;"">+</p>","null","fixation","","","","","","","","","","","","",""
"","","","","","html-keyboard-response","39","171893","0.0-6.0-1.16","049","9490","
                    <p class=""lotteries"">
                      <span><img src='img/A.png', width=""30""></span>
                      <span><img src='img/S.png', width=""30""></span>
                      <span><img src='img/D.png', width=""30""></span>
                    </p>
                    <p class=""lotteries"">
                      <span>₪36</span>
                      <span>₪64</span>
                      <span>₪36</span>
                    </p>
                    <p class=""lotteries"">
                      <span>70%</span>
                      <span>50%</span>
                      <span>30%</span>
                    </p>","s","trinary","B","32","3","3","0","-","A","B","C","50","64","",""
"","","","","","html-keyboard-response","40","173259","0.0-6.0-0.17","049","null","<p style=""text-align: center;"">+</p>","null","fixation","","","","","","","","","","","","",""
"","","","","","html-keyboard-response","41","177341","0.0-6.0-1.17","049","4081","
                    <p class=""lotteries"">
                      <span><img src='img/A.png', width=""30""></span>
                      <span><img src='img/S.png', width=""30""></span>
                      <span><img src='img/D.png', width=""30""></span>
                    </p>
                    <p class=""lotteries"">
                      <span>₪39</span>
                      <span>₪43</span>
                      <span>₪36</span>
                    </p>
                    <p class=""lotteries"">
                      <span>65%</span>
                      <span>60%</span>
                      <span>60%</span>
                    </p>","a","trinary","A","25.35","15","15","0","-","A","B","C","65","39","",""
"","","","","","html-keyboard-response","42","178488","0.0-6.0-0.18","049","null","<p style=""text-align: center;"">+</p>","null","fixation","","","","","","","","","","","","",""
"","","","","","html-keyboard-response","43","188413","0.0-6.0-1.18","049","9923","
                    <p class=""lotteries"">
                      <span><img src='img/A.png', width=""30""></span>
                      <span><img src='img/S.png', width=""30""></span>
                      <span><img src='img/D.png', width=""30""></span>
                    </p>
                    <p class=""lotteries"">
                      <span>₪36</span>
                      <span>₪18</span>
                      <span>₪71</span>
                    </p>
                    <p class=""lotteries"">
                      <span>75%</span>
                      <span>50%</span>
                      <span>45%</span>
                    </p>","d","trinary","A","31.95","16","16","0","A","B","C","A","45","71","",""
"","","","","","html-keyboard-response","44","189117","0.0-6.0-0.19","049","null","<p style=""text-align: center;"">+</p>","null","fixation","","","","","","","","","","","","",""
"","","","","","html-keyboard-response","45","193173","0.0-6.0-1.19","049","4054","
                    <p class=""lotteries"">
                      <span><img src='img/A.png', width=""30""></span>
                      <span><img src='img/S.png', width=""30""></span>
                      <span><img src='img/D.png', width=""30""></span>
                    </p>
                    <p class=""lotteries"">
                      <span>₪39</span>
                      <span>₪61</span>
                      <span>₪43</span>
                    </p>
                    <p class=""lotteries"">
                      <span>65%</span>
                      <span>55%</span>
                      <span>75%</span>
                    </p>","d","trinary","A","32.25","26","26","0","A","C","B","A","75","43","",""
"","","","","","html-keyboard-response","46","194664","0.0-6.0-0.20","049","null","<p style=""text-align: center;"">+</p>","null","fixation","","","","","","","","","","","","",""
"","","","","","html-keyboard-response","47","200197","0.0-6.0-1.20","049","5531","
                    <p class=""lotteries"">
                      <span><img src='img/A.png', width=""30""></span>
                      <span><img src='img/S.png', width=""30""></span>
                      <span><img src='img/D.png', width=""30""></span>
                    </p>
                    <p class=""lotteries"">
                      <span>₪11</span>
                      <span>₪16</span>
                      <span>₪4</span>
                    </p>
                    <p class=""lotteries"">
                      <span>25%</span>
                      <span>20%</span>
                      <span>75%</span>
                    </p>","s","trinary","A","3.2","27","27","0","-","B","A","C","20","16","",""
"","","","","","html-keyboard-response","48","201322","0.0-6.0-0.21","049","null","<p style=""text-align: center;"">+</p>","null","fixation","","","","","","","","","","","","",""
"","","","","","html-keyboard-response","49","209485","0.0-6.0-1.21","049","8162","
                    <p class=""lotteries"">
                      <span><img src='img/A.png', width=""30""></span>
                      <span><img src='img/S.png', width=""30""></span>
                      <span><img src='img/D.png', width=""30""></span>
                    </p>
                    <p class=""lotteries"">
                      <span>₪11</span>
                      <span>₪11</span>
                      <span>₪4</span>
                    </p>
                    <p class=""lotteries"">
                      <span>25%</span>
                      <span>20%</span>
                      <span>75%</span>
                    </p>","a","trinary","A","2.75","12","12","0","A","A","C","B","25","11","",""
"","","","","","html-keyboard-response","50","210933","0.0-6.0-0.22","049","null","<p style=""text-align: center;"">+</p>","null","fixation","","","","","","","","","","","","",""
"","","","","","html-keyboard-response","51","216916","0.0-6.0-1.22","049","5982","
                    <p class=""lotteries"">
                      <span><img src='img/A.png', width=""30""></span>
                      <span><img src='img/S.png', width=""30""></span>
                      <span><img src='img/D.png', width=""30""></span>
                    </p>
                    <p class=""lotteries"">
                      <span>₪36</span>
                      <span>₪64</span>
                      <span>₪39</span>
                    </p>
                    <p class=""lotteries"">
                      <span>60%</span>
                      <span>50%</span>
                      <span>65%</span>
                    </p>","s","trinary","B","32","1","1","0","A","C","B","A","50","64","",""
"","","","","","html-keyboard-response","52","217741","0.0-6.0-0.23","049","null","<p style=""text-align: center;"">+</p>","null","fixation","","","","","","","","","","","","",""
"","","","","","html-keyboard-response","53","227949","0.0-6.0-1.23","049","10206","
                    <p class=""lotteries"">
                      <span><img src='img/A.png', width=""30""></span>
                      <span><img src='img/S.png', width=""30""></span>
                      <span><img src='img/D.png', width=""30""></span>
                    </p>
                    <p class=""lotteries"">
                      <span>₪18</span>
                      <span>₪71</span>
                      <span>₪43</span>
                    </p>
                    <p class=""lotteries"">
                      <span>50%</span>
                      <span>45%</span>
                      <span>60%</span>
                    </p>","s","trinary","B","31.95","2","2","0","A","C","B","A","45","71","",""
"","","","","","html-keyboard-response","54","228712","0.0-6.0-0.24","049","null","<p style=""text-align: center;"">+</p>","null","fixation","","","","","","","","","","","","",""
"","","","","","html-keyboard-response","55","240571","0.0-6.0-1.24","049","11867","
                    <p class=""lotteries"">
                      <span><img src='img/A.png', width=""30""></span>
                      <span><img src='img/S.png', width=""30""></span>
                      <span><img src='img/D.png', width=""30""></span>
                    </p>
                    <p class=""lotteries"">
                      <span>₪36</span>
                      <span>₪61</span>
                      <span>₪58</span>
                    </p>
                    <p class=""lotteries"">
                      <span>70%</span>
                      <span>45%</span>
                      <span>40%</span>
                    </p>","s","trinary","A","27.45","10","10","0","A","B","A","C","45","61","",""
"","","","","","html-keyboard-response","56","241304","0.0-6.0-0.25","049","null","<p style=""text-align: center;"">+</p>","null","fixation","","","","","","","","","","","","",""
"","","","","","html-keyboard-response","57","245547","0.0-6.0-1.25","049","4241","
                    <p class=""lotteries"">
                      <span><img src='img/A.png', width=""30""></span>
                      <span><img src='img/S.png', width=""30""></span>
                      <span><img src='img/D.png', width=""30""></span>
                    </p>
                    <p class=""lotteries"">
                      <span>₪71</span>
                      <span>₪36</span>
                      <span>₪36</span>
                    </p>
                    <p class=""lotteries"">
                      <span>55%</span>
                      <span>75%</span>
                      <span>70%</span>
                    </p>","a","trinary","B","39.05","5","5","0","A","B","A","C","55","71","",""
"","","","","","html-keyboard-response","58","246334","0.0-6.0-0.26","049","null","<p style=""text-align: center;"">+</p>","null","fixation","","","","","","","","","","","","",""
"","","","","","html-keyboard-response","59","256467","0.0-6.0-1.26","049","10132","
                    <p class=""lotteries"">
                      <span><img src='img/A.png', width=""30""></span>
                      <span><img src='img/S.png', width=""30""></span>
                      <span><img src='img/D.png', width=""30""></span>
                    </p>
                    <p class=""lotteries"">
                      <span>₪18</span>
                      <span>₪11</span>
                      <span>₪11</span>
                    </p>
                    <p class=""lotteries"">
                      <span>50%</span>
                      <span>20%</span>
                      <span>25%</span>
                    </p>","a","trinary","A","9","28","28","1","-","A","C","B","50","18","",""
"","","","","","html-keyboard-response","60","257016","0.0-6.0-0.27","049","null","<p style=""text-align: center;"">+</p>","null","fixation","","","","","","","","","","","","",""
"","","","","","html-keyboard-response","61","266539","0.0-6.0-1.27","049","9522","
                    <p class=""lotteries"">
                      <span><img src='img/A.png', width=""30""></span>
                      <span><img src='img/S.png', width=""30""></span>
                      <span><img src='img/D.png', width=""30""></span>
                    </p>
                    <p class=""lotteries"">
                      <span>₪43</span>
                      <span>₪58</span>
                      <span>₪76</span>
                    </p>
                    <p class=""lotteries"">
                      <span>75%</span>
                      <span>40%</span>
                      <span>65%</span>
                    </p>","d","trinary","A","49.4","19","19","0","-","B","C","A","65","76","",""
"","","","","","html-keyboard-response","62","267332","0.0-6.0-0.28","049","null","<p style=""text-align: center;"">+</p>","null","fixation","","","","","","","","","","","","",""
"","","","","","html-keyboard-response","63","272667","0.0-6.0-1.28","049","5333","
                    <p class=""lotteries"">
                      <span><img src='img/A.png', width=""30""></span>
                      <span><img src='img/S.png', width=""30""></span>
                      <span><img src='img/D.png', width=""30""></span>
                    </p>
                    <p class=""lotteries"">
                      <span>₪71</span>
                      <span>₪11</span>
                      <span>₪58</span>
                    </p>
                    <p class=""lotteries"">
                      <span>55%</span>
                      <span>75%</span>
                      <span>45%</span>
                    </p>","a","trinary","A","39.05","18","18","0","A","A","B","C","55","71","",""
"","","","","","html-keyboard-response","64","273668","0.0-6.0-0.29","049","null","<p style=""text-align: center;"">+</p>","null","fixation","","","","","","","","","","","","",""
"","","","","","html-keyboard-response","65","277579","0.0-6.0-1.29","049","3909","
                    <p class=""lotteries"">
                      <span><img src='img/A.png', width=""30""></span>
                      <span><img src='img/S.png', width=""30""></span>
                      <span><img src='img/D.png', width=""30""></span>
                    </p>
                    <p class=""lotteries"">
                      <span>₪11</span>
                      <span>₪36</span>
                      <span>₪18</span>
                    </p>
                    <p class=""lotteries"">
                      <span>75%</span>
                      <span>30%</span>
                      <span>50%</span>
                    </p>","d","trinary","B","9","22","22","0","-","C","A","B","50","18","",""
"","","","","","html-keyboard-response","66","278585","0.0-7.0","049","null","<p style=""text-align: center;"">+</p>","null","fixation","","","","","","","","","","","","",""
"","","","","","html-keyboard-response","67","280363","0.0-8.0","049","1776","<p>הפסקה.
          <br>לחצו על רווח כדי להמשיך.</p>"," ","scan_wait","","","","","","","","","","","","",""
"","","","","","html-keyboard-response","68","280979","0.0-9.0-0.0","049","null","<p style=""text-align: center;"">+</p>","null","fixation","","","","","","","","","","","","",""
"","","","","","html-keyboard-response","69","294891","0.0-9.0-1.0","049","13911","
                    <p class=""lotteries"">
                      <span><img src='img/A.png', width=""30""></span>
                      <span><img src='img/S.png', width=""30""></span>
                      <span><img src='img/D.png', width=""30""></span>
                    </p>
                    <p class=""lotteries"">
                      <span>₪36</span>
                      <span>₪71</span>
                      <span>₪18</span>
                    </p>
                    <p class=""lotteries"">
                      <span>75%</span>
                      <span>45%</span>
                      <span>50%</span>
                    </p>","s","trinary","A","31.95","16","16","0","A","B","A","C","45","71","",""
"","","","","","html-keyboard-response","70","296025","0.0-9.0-0.1","049","null","<p style=""text-align: center;"">+</p>","null","fixation","","","","","","","","","","","","",""
"","","","","","html-keyboard-response","71","306683","0.0-9.0-1.1","049","10649","
                    <p class=""lotteries"">
                      <span><img src='img/A.png', width=""30""></span>
                      <span><img src='img/S.png', width=""30""></span>
                      <span><img src='img/D.png', width=""30""></span>
                    </p>
                    <p class=""lotteries"">
                      <span>₪58</span>
                      <span>₪36</span>
                      <span>₪58</span>
                    </p>
                    <p class=""lotteries"">
                      <span>30%</span>
                      <span>75%</span>
                      <span>40%</span>
                    </p>","d","trinary","A","23.2","13","13","0","A","C","B","A","40","58","",""
"","","","","","html-keyboard-response","72","308036","0.0-9.0-0.2","049","null","<p style=""text-align: center;"">+</p>","null","fixation","","","","","","","","","","","","",""
"","","","","","html-keyboard-response","73","313219","0.0-9.0-1.2","049","5181","
                    <p class=""lotteries"">
                      <span><img src='img/A.png', width=""30""></span>
                      <span><img src='img/S.png', width=""30""></span>
                      <span><img src='img/D.png', width=""30""></span>
                    </p>
                    <p class=""lotteries"">
                      <span>₪36</span>
                      <span>₪39</span>
                      <span>₪64</span>
                    </p>
                    <p class=""lotteries"">
                      <span>60%</span>
                      <span>65%</span>
                      <span>50%</span>
                    </p>","d","trinary","B","32","1","1","0","A","C","A","B","50","64","",""
"","","","","","html-keyboard-response","74","313834","0.0-9.0-0.3","049","null","<p style=""text-align: center;"">+</p>","null","fixation","","","","","","","","","","","","",""
"","","","","","html-keyboard-response","75","321586","0.0-9.0-1.3","049","7751","
                    <p class=""lotteries"">
                      <span><img src='img/A.png', width=""30""></span>
                      <span><img src='img/S.png', width=""30""></span>
                      <span><img src='img/D.png', width=""30""></span>
                    </p>
                    <p class=""lotteries"">
                      <span>₪11</span>
                      <span>₪11</span>
                      <span>₪18</span>
                    </p>
                    <p class=""lotteries"">
                      <span>25%</span>
                      <span>20%</span>
                      <span>50%</span>
                    </p>","d","trinary","A","9","28","28","1","-","B","C","A","50","18","",""
"","","","","","html-keyboard-response","76","322452","0.0-9.0-0.4","049","null","<p style=""text-align: center;"">+</p>","null","fixation","","","","","","","","","","","","",""
"","","","","","html-keyboard-response","77","331403","0.0-9.0-1.4","049","8949","
                    <p class=""lotteries"">
                      <span><img src='img/A.png', width=""30""></span>
                      <span><img src='img/S.png', width=""30""></span>
                      <span><img src='img/D.png', width=""30""></span>
                    </p>
                    <p class=""lotteries"">
                      <span>₪58</span>
                      <span>₪11</span>
                      <span>₪71</span>
                    </p>
                    <p class=""lotteries"">
                      <span>45%</span>
                      <span>75%</span>
                      <span>55%</span>
                    </p>","d","trinary","A","39.05","18","18","0","A","C","B","A","55","71","",""
"","","","","","html-keyboard-response","78","332878","0.0-9.0-0.5","049","null","<p style=""text-align: center;"">+</p>","null","fixation","","","","","","","","","","","","",""
"","","","","","html-keyboard-response","79","339714","0.0-9.0-1.5","049","6835","
                    <p class=""lotteries"">
                      <span><img src='img/A.png', width=""30""></span>
                      <span><img src='img/S.png', width=""30""></span>
                      <span><img src='img/D.png', width=""30""></span>
                    </p>
                    <p class=""lotteries"">
                      <span>₪64</span>
                      <span>₪4</span>
                      <span>₪11</span>
                    </p>
                    <p class=""lotteries"">
                      <span>25%</span>
                      <span>25%</span>
                      <span>75%</span>
                    </p>","a","trinary","A","16","6","6","0","B","A","C","B","25","64","",""
"","","","","","html-keyboard-response","80","340895","0.0-9.0-0.6","049","null","<p style=""text-align: center;"">+</p>","null","fixation","","","","","","","","","","","","",""
"","","","","","html-keyboard-response","81","354354","0.0-9.0-1.6","049","13459","
                    <p class=""lotteries"">
                      <span><img src='img/A.png', width=""30""></span>
                      <span><img src='img/S.png', width=""30""></span>
                      <span><img src='img/D.png', width=""30""></span>
                    </p>
                    <p class=""lotteries"">
                      <span>₪4</span>
                      <span>₪16</span>
                      <span>₪11</span>
                    </p>
                    <p class=""lotteries"">
                      <span>50%</span>
                      <span>20%</span>
                      <span>20%</span>
                    </p>","s","trinary","A","3.2","17","17","0","A","B","A","C","20","16","",""
"","","","","","html-keyboard-response","82","355310","0.0-9.0-0.7","049","null","<p style=""text-align: center;"">+</p>","null","fixation","","","","","","","","","","","","",""
"","","","","","html-keyboard-response","83","358378","0.0-9.0-1.7","049","3067","
                    <p class=""lotteries"">
                      <span><img src='img/A.png', width=""30""></span>
                      <span><img src='img/S.png', width=""30""></span>
                      <span><img src='img/D.png', width=""30""></span>
                    </p>
                    <p class=""lotteries"">
                      <span>₪16</span>
                      <span>₪36</span>
                      <span>₪4</span>
                    </p>
                    <p class=""lotteries"">
                      <span>20%</span>
                      <span>30%</span>
                      <span>75%</span>
                    </p>","s","trinary","A","10.8","20","20","0","A","C","A","B","30","36","",""
"","","","","","html-keyboard-response","84","359296","0.0-9.0-0.8","049","null","<p style=""text-align: center;"">+</p>","null","fixation","","","","","","","","","","","","",""
"","","","","","html-keyboard-response","85","367994","0.0-9.0-1.8","049","8697","
                    <p class=""lotteries"">
                      <span><img src='img/A.png', width=""30""></span>
                      <span><img src='img/S.png', width=""30""></span>
                      <span><img src='img/D.png', width=""30""></span>
                    </p>
                    <p class=""lotteries"">
                      <span>₪61</span>
                      <span>₪36</span>
                      <span>₪43</span>
                    </p>
                    <p class=""lotteries"">
                      <span>55%</span>
                      <span>60%</span>
                      <span>60%</span>
                    </p>","a","trinary","B","33.55","7","7","0","A","B","C","A","55","61","",""
"","","","","","html-keyboard-response","86","368630","0.0-9.0-0.9","049","null","<p style=""text-align: center;"">+</p>","null","fixation","","","","","","","","","","","","",""
"","","","","","html-keyboard-response","87","377370","0.0-9.0-1.9","049","8739","
                    <p class=""lotteries"">
                      <span><img src='img/A.png', width=""30""></span>
                      <span><img src='img/S.png', width=""30""></span>
                      <span><img src='img/D.png', width=""30""></span>
                    </p>
                    <p class=""lotteries"">
                      <span>₪43</span>
                      <span>₪58</span>
                      <span>₪61</span>
                    </p>
                    <p class=""lotteries"">
                      <span>75%</span>
                      <span>45%</span>
                      <span>45%</span>
                    </p>","a","trinary","B","32.25","11","11","0","A","B","C","A","75","43","",""
"","","","","","html-keyboard-response","88","378389","0.0-9.0-0.10","049","null","<p style=""text-align: center;"">+</p>","null","fixation","","","","","","","","","","","","",""
"","","","","","html-keyboard-response","89","381978","0.0-9.0-1.10","049","3588","
                    <p class=""lotteries"">
                      <span><img src='img/A.png', width=""30""></span>
                      <span><img src='img/S.png', width=""30""></span>
                      <span><img src='img/D.png', width=""30""></span>
                    </p>
                    <p class=""lotteries"">
                      <span>₪4</span>
                      <span>₪11</span>
                      <span>₪4</span>
                    </p>
                    <p class=""lotteries"">
                      <span>75%</span>
                      <span>75%</span>
                      <span>25%</span>
                    </p>","s","trinary","A","8.25","29","29","1","-","C","A","B","75","11","",""
"","","","","","html-keyboard-response","90","383347","0.0-9.0-0.11","049","null","<p style=""text-align: center;"">+</p>","null","fixation","","","","","","","","","","","","",""
"","","","","","html-keyboard-response","91","394811","0.0-9.0-1.11","049","11461","
                    <p class=""lotteries"">
                      <span><img src='img/A.png', width=""30""></span>
                      <span><img src='img/S.png', width=""30""></span>
                      <span><img src='img/D.png', width=""30""></span>
                    </p>
                    <p class=""lotteries"">
                      <span>₪43</span>
                      <span>₪79</span>
                      <span>₪39</span>
                    </p>
                    <p class=""lotteries"">
                      <span>60%</span>
                      <span>40%</span>
                      <span>60%</span>
                    </p>","s","trinary","B","31.6","9","9","0","A","A","B","C","40","79","",""
"","","","","","html-keyboard-response","92","395680","0.0-9.0-0.12","049","null","<p style=""text-align: center;"">+</p>","null","fixation","","","","","","","","","","","","",""
"","","","","","html-keyboard-response","93","417842","0.0-9.0-1.12","049","22160","
                    <p class=""lotteries"">
                      <span><img src='img/A.png', width=""30""></span>
                      <span><img src='img/S.png', width=""30""></span>
                      <span><img src='img/D.png', width=""30""></span>
                    </p>
                    <p class=""lotteries"">
                      <span>₪36</span>
                      <span>₪64</span>
                      <span>₪36</span>
                    </p>
                    <p class=""lotteries"">
                      <span>70%</span>
                      <span>50%</span>
                      <span>30%</span>
                    </p>","s","trinary","B","32","3","3","0","-","A","B","C","50","64","",""
"","","","","","html-keyboard-response","94","418745","0.0-9.0-0.13","049","null","<p style=""text-align: center;"">+</p>","null","fixation","","","","","","","","","","","","",""
"","","","","","html-keyboard-response","95","430364","0.0-9.0-1.13","049","11623","
                    <p class=""lotteries"">
                      <span><img src='img/A.png', width=""30""></span>
                      <span><img src='img/S.png', width=""30""></span>
                      <span><img src='img/D.png', width=""30""></span>
                    </p>
                    <p class=""lotteries"">
                      <span>₪36</span>
                      <span>₪11</span>
                      <span>₪18</span>
                    </p>
                    <p class=""lotteries"">
                      <span>30%</span>
                      <span>75%</span>
                      <span>50%</span>
                    </p>","a","trinary","A","10.8","22","22","0","-","A","C","B","30","36","",""
"","","","","","html-keyboard-response","96","430975","0.0-9.0-0.14","049","null","<p style=""text-align: center;"">+</p>","null","fixation","","","","","","","","","","","","",""
"","","","","","html-keyboard-response","97","437228","0.0-9.0-1.14","049","6252","
                    <p class=""lotteries"">
                      <span><img src='img/A.png', width=""30""></span>
                      <span><img src='img/S.png', width=""30""></span>
                      <span><img src='img/D.png', width=""30""></span>
                    </p>
                    <p class=""lotteries"">
                      <span>₪39</span>
                      <span>₪36</span>
                      <span>₪43</span>
                    </p>
                    <p class=""lotteries"">
                      <span>65%</span>
                      <span>60%</span>
                      <span>60%</span>
                    </p>","a","trinary","A","25.35","15","15","0","-","A","C","B","65","39","",""
"","","","","","html-keyboard-response","98","438435","0.0-9.0-0.15","049","null","<p style=""text-align: center;"">+</p>","null","fixation","","","","","","","","","","","","",""
"","","","","","html-keyboard-response","99","442572","0.0-9.0-1.15","049","4136","
                    <p class=""lotteries"">
                      <span><img src='img/A.png', width=""30""></span>
                      <span><img src='img/S.png', width=""30""></span>
                      <span><img src='img/D.png', width=""30""></span>
                    </p>
                    <p class=""lotteries"">
                      <span>₪11</span>
                      <span>₪58</span>
                      <span>₪39</span>
                    </p>
                    <p class=""lotteries"">
                      <span>45%</span>
                      <span>45%</span>
                      <span>60%</span>
                    </p>","s","trinary","A","26.1","25","25","0","A","C","A","B","45","58","",""
"","","","","","html-keyboard-response","100","443627","0.0-9.0-0.16","049","null","<p style=""text-align: center;"">+</p>","null","fixation","","","","","","","","","","","","",""
"","","","","","html-keyboard-response","101","446236","0.0-9.0-1.16","049","2608","
                    <p class=""lotteries"">
                      <span><img src='img/A.png', width=""30""></span>
                      <span><img src='img/S.png', width=""30""></span>
                      <span><img src='img/D.png', width=""30""></span>
                    </p>
                    <p class=""lotteries"">
                      <span>₪36</span>
                      <span>₪36</span>
                      <span>₪71</span>
                    </p>
                    <p class=""lotteries"">
                      <span>70%</span>
                      <span>75%</span>
                      <span>55%</span>
                    </p>","d","trinary","B","39.05","5","5","0","A","C","A","B","55","71","",""
"","","","","","html-keyboard-response","102","446872","0.0-9.0-0.17","049","null","<p style=""text-align: center;"">+</p>","null","fixation","","","","","","","","","","","","",""
"","","","","","html-keyboard-response","103","450636","0.0-9.0-1.17","049","3763","
                    <p class=""lotteries"">
                      <span><img src='img/A.png', width=""30""></span>
                      <span><img src='img/S.png', width=""30""></span>
                      <span><img src='img/D.png', width=""30""></span>
                    </p>
                    <p class=""lotteries"">
                      <span>₪11</span>
                      <span>₪64</span>
                      <span>₪58</span>
                    </p>
                    <p class=""lotteries"">
                      <span>45%</span>
                      <span>25%</span>
                      <span>40%</span>
                    </p>","d","trinary","B","23.2","21","21","0","-","C","A","B","40","58","",""
"","","","","","html-keyboard-response","104","451303","0.0-9.0-0.18","049","null","<p style=""text-align: center;"">+</p>","null","fixation","","","","","","","","","","","","",""
"","","","","","html-keyboard-response","105","456492","0.0-9.0-1.18","049","5187","
                    <p class=""lotteries"">
                      <span><img src='img/A.png', width=""30""></span>
                      <span><img src='img/S.png', width=""30""></span>
                      <span><img src='img/D.png', width=""30""></span>
                    </p>
                    <p class=""lotteries"">
                      <span>₪36</span>
                      <span>₪61</span>
                      <span>₪58</span>
                    </p>
                    <p class=""lotteries"">
                      <span>70%</span>
                      <span>45%</span>
                      <span>40%</span>
                    </p>","s","trinary","A","27.45","10","10","0","A","B","A","C","45","61","",""
"","","","","","html-keyboard-response","106","457732","0.0-9.0-0.19","049","null","<p style=""text-align: center;"">+</p>","null","fixation","","","","","","","","","","","","",""
"","","","","","html-keyboard-response","107","460364","0.0-9.0-1.19","049","2630","
                    <p class=""lotteries"">
                      <span><img src='img/A.png', width=""30""></span>
                      <span><img src='img/S.png', width=""30""></span>
                      <span><img src='img/D.png', width=""30""></span>
                    </p>
                    <p class=""lotteries"">
                      <span>₪18</span>
                      <span>₪71</span>
                      <span>₪43</span>
                    </p>
                    <p class=""lotteries"">
                      <span>50%</span>
                      <span>45%</span>
                      <span>60%</span>
                    </p>","s","trinary","B","31.95","2","2","0","A","C","B","A","45","71","",""
"","","","","","html-keyboard-response","108","461599","0.0-9.0-0.20","049","null","<p style=""text-align: center;"">+</p>","null","fixation","","","","","","","","","","","","",""
"","","","","","html-keyboard-response","109","466084","0.0-9.0-1.20","049","4483","
                    <p class=""lotteries"">
                      <span><img src='img/A.png', width=""30""></span>
                      <span><img src='img/S.png', width=""30""></span>
                      <span><img src='img/D.png', width=""30""></span>
                    </p>
                    <p class=""lotteries"">
                      <span>₪76</span>
                      <span>₪11</span>
                      <span>₪43</span>
                    </p>
                    <p class=""lotteries"">
                      <span>65%</span>
                      <span>75%</span>
                      <span>75%</span>
                    </p>","a","trinary","B","49.4","24","24","0","A","B","C","A","65","76","",""
"","","","","","html-keyboard-response","110","467471","0.0-9.0-0.21","049","null","<p style=""text-align: center;"">+</p>","null","fixation","","","","","","","","","","","","",""
"","","","","","html-keyboard-response","111","496204","0.0-9.0-1.21","049","28731","
                    <p class=""lotteries"">
                      <span><img src='img/A.png', width=""30""></span>
                      <span><img src='img/S.png', width=""30""></span>
                      <span><img src='img/D.png', width=""30""></span>
                    </p>
                    <p class=""lotteries"">
                      <span>₪58</span>
                      <span>₪43</span>
                      <span>₪76</span>
                    </p>
                    <p class=""lotteries"">
                      <span>40%</span>
                      <span>75%</span>
                      <span>65%</span>
                    </p>","d","trinary","A","49.4","19","19","0","-","C","B","A","65","76","",""
"","","","","","html-keyboard-response","112","497384","0.0-9.0-0.22","049","null","<p style=""text-align: center;"">+</p>","null","fixation","","","","","","","","","","","","",""
"","","","","","html-keyboard-response","113","499460","0.0-9.0-1.22","049","2075","
                    <p class=""lotteries"">
                      <span><img src='img/A.png', width=""30""></span>
                      <span><img src='img/S.png', width=""30""></span>
                      <span><img src='img/D.png', width=""30""></span>
                    </p>
                    <p class=""lotteries"">
                      <span>₪58</span>
                      <span>₪4</span>
                      <span>₪11</span>
                    </p>
                    <p class=""lotteries"">
                      <span>30%</span>
                      <span>25%</span>
                      <span>25%</span>
                    </p>","a","trinary","A","17.4","30","30","1","-","A","C","B","30","58","",""
"","","","","","html-keyboard-response","114","500558","0.0-9.0-0.23","049","null","<p style=""text-align: center;"">+</p>","null","fixation","","","","","","","","","","","","",""
"","","","","","html-keyboard-response","115","513852","0.0-9.0-1.23","049","13293","
                    <p class=""lotteries"">
                      <span><img src='img/A.png', width=""30""></span>
                      <span><img src='img/S.png', width=""30""></span>
                      <span><img src='img/D.png', width=""30""></span>
                    </p>
                    <p class=""lotteries"">
                      <span>₪43</span>
                      <span>₪39</span>
                      <span>₪61</span>
                    </p>
                    <p class=""lotteries"">
                      <span>75%</span>
                      <span>65%</span>
                      <span>55%</span>
                    </p>","a","trinary","A","32.25","26","26","0","A","A","C","B","75","43","",""
"","","","","","html-keyboard-response","116","515252","0.0-9.0-0.24","049","null","<p style=""text-align: center;"">+</p>","null","fixation","","","","","","","","","","","","",""
"","","","","","html-keyboard-response","117","517948","0.0-9.0-1.24","049","2695","
                    <p class=""lotteries"">
                      <span><img src='img/A.png', width=""30""></span>
                      <span><img src='img/S.png', width=""30""></span>
                      <span><img src='img/D.png', width=""30""></span>
                    </p>
                    <p class=""lotteries"">
                      <span>₪4</span>
                      <span>₪11</span>
                      <span>₪18</span>
                    </p>
                    <p class=""lotteries"">
                      <span>75%</span>
                      <span>20%</span>
                      <span>25%</span>
                    </p>","d","trinary","A","4.5","23","23","0","A","B","C","A","25","18","",""
"","","","","","html-keyboard-response","118","518774","0.0-9.0-0.25","049","null","<p style=""text-align: center;"">+</p>","null","fixation","","","","","","","","","","","","",""
"","","","","","html-keyboard-response","119","533236","0.0-9.0-1.25","049","14460","
                    <p class=""lotteries"">
                      <span><img src='img/A.png', width=""30""></span>
                      <span><img src='img/S.png', width=""30""></span>
                      <span><img src='img/D.png', width=""30""></span>
                    </p>
                    <p class=""lotteries"">
                      <span>₪4</span>
                      <span>₪11</span>
                      <span>₪16</span>
                    </p>
                    <p class=""lotteries"">
                      <span>75%</span>
                      <span>25%</span>
                      <span>20%</span>
                    </p>","d","trinary","A","3.2","27","27","0","-","C","B","A","20","16","",""
"","","","","","html-keyboard-response","120","534103","0.0-9.0-0.26","049","null","<p style=""text-align: center;"">+</p>","null","fixation","","","","","","","","","","","","",""
"","","","","","html-keyboard-response","121","540388","0.0-9.0-1.26","049","6283","
                    <p class=""lotteries"">
                      <span><img src='img/A.png', width=""30""></span>
                      <span><img src='img/S.png', width=""30""></span>
                      <span><img src='img/D.png', width=""30""></span>
                    </p>
                    <p class=""lotteries"">
                      <span>₪11</span>
                      <span>₪4</span>
                      <span>₪11</span>
                    </p>
                    <p class=""lotteries"">
                      <span>20%</span>
                      <span>75%</span>
                      <span>25%</span>
                    </p>","d","trinary","A","2.75","12","12","0","A","C","B","A","25","11","",""
"","","","","","html-keyboard-response","122","541396","0.0-9.0-0.27","049","null","<p style=""text-align: center;"">+</p>","null","fixation","","","","","","","","","","","","",""
"","","","","","html-keyboard-response","123","556230","0.0-9.0-1.27","049","14830","
                    <p class=""lotteries"">
                      <span><img src='img/A.png', width=""30""></span>
                      <span><img src='img/S.png', width=""30""></span>
                      <span><img src='img/D.png', width=""30""></span>
                    </p>
                    <p class=""lotteries"">
                      <span>₪76</span>
                      <span>₪71</span>
                      <span>₪79</span>
                    </p>
                    <p class=""lotteries"">
                      <span>65%</span>
                      <span>75%</span>
                      <span>65%</span>
                    </p>","s","trinary","B","53.25","8","8","0","A","C","B","A","75","71","",""
"","","","","","html-keyboard-response","124","557605","0.0-9.0-0.28","049","null","<p style=""text-align: center;"">+</p>","null","fixation","","","","","","","","","","","","",""
"","","","","","html-keyboard-response","125","562117","0.0-9.0-1.28","049","4510","
                    <p class=""lotteries"">
                      <span><img src='img/A.png', width=""30""></span>
                      <span><img src='img/S.png', width=""30""></span>
                      <span><img src='img/D.png', width=""30""></span>
                    </p>
                    <p class=""lotteries"">
                      <span>₪64</span>
                      <span>₪4</span>
                      <span>₪36</span>
                    </p>
                    <p class=""lotteries"">
                      <span>50%</span>
                      <span>50%</span>
                      <span>75%</span>
                    </p>","a","trinary","A","32","4","4","0","A","A","C","B","50","64","",""
"","","","","","html-keyboard-response","126","563426","0.0-9.0-0.29","049","null","<p style=""text-align: center;"">+</p>","null","fixation","","","","","","","","","","","","",""
"","","","","","html-keyboard-response","127","571758","0.0-9.0-1.29","049","8330","
                    <p class=""lotteries"">
                      <span><img src='img/A.png', width=""30""></span>
                      <span><img src='img/S.png', width=""30""></span>
                      <span><img src='img/D.png', width=""30""></span>
                    </p>
                    <p class=""lotteries"">
                      <span>₪16</span>
                      <span>₪18</span>
                      <span>₪11</span>
                    </p>
                    <p class=""lotteries"">
                      <span>20%</span>
                      <span>25%</span>
                      <span>45%</span>
                    </p>","s","trinary","A","4.5","14","14","0","A","C","A","B","25","18","",""
"","","","","","html-keyboard-response","128","572764","0.0-10.0","049","null","<p style=""text-align: center;"">+</p>","null","fixation","","","","","","","","","","","","",""
"","","","","","html-keyboard-response","129","598038","0.0-11.0","049","25273","<p>הפסקה.
          <br>לחצו על רווח כדי להמשיך.</p>"," ","scan_wait","","","","","","","","","","","","",""
"","","","","","html-keyboard-response","130","599188","0.0-12.0-0.0","049","null","<p style=""text-align: center;"">+</p>","null","fixation","","","","","","","","","","","","",""
"","","","","","html-keyboard-response","131","611638","0.0-12.0-1.0","049","12449","
                    <p class=""lotteries"">
                      <span><img src='img/A.png', width=""30""></span>
                      <span><img src='img/S.png', width=""30""></span>
                      <span><img src='img/D.png', width=""30""></span>
                    </p>
                    <p class=""lotteries"">
                      <span>₪43</span>
                      <span>₪61</span>
                      <span>₪36</span>
                    </p>
                    <p class=""lotteries"">
                      <span>60%</span>
                      <span>55%</span>
                      <span>60%</span>
                    </p>","s","trinary","B","33.55","7","7","0","A","A","B","C","55","61","",""
"","","","","","html-keyboard-response","132","613020","0.0-12.0-0.1","049","null","<p style=""text-align: center;"">+</p>","null","fixation","","","","","","","","","","","","",""
"","","","","","html-keyboard-response","133","630486","0.0-12.0-1.1","049","17472","
                    <p class=""lotteries"">
                      <span><img src='img/A.png', width=""30""></span>
                      <span><img src='img/S.png', width=""30""></span>
                      <span><img src='img/D.png', width=""30""></span>
                    </p>
                    <p class=""lotteries"">
                      <span>₪11</span>
                      <span>₪4</span>
                      <span>₪11</span>
                    </p>
                    <p class=""lotteries"">
                      <span>20%</span>
                      <span>75%</span>
                      <span>25%</span>
                    </p>","d","trinary","A","2.75","12","12","0","A","C","B","A","25","11","",""
"","","","","","html-keyboard-response","134","631644","0.0-12.0-0.2","049","null","<p style=""text-align: center;"">+</p>","null","fixation","","","","","","","","","","","","",""
"","","","","","html-keyboard-response","135","653542","0.0-12.0-1.2","049","21897","
                    <p class=""lotteries"">
                      <span><img src='img/A.png', width=""30""></span>
                      <span><img src='img/S.png', width=""30""></span>
                      <span><img src='img/D.png', width=""30""></span>
                    </p>
                    <p class=""lotteries"">
                      <span>₪11</span>
                      <span>₪16</span>
                      <span>₪18</span>
                    </p>
                    <p class=""lotteries"">
                      <span>45%</span>
                      <span>20%</span>
                      <span>25%</span>
                    </p>","d","trinary","A","4.5","14","14","0","A","B","C","A","25","18","",""
"","","","","","html-keyboard-response","136","654849","0.0-12.0-0.3","049","null","<p style=""text-align: center;"">+</p>","null","fixation","","","","","","","","","","","","",""
"","","","","","html-keyboard-response","137","665190","0.0-12.0-1.3","049","10340","
                    <p class=""lotteries"">
                      <span><img src='img/A.png', width=""30""></span>
                      <span><img src='img/S.png', width=""30""></span>
                      <span><img src='img/D.png', width=""30""></span>
                    </p>
                    <p class=""lotteries"">
                      <span>₪76</span>
                      <span>₪43</span>
                      <span>₪11</span>
                    </p>
                    <p class=""lotteries"">
                      <span>65%</span>
                      <span>75%</span>
                      <span>75%</span>
                    </p>","a","trinary","B","49.4","24","24","0","A","B","A","C","65","76","",""
"","","","","","html-keyboard-response","138","665780","0.0-12.0-0.4","049","null","<p style=""text-align: center;"">+</p>","null","fixation","","","","","","","","","","","","",""
"","","","","","html-keyboard-response","139","671950","0.0-12.0-1.4","049","6169","
                    <p class=""lotteries"">
                      <span><img src='img/A.png', width=""30""></span>
                      <span><img src='img/S.png', width=""30""></span>
                      <span><img src='img/D.png', width=""30""></span>
                    </p>
                    <p class=""lotteries"">
                      <span>₪58</span>
                      <span>₪36</span>
                      <span>₪58</span>
                    </p>
                    <p class=""lotteries"">
                      <span>30%</span>
                      <span>75%</span>
                      <span>40%</span>
                    </p>","d","trinary","A","23.2","13","13","0","A","C","B","A","40","58","",""
"","","","","","html-keyboard-response","140","672890","0.0-12.0-0.5","049","null","<p style=""text-align: center;"">+</p>","null","fixation","","","","","","","","","","","","",""
"","","","","","html-keyboard-response","141","686822","0.0-12.0-1.5","049","13930","
                    <p class=""lotteries"">
                      <span><img src='img/A.png', width=""30""></span>
                      <span><img src='img/S.png', width=""30""></span>
                      <span><img src='img/D.png', width=""30""></span>
                    </p>
                    <p class=""lotteries"">
                      <span>₪61</span>
                      <span>₪58</span>
                      <span>₪36</span>
                    </p>
                    <p class=""lotteries"">
                      <span>45%</span>
                      <span>40%</span>
                      <span>70%</span>
                    </p>","a","trinary","A","27.45","10","10","0","A","A","C","B","45","61","",""
"","","","","","html-keyboard-response","142","688007","0.0-12.0-0.6","049","null","<p style=""text-align: center;"">+</p>","null","fixation","","","","","","","","","","","","",""
"","","","","","html-keyboard-response","143","697827","0.0-12.0-1.6","049","9813","
                    <p class=""lotteries"">
                      <span><img src='img/A.png', width=""30""></span>
                      <span><img src='img/S.png', width=""30""></span>
                      <span><img src='img/D.png', width=""30""></span>
                    </p>
                    <p class=""lotteries"">
                      <span>₪71</span>
                      <span>₪58</span>
                      <span>₪11</span>
                    </p>
                    <p class=""lotteries"">
                      <span>55%</span>
                      <span>45%</span>
                      <span>75%</span>
                    </p>","a","trinary","A","39.05","18","18","0","A","A","C","B","55","71","",""
"","","","","","html-keyboard-response","144","699277","0.0-12.0-0.7","049","null","<p style=""text-align: center;"">+</p>","null","fixation","","","","","","","","","","","","",""
"","","","","","html-keyboard-response","145","707099","0.0-12.0-1.7","049","7820","
                    <p class=""lotteries"">
                      <span><img src='img/A.png', width=""30""></span>
                      <span><img src='img/S.png', width=""30""></span>
                      <span><img src='img/D.png', width=""30""></span>
                    </p>
                    <p class=""lotteries"">
                      <span>₪58</span>
                      <span>₪43</span>
                      <span>₪61</span>
                    </p>
                    <p class=""lotteries"">
                      <span>45%</span>
                      <span>75%</span>
                      <span>45%</span>
                    </p>","d","trinary","A","27.45","11","11","0","A","C","B","A","45","61","",""
"","","","","","html-keyboard-response","146","707670","0.0-12.0-0.8","049","null","<p style=""text-align: center;"">+</p>","null","fixation","","","","","","","","","","","","",""
"","","","","","html-keyboard-response","147","715139","0.0-12.0-1.8","049","7468","
                    <p class=""lotteries"">
                      <span><img src='img/A.png', width=""30""></span>
                      <span><img src='img/S.png', width=""30""></span>
                      <span><img src='img/D.png', width=""30""></span>
                    </p>
                    <p class=""lotteries"">
                      <span>₪64</span>
                      <span>₪36</span>
                      <span>₪36</span>
                    </p>
                    <p class=""lotteries"">
                      <span>50%</span>
                      <span>70%</span>
                      <span>30%</span>
                    </p>","s","trinary","A","25.2","3","3","0","-","B","A","C","70","36","",""
"","","","","","html-keyboard-response","148","716500","0.0-12.0-0.9","049","null","<p style=""text-align: center;"">+</p>","null","fixation","","","","","","","","","","","","",""
"","","","","","html-keyboard-response","149","725171","0.0-12.0-1.9","049","8670","
                    <p class=""lotteries"">
                      <span><img src='img/A.png', width=""30""></span>
                      <span><img src='img/S.png', width=""30""></span>
                      <span><img src='img/D.png', width=""30""></span>
                    </p>
                    <p class=""lotteries"">
                      <span>₪36</span>
                      <span>₪18</span>
                      <span>₪11</span>
                    </p>
                    <p class=""lotteries"">
                      <span>30%</span>
                      <span>50%</span>
                      <span>75%</span>
                    </p>","a","trinary","A","10.8","22","22","0","-","A","B","C","30","36","",""
"","","","","","html-keyboard-response","150","725737","0.0-12.0-0.10","049","null","<p style=""text-align: center;"">+</p>","null","fixation","","","","","","","","","","","","",""
"","","","","","html-keyboard-response","151","732091","0.0-12.0-1.10","049","6353","
                    <p class=""lotteries"">
                      <span><img src='img/A.png', width=""30""></span>
                      <span><img src='img/S.png', width=""30""></span>
                      <span><img src='img/D.png', width=""30""></span>
                    </p>
                    <p class=""lotteries"">
                      <span>₪4</span>
                      <span>₪11</span>
                      <span>₪4</span>
                    </p>
                    <p class=""lotteries"">
                      <span>25%</span>
                      <span>75%</span>
                      <span>75%</span>
                    </p>","s","trinary","A","8.25","29","29","1","-","B","A","C","75","11","",""
"","","","","","html-keyboard-response","152","732824","0.0-12.0-0.11","049","null","<p style=""text-align: center;"">+</p>","null","fixation","","","","","","","","","","","","",""
"","","","","","html-keyboard-response","153","751604","0.0-12.0-1.11","049","18778","
                    <p class=""lotteries"">
                      <span><img src='img/A.png', width=""30""></span>
                      <span><img src='img/S.png', width=""30""></span>
                      <span><img src='img/D.png', width=""30""></span>
                    </p>
                    <p class=""lotteries"">
                      <span>₪11</span>
                      <span>₪16</span>
                      <span>₪4</span>
                    </p>
                    <p class=""lotteries"">
                      <span>25%</span>
                      <span>20%</span>
                      <span>75%</span>
                    </p>","s","trinary","A","3.2","27","27","0","-","B","A","C","20","16","",""
"","","","","","html-keyboard-response","154","752481","0.0-12.0-0.12","049","null","<p style=""text-align: center;"">+</p>","null","fixation","","","","","","","","","","","","",""
"","","","","","html-keyboard-response","155","757003","0.0-12.0-1.12","049","4521","
                    <p class=""lotteries"">
                      <span><img src='img/A.png', width=""30""></span>
                      <span><img src='img/S.png', width=""30""></span>
                      <span><img src='img/D.png', width=""30""></span>
                    </p>
                    <p class=""lotteries"">
                      <span>₪79</span>
                      <span>₪39</span>
                      <span>₪43</span>
                    </p>
                    <p class=""lotteries"">
                      <span>40%</span>
                      <span>60%</span>
                      <span>60%</span>
                    </p>","a","trinary","B","31.6","9","9","0","A","B","C","A","40","79","",""
"","","","","","html-keyboard-response","156","758170","0.0-12.0-0.13","049","null","<p style=""text-align: center;"">+</p>","null","fixation","","","","","","","","","","","","",""
"","","","","","html-keyboard-response","157","764010","0.0-12.0-1.13","049","5839","
                    <p class=""lotteries"">
                      <span><img src='img/A.png', width=""30""></span>
                      <span><img src='img/S.png', width=""30""></span>
                      <span><img src='img/D.png', width=""30""></span>
                    </p>
                    <p class=""lotteries"">
                      <span>₪4</span>
                      <span>₪64</span>
                      <span>₪36</span>
                    </p>
                    <p class=""lotteries"">
                      <span>50%</span>
                      <span>50%</span>
                      <span>75%</span>
                    </p>","s","trinary","A","32","4","4","0","A","C","A","B","50","64","",""
"","","","","","html-keyboard-response","158","765482","0.0-12.0-0.14","049","null","<p style=""text-align: center;"">+</p>","null","fixation","","","","","","","","","","","","",""
"","","","","","html-keyboard-response","159","768522","0.0-12.0-1.14","049","3039","
                    <p class=""lotteries"">
                      <span><img src='img/A.png', width=""30""></span>
                      <span><img src='img/S.png', width=""30""></span>
                      <span><img src='img/D.png', width=""30""></span>
                    </p>
                    <p class=""lotteries"">
                      <span>₪64</span>
                      <span>₪11</span>
                      <span>₪4</span>
                    </p>
                    <p class=""lotteries"">
                      <span>25%</span>
                      <span>75%</span>
                      <span>25%</span>
                    </p>","a","trinary","A","16","6","6","0","B","A","B","C","25","64","",""
"","","","","","html-keyboard-response","160","769826","0.0-12.0-0.15","049","null","<p style=""text-align: center;"">+</p>","null","fixation","","","","","","","","","","","","",""
"","","","","","html-keyboard-response","161","772674","0.0-12.0-1.15","049","2847","
                    <p class=""lotteries"">
                      <span><img src='img/A.png', width=""30""></span>
                      <span><img src='img/S.png', width=""30""></span>
                      <span><img src='img/D.png', width=""30""></span>
                    </p>
                    <p class=""lotteries"">
                      <span>₪43</span>
                      <span>₪39</span>
                      <span>₪61</span>
                    </p>
                    <p class=""lotteries"">
                      <span>75%</span>
                      <span>65%</span>
                      <span>55%</span>
                    </p>","a","trinary","A","32.25","26","26","0","A","A","C","B","75","43","",""
"","","","","","html-keyboard-response","162","774149","0.0-12.0-0.16","049","null","<p style=""text-align: center;"">+</p>","null","fixation","","","","","","","","","","","","",""
"","","","","","html-keyboard-response","163","779906","0.0-12.0-1.16","049","5756","
                    <p class=""lotteries"">
                      <span><img src='img/A.png', width=""30""></span>
                      <span><img src='img/S.png', width=""30""></span>
                      <span><img src='img/D.png', width=""30""></span>
                    </p>
                    <p class=""lotteries"">
                      <span>₪71</span>
                      <span>₪43</span>
                      <span>₪18</span>
                    </p>
                    <p class=""lotteries"">
                      <span>45%</span>
                      <span>60%</span>
                      <span>50%</span>
                    </p>","a","trinary","B","31.95","2","2","0","A","B","A","C","45","71","",""
"","","","","","html-keyboard-response","164","780756","0.0-12.0-0.17","049","null","<p style=""text-align: center;"">+</p>","null","fixation","","","","","","","","","","","","",""
"","","","","","html-keyboard-response","165","783795","0.0-12.0-1.17","049","3037","
                    <p class=""lotteries"">
                      <span><img src='img/A.png', width=""30""></span>
                      <span><img src='img/S.png', width=""30""></span>
                      <span><img src='img/D.png', width=""30""></span>
                    </p>
                    <p class=""lotteries"">
                      <span>₪11</span>
                      <span>₪39</span>
                      <span>₪58</span>
                    </p>
                    <p class=""lotteries"">
                      <span>45%</span>
                      <span>60%</span>
                      <span>45%</span>
                    </p>","d","trinary","A","26.1","25","25","0","A","C","B","A","45","58","",""
"","","","","","html-keyboard-response","166","785015","0.0-12.0-0.18","049","null","<p style=""text-align: center;"">+</p>","null","fixation","","","","","","","","","","","","",""
"","","","","","html-keyboard-response","167","787634","0.0-12.0-1.18","049","2618","
                    <p class=""lotteries"">
                      <span><img src='img/A.png', width=""30""></span>
                      <span><img src='img/S.png', width=""30""></span>
                      <span><img src='img/D.png', width=""30""></span>
                    </p>
                    <p class=""lotteries"">
                      <span>₪11</span>
                      <span>₪11</span>
                      <span>₪18</span>
                    </p>
                    <p class=""lotteries"">
                      <span>20%</span>
                      <span>25%</span>
                      <span>50%</span>
                    </p>","d","trinary","A","9","28","28","1","-","C","B","A","50","18","",""
"","","","","","html-keyboard-response","168","788628","0.0-12.0-0.19","049","null","<p style=""text-align: center;"">+</p>","null","fixation","","","","","","","","","","","","",""
"","","","","","html-keyboard-response","169","791506","0.0-12.0-1.19","049","2877","
                    <p class=""lotteries"">
                      <span><img src='img/A.png', width=""30""></span>
                      <span><img src='img/S.png', width=""30""></span>
                      <span><img src='img/D.png', width=""30""></span>
                    </p>
                    <p class=""lotteries"">
                      <span>₪4</span>
                      <span>₪11</span>
                      <span>₪18</span>
                    </p>
                    <p class=""lotteries"">
                      <span>75%</span>
                      <span>20%</span>
                      <span>25%</span>
                    </p>","d","trinary","A","4.5","23","23","0","A","B","C","A","25","18","",""
"","","","","","html-keyboard-response","170","792308","0.0-12.0-0.20","049","null","<p style=""text-align: center;"">+</p>","null","fixation","","","","","","","","","","","","",""
"","","","","","html-keyboard-response","171","795443","0.0-12.0-1.20","049","3133","
                    <p class=""lotteries"">
                      <span><img src='img/A.png', width=""30""></span>
                      <span><img src='img/S.png', width=""30""></span>
                      <span><img src='img/D.png', width=""30""></span>
                    </p>
                    <p class=""lotteries"">
                      <span>₪76</span>
                      <span>₪43</span>
                      <span>₪58</span>
                    </p>
                    <p class=""lotteries"">
                      <span>65%</span>
                      <span>75%</span>
                      <span>40%</span>
                    </p>","a","trinary","A","49.4","19","19","0","-","A","B","C","65","76","",""
"","","","","","html-keyboard-response","172","796304","0.0-12.0-0.21","049","null","<p style=""text-align: center;"">+</p>","null","fixation","","","","","","","","","","","","",""
"","","","","","html-keyboard-response","173","798514","0.0-12.0-1.21","049","2209","
                    <p class=""lotteries"">
                      <span><img src='img/A.png', width=""30""></span>
                      <span><img src='img/S.png', width=""30""></span>
                      <span><img src='img/D.png', width=""30""></span>
                    </p>
                    <p class=""lotteries"">
                      <span>₪58</span>
                      <span>₪64</span>
                      <span>₪11</span>
                    </p>
                    <p class=""lotteries"">
                      <span>40%</span>
                      <span>25%</span>
                      <span>45%</span>
                    </p>","a","trinary","B","23.2","21","21","0","-","B","A","C","40","58","",""
"","","","","","html-keyboard-response","174","799761","0.0-12.0-0.22","049","null","<p style=""text-align: center;"">+</p>","null","fixation","","","","","","","","","","","","",""
"","","","","","html-keyboard-response","175","804538","0.0-12.0-1.22","049","4776","
                    <p class=""lotteries"">
                      <span><img src='img/A.png', width=""30""></span>
                      <span><img src='img/S.png', width=""30""></span>
                      <span><img src='img/D.png', width=""30""></span>
                    </p>
                    <p class=""lotteries"">
                      <span>₪11</span>
                      <span>₪58</span>
                      <span>₪4</span>
                    </p>
                    <p class=""lotteries"">
                      <span>25%</span>
                      <span>30%</span>
                      <span>25%</span>
                    </p>","s","trinary","A","17.4","30","30","1","-","B","A","C","30","58","",""
"","","","","","html-keyboard-response","176","805294","0.0-12.0-0.23","049","null","<p style=""text-align: center;"">+</p>","null","fixation","","","","","","","","","","","","",""
"","","","","","html-keyboard-response","177","813306","0.0-12.0-1.23","049","8010","
                    <p class=""lotteries"">
                      <span><img src='img/A.png', width=""30""></span>
                      <span><img src='img/S.png', width=""30""></span>
                      <span><img src='img/D.png', width=""30""></span>
                    </p>
                    <p class=""lotteries"">
                      <span>₪18</span>
                      <span>₪71</span>
                      <span>₪36</span>
                    </p>
                    <p class=""lotteries"">
                      <span>50%</span>
                      <span>45%</span>
                      <span>75%</span>
                    </p>","s","trinary","A","31.95","16","16","0","A","C","A","B","45","71","",""
"","","","","","html-keyboard-response","178","814203","0.0-12.0-0.24","049","null","<p style=""text-align: center;"">+</p>","null","fixation","","","","","","","","","","","","",""
"","","","","","html-keyboard-response","179","818398","0.0-12.0-1.24","049","4198","
                    <p class=""lotteries"">
                      <span><img src='img/A.png', width=""30""></span>
                      <span><img src='img/S.png', width=""30""></span>
                      <span><img src='img/D.png', width=""30""></span>
                    </p>
                    <p class=""lotteries"">
                      <span>₪36</span>
                      <span>₪71</span>
                      <span>₪36</span>
                    </p>
                    <p class=""lotteries"">
                      <span>70%</span>
                      <span>55%</span>
                      <span>75%</span>
                    </p>","s","trinary","B","39.05","5","5","0","A","C","B","A","55","71","",""
"","","","","","html-keyboard-response","180","819048","0.0-12.0-0.25","049","null","<p style=""text-align: center;"">+</p>","null","fixation","","","","","","","","","","","","",""
"","","","","","html-keyboard-response","181","822975","0.0-12.0-1.25","049","3925","
                    <p class=""lotteries"">
                      <span><img src='img/A.png', width=""30""></span>
                      <span><img src='img/S.png', width=""30""></span>
                      <span><img src='img/D.png', width=""30""></span>
                    </p>
                    <p class=""lotteries"">
                      <span>₪79</span>
                      <span>₪76</span>
                      <span>₪71</span>
                    </p>
                    <p class=""lotteries"">
                      <span>65%</span>
                      <span>65%</span>
                      <span>75%</span>
                    </p>","d","trinary","B","53.25","8","8","0","A","A","C","B","75","71","",""
"","","","","","html-keyboard-response","182","823521","0.0-12.0-0.26","049","null","<p style=""text-align: center;"">+</p>","null","fixation","","","","","","","","","","","","",""
"","","","","","html-keyboard-response","183","845151","0.0-12.0-1.26","049","21628","
                    <p class=""lotteries"">
                      <span><img src='img/A.png', width=""30""></span>
                      <span><img src='img/S.png', width=""30""></span>
                      <span><img src='img/D.png', width=""30""></span>
                    </p>
                    <p class=""lotteries"">
                      <span>₪39</span>
                      <span>₪36</span>
                      <span>₪43</span>
                    </p>
                    <p class=""lotteries"">
                      <span>65%</span>
                      <span>60%</span>
                      <span>60%</span>
                    </p>","a","trinary","A","25.35","15","15","0","-","A","C","B","65","39","",""
"","","","","","html-keyboard-response","184","845782","0.0-12.0-0.27","049","null","<p style=""text-align: center;"">+</p>","null","fixation","","","","","","","","","","","","",""
"","","","","","html-keyboard-response","185","850934","0.0-12.0-1.27","049","5152","
                    <p class=""lotteries"">
                      <span><img src='img/A.png', width=""30""></span>
                      <span><img src='img/S.png', width=""30""></span>
                      <span><img src='img/D.png', width=""30""></span>
                    </p>
                    <p class=""lotteries"">
                      <span>₪16</span>
                      <span>₪36</span>
                      <span>₪4</span>
                    </p>
                    <p class=""lotteries"">
                      <span>20%</span>
                      <span>30%</span>
                      <span>75%</span>
                    </p>","s","trinary","A","10.8","20","20","0","A","C","A","B","30","36","",""
"","","","","","html-keyboard-response","186","852128","0.0-12.0-0.28","049","null","<p style=""text-align: center;"">+</p>","null","fixation","","","","","","","","","","","","",""
"","","","","","html-keyboard-response","187","857830","0.0-12.0-1.28","049","5701","
                    <p class=""lotteries"">
                      <span><img src='img/A.png', width=""30""></span>
                      <span><img src='img/S.png', width=""30""></span>
                      <span><img src='img/D.png', width=""30""></span>
                    </p>
                    <p class=""lotteries"">
                      <span>₪64</span>
                      <span>₪39</span>
                      <span>₪36</span>
                    </p>
                    <p class=""lotteries"">
                      <span>50%</span>
                      <span>65%</span>
                      <span>60%</span>
                    </p>","a","trinary","B","32","1","1","0","A","B","A","C","50","64","",""
"","","","","","html-keyboard-response","188","858354","0.0-12.0-0.29","049","null","<p style=""text-align: center;"">+</p>","null","fixation","","","","","","","","","","","","",""
"","","","","","html-keyboard-response","189","864246","0.0-12.0-1.29","049","5891","
                    <p class=""lotteries"">
                      <span><img src='img/A.png', width=""30""></span>
                      <span><img src='img/S.png', width=""30""></span>
                      <span><img src='img/D.png', width=""30""></span>
                    </p>
                    <p class=""lotteries"">
                      <span>₪11</span>
                      <span>₪4</span>
                      <span>₪16</span>
                    </p>
                    <p class=""lotteries"">
                      <span>20%</span>
                      <span>50%</span>
                      <span>20%</span>
                    </p>","d","trinary","A","3.2","17","17","0","A","C","B","A","20","16","",""
"","","","","","html-keyboard-response","190","865255","0.0-13.0","049","null","<p style=""text-align: center;"">+</p>","null","fixation","","","","","","","","","","","","",""
"","","","","","html-keyboard-response","191","865963","0.0-14.0","049","null","","null","delay","","","","","","","","","","","","",""
"","","","","","html-keyboard-response","192","896708","0.0-15.0","049","30746","<h1>הסוף</h1>
        <p>אנו מודים לכם על ההשתתפות!
        <p>כעת נשחק את אחת ההגרלות שבחרתם, באחד משני החלקים.
        <br>אנא קראו לנו להרצת ההגרלות.</p>"," ","","","","","","","","","","","","","",""
"","","","","","survey","193","908084","0.0-16.0","049","11295","","{""Gender"":""זכר"",""Hand"":""ימין"",""Glasses"":""לא"",""Age"":""28""}","","","","","","","","","","","","","","[]"
