"success","timeout","failed_images","failed_audio","failed_video","trial_type","trial_index","time_elapsed","internal_node_id","subject_id","rt","stimulus","response","part","actual_choice","actual_EV","binary_id","trinary_id","catch","direction","A_key","S_key","D_key","choice_prob","choice_amount","chosen_part","accuracy"
"true","false","[]","[]","[]","preload","0","5","0.0-0.0","031","","","","","","","","","","","","","","","","",""
"","","","","","html-keyboard-response","1","714","0.0-1.0","031","null","","null","delay","","","","","","","","","","","","",""
"","","","","","html-keyboard-response","2","38976","0.0-2.0","031","38259","
          <h1>חלק 2</h1>
          <p>ברוכים הבאים לחלק 2 של הניסוי.
          <br>בחלק זה יוצגו בפניכם שלוש הגרלות.
          <br>אתם מתבקשים לבחור את ההגרלה שתרצו להשתתף בה.
          <br>שימו לב! בסוף הניסוי נבחר שלב אחד באקראי ונממש את ההגרלה שבחרתם בו. כלומר, הבחירה שלכם יכולה להפוך לכסף אמיתי.
          <br><br>לחצו רווח כדי להמשיך.</p>"," ","","","","","","","","","","","","","",""
"","","","","","html-keyboard-response","3","63424","0.0-3.0","031","23742","
          <p>בואו נתחיל בדוגמה:
          <br>לפניכם שלוש הגרלות.
          <br>לחצו 'A' אם אתם מעדיפים את ההגרלה השמאלית
          <br>לחצו 'S' אם אתם מעדיפים את ההגרלה האמצעית
          <br>לחצו 'D' אם אתם מעדיפים את ההגרלה הימנית
          <p class=""lotteries"">
            <span><img src='img/A.png', width=""30""></span>
            <span><img src='img/S.png', width=""30""></span>
            <span><img src='img/D.png', width=""30""></span>
          </p>
          <p class=""lotteries"">
            <span>₪39</span>
            <span>₪46</span>
            <span>₪54</span>
          </p>
          <p class=""lotteries"">
            <span>65%</span>
            <span>40%</span>
            <span>35%</span>
          </p>","a","example","","","","","","","","","","","","",""
"","","","","","html-keyboard-response","4","70032","0.0-4.0","031","5898","<p>עבודה טובה!
                  <br>בחרתם את ההגרלה השמאלית.  
                  <br>בואו ננסה דוגמה נוספת:
                  <p class=""lotteries"">
                    <span><img src='img/A.png', width=""30""></span>
                    <span><img src='img/S.png', width=""30""></span>
                    <span><img src='img/D.png', width=""30""></span>
                  </p>
                  <p class=""lotteries"">
                    <span>₪29</span>
                    <span>₪18</span>
                    <span>₪43</span>
                  </p>
                  <p class=""lotteries"">
                    <span>30%</span>
                    <span>50%</span>
                    <span>65%</span>
                  </p>","d","example","","","","","","","","","","","","",""
"","","","","","html-keyboard-response","5","76712","0.0-5.0","031","5966","<p>בחרתם את ההגרלה הימנית. נשמע נכון?
                  <br><br>כעת נתחיל בניסוי.
                  <br>אתם תראו שלשות של הגרלות ותתבקשו לבחור את ההגרלה המועדפת עליכם.
                  <br>חלק זה לא מוגבל בזמן.
                  <br><br>לחצו רווח כדי להתחיל את הניסוי.</p>"," ","","","","","","","","","","","","","",""
"","","","","","html-keyboard-response","6","78660","0.0-6.0-0.0","031","null","<p style=""text-align: center;"">+</p>","null","fixation","","","","","","","","","","","","",""
"","","","","","html-keyboard-response","7","87995","0.0-6.0-1.0","031","9330","
                    <p class=""lotteries"">
                      <span><img src='img/A.png', width=""30""></span>
                      <span><img src='img/S.png', width=""30""></span>
                      <span><img src='img/D.png', width=""30""></span>
                    </p>
                    <p class=""lotteries"">
                      <span>₪18</span>
                      <span>₪36</span>
                      <span>₪71</span>
                    </p>
                    <p class=""lotteries"">
                      <span>50%</span>
                      <span>75%</span>
                      <span>45%</span>
                    </p>","s","trinary","B","27","16","16","0","A","C","B","A","75","36","",""
"","","","","","html-keyboard-response","8","89414","0.0-6.0-0.1","031","null","<p style=""text-align: center;"">+</p>","null","fixation","","","","","","","","","","","","",""
"","","","","","html-keyboard-response","9","95728","0.0-6.0-1.1","031","6312","
                    <p class=""lotteries"">
                      <span><img src='img/A.png', width=""30""></span>
                      <span><img src='img/S.png', width=""30""></span>
                      <span><img src='img/D.png', width=""30""></span>
                    </p>
                    <p class=""lotteries"">
                      <span>₪11</span>
                      <span>₪76</span>
                      <span>₪43</span>
                    </p>
                    <p class=""lotteries"">
                      <span>75%</span>
                      <span>65%</span>
                      <span>75%</span>
                    </p>","s","trinary","B","49.4","24","24","0","A","C","B","A","65","76","",""
"","","","","","html-keyboard-response","10","97163","0.0-6.0-0.2","031","null","<p style=""text-align: center;"">+</p>","null","fixation","","","","","","","","","","","","",""
"","","","","","html-keyboard-response","11","101104","0.0-6.0-1.2","031","3939","
                    <p class=""lotteries"">
                      <span><img src='img/A.png', width=""30""></span>
                      <span><img src='img/S.png', width=""30""></span>
                      <span><img src='img/D.png', width=""30""></span>
                    </p>
                    <p class=""lotteries"">
                      <span>₪4</span>
                      <span>₪4</span>
                      <span>₪11</span>
                    </p>
                    <p class=""lotteries"">
                      <span>75%</span>
                      <span>25%</span>
                      <span>75%</span>
                    </p>","d","trinary","A","8.25","29","29","1","-","C","B","A","75","11","",""
"","","","","","html-keyboard-response","12","101985","0.0-6.0-0.3","031","null","<p style=""text-align: center;"">+</p>","null","fixation","","","","","","","","","","","","",""
"","","","","","html-keyboard-response","13","106120","0.0-6.0-1.3","031","4134","
                    <p class=""lotteries"">
                      <span><img src='img/A.png', width=""30""></span>
                      <span><img src='img/S.png', width=""30""></span>
                      <span><img src='img/D.png', width=""30""></span>
                    </p>
                    <p class=""lotteries"">
                      <span>₪58</span>
                      <span>₪11</span>
                      <span>₪4</span>
                    </p>
                    <p class=""lotteries"">
                      <span>30%</span>
                      <span>25%</span>
                      <span>25%</span>
                    </p>","a","trinary","A","17.4","30","30","1","-","A","B","C","30","58","",""
"","","","","","html-keyboard-response","14","107516","0.0-6.0-0.4","031","null","<p style=""text-align: center;"">+</p>","null","fixation","","","","","","","","","","","","",""
"","","","","","html-keyboard-response","15","114352","0.0-6.0-1.4","031","6834","
                    <p class=""lotteries"">
                      <span><img src='img/A.png', width=""30""></span>
                      <span><img src='img/S.png', width=""30""></span>
                      <span><img src='img/D.png', width=""30""></span>
                    </p>
                    <p class=""lotteries"">
                      <span>₪36</span>
                      <span>₪36</span>
                      <span>₪71</span>
                    </p>
                    <p class=""lotteries"">
                      <span>70%</span>
                      <span>75%</span>
                      <span>55%</span>
                    </p>","d","trinary","B","39.05","5","5","0","A","C","A","B","55","71","",""
"","","","","","html-keyboard-response","16","115298","0.0-6.0-0.5","031","null","<p style=""text-align: center;"">+</p>","null","fixation","","","","","","","","","","","","",""
"","","","","","html-keyboard-response","17","120055","0.0-6.0-1.5","031","4755","
                    <p class=""lotteries"">
                      <span><img src='img/A.png', width=""30""></span>
                      <span><img src='img/S.png', width=""30""></span>
                      <span><img src='img/D.png', width=""30""></span>
                    </p>
                    <p class=""lotteries"">
                      <span>₪61</span>
                      <span>₪58</span>
                      <span>₪36</span>
                    </p>
                    <p class=""lotteries"">
                      <span>45%</span>
                      <span>40%</span>
                      <span>70%</span>
                    </p>","d","trinary","B","25.2","10","10","0","A","A","C","B","70","36","",""
"","","","","","html-keyboard-response","18","120808","0.0-6.0-0.6","031","null","<p style=""text-align: center;"">+</p>","null","fixation","","","","","","","","","","","","",""
"","","","","","html-keyboard-response","19","125678","0.0-6.0-1.6","031","4870","
                    <p class=""lotteries"">
                      <span><img src='img/A.png', width=""30""></span>
                      <span><img src='img/S.png', width=""30""></span>
                      <span><img src='img/D.png', width=""30""></span>
                    </p>
                    <p class=""lotteries"">
                      <span>₪58</span>
                      <span>₪76</span>
                      <span>₪43</span>
                    </p>
                    <p class=""lotteries"">
                      <span>40%</span>
                      <span>65%</span>
                      <span>75%</span>
                    </p>","s","trinary","A","49.4","19","19","0","-","C","A","B","65","76","",""
"","","","","","html-keyboard-response","20","126938","0.0-6.0-0.7","031","null","<p style=""text-align: center;"">+</p>","null","fixation","","","","","","","","","","","","",""
"","","","","","html-keyboard-response","21","132390","0.0-6.0-1.7","031","5450","
                    <p class=""lotteries"">
                      <span><img src='img/A.png', width=""30""></span>
                      <span><img src='img/S.png', width=""30""></span>
                      <span><img src='img/D.png', width=""30""></span>
                    </p>
                    <p class=""lotteries"">
                      <span>₪71</span>
                      <span>₪76</span>
                      <span>₪79</span>
                    </p>
                    <p class=""lotteries"">
                      <span>75%</span>
                      <span>65%</span>
                      <span>65%</span>
                    </p>","a","trinary","B","53.25","8","8","0","A","B","C","A","75","71","",""
"","","","","","html-keyboard-response","22","133374","0.0-6.0-0.8","031","null","<p style=""text-align: center;"">+</p>","null","fixation","","","","","","","","","","","","",""
"","","","","","html-keyboard-response","23","137366","0.0-6.0-1.8","031","3991","
                    <p class=""lotteries"">
                      <span><img src='img/A.png', width=""30""></span>
                      <span><img src='img/S.png', width=""30""></span>
                      <span><img src='img/D.png', width=""30""></span>
                    </p>
                    <p class=""lotteries"">
                      <span>₪36</span>
                      <span>₪43</span>
                      <span>₪39</span>
                    </p>
                    <p class=""lotteries"">
                      <span>60%</span>
                      <span>60%</span>
                      <span>65%</span>
                    </p>","d","trinary","A","25.35","15","15","0","-","C","B","A","65","39","",""
"","","","","","html-keyboard-response","24","138875","0.0-6.0-0.9","031","null","<p style=""text-align: center;"">+</p>","null","fixation","","","","","","","","","","","","",""
"","","","","","html-keyboard-response","25","147374","0.0-6.0-1.9","031","8497","
                    <p class=""lotteries"">
                      <span><img src='img/A.png', width=""30""></span>
                      <span><img src='img/S.png', width=""30""></span>
                      <span><img src='img/D.png', width=""30""></span>
                    </p>
                    <p class=""lotteries"">
                      <span>₪36</span>
                      <span>₪36</span>
                      <span>₪64</span>
                    </p>
                    <p class=""lotteries"">
                      <span>30%</span>
                      <span>70%</span>
                      <span>50%</span>
                    </p>","s","trinary","A","25.2","3","3","0","-","C","A","B","70","36","",""
"","","","","","html-keyboard-response","26","148466","0.0-6.0-0.10","031","null","<p style=""text-align: center;"">+</p>","null","fixation","","","","","","","","","","","","",""
"","","","","","html-keyboard-response","27","154903","0.0-6.0-1.10","031","6435","
                    <p class=""lotteries"">
                      <span><img src='img/A.png', width=""30""></span>
                      <span><img src='img/S.png', width=""30""></span>
                      <span><img src='img/D.png', width=""30""></span>
                    </p>
                    <p class=""lotteries"">
                      <span>₪71</span>
                      <span>₪18</span>
                      <span>₪43</span>
                    </p>
                    <p class=""lotteries"">
                      <span>45%</span>
                      <span>50%</span>
                      <span>60%</span>
                    </p>","d","trinary","A","25.8","2","2","0","A","B","C","A","60","43","",""
"","","","","","html-keyboard-response","28","156389","0.0-6.0-0.11","031","null","<p style=""text-align: center;"">+</p>","null","fixation","","","","","","","","","","","","",""
"","","","","","html-keyboard-response","29","163102","0.0-6.0-1.11","031","6711","
                    <p class=""lotteries"">
                      <span><img src='img/A.png', width=""30""></span>
                      <span><img src='img/S.png', width=""30""></span>
                      <span><img src='img/D.png', width=""30""></span>
                    </p>
                    <p class=""lotteries"">
                      <span>₪11</span>
                      <span>₪18</span>
                      <span>₪4</span>
                    </p>
                    <p class=""lotteries"">
                      <span>20%</span>
                      <span>25%</span>
                      <span>75%</span>
                    </p>","s","trinary","A","4.5","23","23","0","A","C","A","B","25","18","",""
"","","","","","html-keyboard-response","30","164354","0.0-6.0-0.12","031","null","<p style=""text-align: center;"">+</p>","null","fixation","","","","","","","","","","","","",""
"","","","","","html-keyboard-response","31","171005","0.0-6.0-1.12","031","6650","
                    <p class=""lotteries"">
                      <span><img src='img/A.png', width=""30""></span>
                      <span><img src='img/S.png', width=""30""></span>
                      <span><img src='img/D.png', width=""30""></span>
                    </p>
                    <p class=""lotteries"">
                      <span>₪11</span>
                      <span>₪4</span>
                      <span>₪16</span>
                    </p>
                    <p class=""lotteries"">
                      <span>25%</span>
                      <span>75%</span>
                      <span>20%</span>
                    </p>","s","trinary","C","3","27","27","0","-","B","C","A","75","4","",""
"","","","","","html-keyboard-response","32","171551","0.0-6.0-0.13","031","null","<p style=""text-align: center;"">+</p>","null","fixation","","","","","","","","","","","","",""
"","","","","","html-keyboard-response","33","179021","0.0-6.0-1.13","031","7469","
                    <p class=""lotteries"">
                      <span><img src='img/A.png', width=""30""></span>
                      <span><img src='img/S.png', width=""30""></span>
                      <span><img src='img/D.png', width=""30""></span>
                    </p>
                    <p class=""lotteries"">
                      <span>₪39</span>
                      <span>₪79</span>
                      <span>₪43</span>
                    </p>
                    <p class=""lotteries"">
                      <span>60%</span>
                      <span>40%</span>
                      <span>60%</span>
                    </p>","d","trinary","A","25.8","9","9","0","A","C","B","A","60","43","",""
"","","","","","html-keyboard-response","34","180443","0.0-6.0-0.14","031","null","<p style=""text-align: center;"">+</p>","null","fixation","","","","","","","","","","","","",""
"","","","","","html-keyboard-response","35","185373","0.0-6.0-1.14","031","4929","
                    <p class=""lotteries"">
                      <span><img src='img/A.png', width=""30""></span>
                      <span><img src='img/S.png', width=""30""></span>
                      <span><img src='img/D.png', width=""30""></span>
                    </p>
                    <p class=""lotteries"">
                      <span>₪11</span>
                      <span>₪16</span>
                      <span>₪18</span>
                    </p>
                    <p class=""lotteries"">
                      <span>45%</span>
                      <span>20%</span>
                      <span>25%</span>
                    </p>","a","trinary","B","4.95","14","14","0","A","B","C","A","45","11","",""
"","","","","","html-keyboard-response","36","186040","0.0-6.0-0.15","031","null","<p style=""text-align: center;"">+</p>","null","fixation","","","","","","","","","","","","",""
"","","","","","html-keyboard-response","37","192105","0.0-6.0-1.15","031","6064","
                    <p class=""lotteries"">
                      <span><img src='img/A.png', width=""30""></span>
                      <span><img src='img/S.png', width=""30""></span>
                      <span><img src='img/D.png', width=""30""></span>
                    </p>
                    <p class=""lotteries"">
                      <span>₪36</span>
                      <span>₪64</span>
                      <span>₪4</span>
                    </p>
                    <p class=""lotteries"">
                      <span>75%</span>
                      <span>50%</span>
                      <span>50%</span>
                    </p>","a","trinary","B","27","4","4","0","A","B","A","C","75","36","",""
"","","","","","html-keyboard-response","38","193490","0.0-6.0-0.16","031","null","<p style=""text-align: center;"">+</p>","null","fixation","","","","","","","","","","","","",""
"","","","","","html-keyboard-response","39","197834","0.0-6.0-1.16","031","4342","
                    <p class=""lotteries"">
                      <span><img src='img/A.png', width=""30""></span>
                      <span><img src='img/S.png', width=""30""></span>
                      <span><img src='img/D.png', width=""30""></span>
                    </p>
                    <p class=""lotteries"">
                      <span>₪11</span>
                      <span>₪39</span>
                      <span>₪58</span>
                    </p>
                    <p class=""lotteries"">
                      <span>45%</span>
                      <span>60%</span>
                      <span>45%</span>
                    </p>","s","trinary","B","23.4","25","25","0","A","C","B","A","60","39","",""
"","","","","","html-keyboard-response","40","199114","0.0-6.0-0.17","031","null","<p style=""text-align: center;"">+</p>","null","fixation","","","","","","","","","","","","",""
"","","","","","html-keyboard-response","41","204826","0.0-6.0-1.17","031","5710","
                    <p class=""lotteries"">
                      <span><img src='img/A.png', width=""30""></span>
                      <span><img src='img/S.png', width=""30""></span>
                      <span><img src='img/D.png', width=""30""></span>
                    </p>
                    <p class=""lotteries"">
                      <span>₪36</span>
                      <span>₪58</span>
                      <span>₪58</span>
                    </p>
                    <p class=""lotteries"">
                      <span>75%</span>
                      <span>30%</span>
                      <span>40%</span>
                    </p>","a","trinary","B","27","13","13","0","A","B","C","A","75","36","",""
"","","","","","html-keyboard-response","42","205707","0.0-6.0-0.18","031","null","<p style=""text-align: center;"">+</p>","null","fixation","","","","","","","","","","","","",""
"","","","","","html-keyboard-response","43","209002","0.0-6.0-1.18","031","3293","
                    <p class=""lotteries"">
                      <span><img src='img/A.png', width=""30""></span>
                      <span><img src='img/S.png', width=""30""></span>
                      <span><img src='img/D.png', width=""30""></span>
                    </p>
                    <p class=""lotteries"">
                      <span>₪11</span>
                      <span>₪11</span>
                      <span>₪18</span>
                    </p>
                    <p class=""lotteries"">
                      <span>20%</span>
                      <span>25%</span>
                      <span>50%</span>
                    </p>","d","trinary","A","9","28","28","1","-","C","B","A","50","18","",""
"","","","","","html-keyboard-response","44","210311","0.0-6.0-0.19","031","null","<p style=""text-align: center;"">+</p>","null","fixation","","","","","","","","","","","","",""
"","","","","","html-keyboard-response","45","214586","0.0-6.0-1.19","031","4273","
                    <p class=""lotteries"">
                      <span><img src='img/A.png', width=""30""></span>
                      <span><img src='img/S.png', width=""30""></span>
                      <span><img src='img/D.png', width=""30""></span>
                    </p>
                    <p class=""lotteries"">
                      <span>₪4</span>
                      <span>₪64</span>
                      <span>₪11</span>
                    </p>
                    <p class=""lotteries"">
                      <span>25%</span>
                      <span>25%</span>
                      <span>75%</span>
                    </p>","s","trinary","A","16","6","6","0","B","C","A","B","25","64","",""
"","","","","","html-keyboard-response","46","216066","0.0-6.0-0.20","031","null","<p style=""text-align: center;"">+</p>","null","fixation","","","","","","","","","","","","",""
"","","","","","html-keyboard-response","47","225482","0.0-6.0-1.20","031","9414","
                    <p class=""lotteries"">
                      <span><img src='img/A.png', width=""30""></span>
                      <span><img src='img/S.png', width=""30""></span>
                      <span><img src='img/D.png', width=""30""></span>
                    </p>
                    <p class=""lotteries"">
                      <span>₪11</span>
                      <span>₪18</span>
                      <span>₪36</span>
                    </p>
                    <p class=""lotteries"">
                      <span>75%</span>
                      <span>50%</span>
                      <span>30%</span>
                    </p>","d","trinary","A","10.8","22","22","0","-","C","B","A","30","36","",""
"","","","","","html-keyboard-response","48","226920","0.0-6.0-0.21","031","null","<p style=""text-align: center;"">+</p>","null","fixation","","","","","","","","","","","","",""
"","","","","","html-keyboard-response","49","229954","0.0-6.0-1.21","031","3032","
                    <p class=""lotteries"">
                      <span><img src='img/A.png', width=""30""></span>
                      <span><img src='img/S.png', width=""30""></span>
                      <span><img src='img/D.png', width=""30""></span>
                    </p>
                    <p class=""lotteries"">
                      <span>₪4</span>
                      <span>₪11</span>
                      <span>₪11</span>
                    </p>
                    <p class=""lotteries"">
                      <span>75%</span>
                      <span>25%</span>
                      <span>20%</span>
                    </p>","s","trinary","A","2.75","12","12","0","A","B","A","C","25","11","",""
"","","","","","html-keyboard-response","50","231198","0.0-6.0-0.22","031","null","<p style=""text-align: center;"">+</p>","null","fixation","","","","","","","","","","","","",""
"","","","","","html-keyboard-response","51","240162","0.0-6.0-1.22","031","8963","
                    <p class=""lotteries"">
                      <span><img src='img/A.png', width=""30""></span>
                      <span><img src='img/S.png', width=""30""></span>
                      <span><img src='img/D.png', width=""30""></span>
                    </p>
                    <p class=""lotteries"">
                      <span>₪39</span>
                      <span>₪36</span>
                      <span>₪64</span>
                    </p>
                    <p class=""lotteries"">
                      <span>65%</span>
                      <span>60%</span>
                      <span>50%</span>
                    </p>","a","trinary","A","25.35","1","1","0","A","A","C","B","65","39","",""
"","","","","","html-keyboard-response","52","241462","0.0-6.0-0.23","031","null","<p style=""text-align: center;"">+</p>","null","fixation","","","","","","","","","","","","",""
"","","","","","html-keyboard-response","53","245634","0.0-6.0-1.23","031","4170","
                    <p class=""lotteries"">
                      <span><img src='img/A.png', width=""30""></span>
                      <span><img src='img/S.png', width=""30""></span>
                      <span><img src='img/D.png', width=""30""></span>
                    </p>
                    <p class=""lotteries"">
                      <span>₪16</span>
                      <span>₪36</span>
                      <span>₪4</span>
                    </p>
                    <p class=""lotteries"">
                      <span>20%</span>
                      <span>30%</span>
                      <span>75%</span>
                    </p>","s","trinary","A","10.8","20","20","0","A","C","A","B","30","36","",""
"","","","","","html-keyboard-response","54","246897","0.0-6.0-0.24","031","null","<p style=""text-align: center;"">+</p>","null","fixation","","","","","","","","","","","","",""
"","","","","","html-keyboard-response","55","252762","0.0-6.0-1.24","031","5863","
                    <p class=""lotteries"">
                      <span><img src='img/A.png', width=""30""></span>
                      <span><img src='img/S.png', width=""30""></span>
                      <span><img src='img/D.png', width=""30""></span>
                    </p>
                    <p class=""lotteries"">
                      <span>₪61</span>
                      <span>₪43</span>
                      <span>₪36</span>
                    </p>
                    <p class=""lotteries"">
                      <span>55%</span>
                      <span>60%</span>
                      <span>60%</span>
                    </p>","a","trinary","B","33.55","7","7","0","A","B","A","C","55","61","",""
"","","","","","html-keyboard-response","56","254046","0.0-6.0-0.25","031","null","<p style=""text-align: center;"">+</p>","null","fixation","","","","","","","","","","","","",""
"","","","","","html-keyboard-response","57","258546","0.0-6.0-1.25","031","4498","
                    <p class=""lotteries"">
                      <span><img src='img/A.png', width=""30""></span>
                      <span><img src='img/S.png', width=""30""></span>
                      <span><img src='img/D.png', width=""30""></span>
                    </p>
                    <p class=""lotteries"">
                      <span>₪11</span>
                      <span>₪58</span>
                      <span>₪71</span>
                    </p>
                    <p class=""lotteries"">
                      <span>75%</span>
                      <span>45%</span>
                      <span>55%</span>
                    </p>","d","trinary","A","39.05","18","18","0","A","B","C","A","55","71","",""
"","","","","","html-keyboard-response","58","259891","0.0-6.0-0.26","031","null","<p style=""text-align: center;"">+</p>","null","fixation","","","","","","","","","","","","",""
"","","","","","html-keyboard-response","59","264634","0.0-6.0-1.26","031","4742","
                    <p class=""lotteries"">
                      <span><img src='img/A.png', width=""30""></span>
                      <span><img src='img/S.png', width=""30""></span>
                      <span><img src='img/D.png', width=""30""></span>
                    </p>
                    <p class=""lotteries"">
                      <span>₪4</span>
                      <span>₪16</span>
                      <span>₪11</span>
                    </p>
                    <p class=""lotteries"">
                      <span>50%</span>
                      <span>20%</span>
                      <span>20%</span>
                    </p>","s","trinary","A","3.2","17","17","0","A","B","A","C","20","16","",""
"","","","","","html-keyboard-response","60","265411","0.0-6.0-0.27","031","null","<p style=""text-align: center;"">+</p>","null","fixation","","","","","","","","","","","","",""
"","","","","","html-keyboard-response","61","273922","0.0-6.0-1.27","031","8508","
                    <p class=""lotteries"">
                      <span><img src='img/A.png', width=""30""></span>
                      <span><img src='img/S.png', width=""30""></span>
                      <span><img src='img/D.png', width=""30""></span>
                    </p>
                    <p class=""lotteries"">
                      <span>₪39</span>
                      <span>₪43</span>
                      <span>₪61</span>
                    </p>
                    <p class=""lotteries"">
                      <span>65%</span>
                      <span>75%</span>
                      <span>55%</span>
                    </p>","s","trinary","A","32.25","26","26","0","A","C","A","B","75","43","",""
"","","","","","html-keyboard-response","62","275321","0.0-6.0-0.28","031","null","<p style=""text-align: center;"">+</p>","null","fixation","","","","","","","","","","","","",""
"","","","","","html-keyboard-response","63","278521","0.0-6.0-1.28","031","3199","
                    <p class=""lotteries"">
                      <span><img src='img/A.png', width=""30""></span>
                      <span><img src='img/S.png', width=""30""></span>
                      <span><img src='img/D.png', width=""30""></span>
                    </p>
                    <p class=""lotteries"">
                      <span>₪11</span>
                      <span>₪64</span>
                      <span>₪58</span>
                    </p>
                    <p class=""lotteries"">
                      <span>45%</span>
                      <span>25%</span>
                      <span>40%</span>
                    </p>","d","trinary","B","23.2","21","21","0","-","C","A","B","40","58","",""
"","","","","","html-keyboard-response","64","279966","0.0-6.0-0.29","031","null","<p style=""text-align: center;"">+</p>","null","fixation","","","","","","","","","","","","",""
"","","","","","html-keyboard-response","65","286530","0.0-6.0-1.29","031","6562","
                    <p class=""lotteries"">
                      <span><img src='img/A.png', width=""30""></span>
                      <span><img src='img/S.png', width=""30""></span>
                      <span><img src='img/D.png', width=""30""></span>
                    </p>
                    <p class=""lotteries"">
                      <span>₪58</span>
                      <span>₪43</span>
                      <span>₪61</span>
                    </p>
                    <p class=""lotteries"">
                      <span>45%</span>
                      <span>75%</span>
                      <span>45%</span>
                    </p>","s","trinary","B","32.25","11","11","0","A","C","B","A","75","43","",""
"","","","","","html-keyboard-response","66","287546","0.0-7.0","031","null","<p style=""text-align: center;"">+</p>","null","fixation","","","","","","","","","","","","",""
"","","","","","html-keyboard-response","67","288937","0.0-8.0","031","1389","<p>הפסקה.
          <br>לחצו על רווח כדי להמשיך.</p>"," ","scan_wait","","","","","","","","","","","","",""
"","","","","","html-keyboard-response","68","289508","0.0-9.0-0.0","031","null","<p style=""text-align: center;"">+</p>","null","fixation","","","","","","","","","","","","",""
"","","","","","html-keyboard-response","69","293713","0.0-9.0-1.0","031","4204","
                    <p class=""lotteries"">
                      <span><img src='img/A.png', width=""30""></span>
                      <span><img src='img/S.png', width=""30""></span>
                      <span><img src='img/D.png', width=""30""></span>
                    </p>
                    <p class=""lotteries"">
                      <span>₪11</span>
                      <span>₪11</span>
                      <span>₪4</span>
                    </p>
                    <p class=""lotteries"">
                      <span>25%</span>
                      <span>20%</span>
                      <span>75%</span>
                    </p>","a","trinary","A","2.75","12","12","0","A","A","C","B","25","11","",""
"","","","","","html-keyboard-response","70","294760","0.0-9.0-0.1","031","null","<p style=""text-align: center;"">+</p>","null","fixation","","","","","","","","","","","","",""
"","","","","","html-keyboard-response","71","305211","0.0-9.0-1.1","031","10449","
                    <p class=""lotteries"">
                      <span><img src='img/A.png', width=""30""></span>
                      <span><img src='img/S.png', width=""30""></span>
                      <span><img src='img/D.png', width=""30""></span>
                    </p>
                    <p class=""lotteries"">
                      <span>₪64</span>
                      <span>₪36</span>
                      <span>₪36</span>
                    </p>
                    <p class=""lotteries"">
                      <span>50%</span>
                      <span>70%</span>
                      <span>30%</span>
                    </p>","a","trinary","B","32","3","3","0","-","B","A","C","50","64","",""
"","","","","","html-keyboard-response","72","306167","0.0-9.0-0.2","031","null","<p style=""text-align: center;"">+</p>","null","fixation","","","","","","","","","","","","",""
"","","","","","html-keyboard-response","73","309522","0.0-9.0-1.2","031","3369","
                    <p class=""lotteries"">
                      <span><img src='img/A.png', width=""30""></span>
                      <span><img src='img/S.png', width=""30""></span>
                      <span><img src='img/D.png', width=""30""></span>
                    </p>
                    <p class=""lotteries"">
                      <span>₪76</span>
                      <span>₪43</span>
                      <span>₪58</span>
                    </p>
                    <p class=""lotteries"">
                      <span>65%</span>
                      <span>75%</span>
                      <span>40%</span>
                    </p>","a","trinary","A","49.4","19","19","0","-","A","B","C","65","76","",""
"","","","","","html-keyboard-response","74","310594","0.0-9.0-0.3","031","null","<p style=""text-align: center;"">+</p>","null","fixation","","","","","","","","","","","","",""
"","","","","","html-keyboard-response","75","315755","0.0-9.0-1.3","031","5160","
                    <p class=""lotteries"">
                      <span><img src='img/A.png', width=""30""></span>
                      <span><img src='img/S.png', width=""30""></span>
                      <span><img src='img/D.png', width=""30""></span>
                    </p>
                    <p class=""lotteries"">
                      <span>₪43</span>
                      <span>₪39</span>
                      <span>₪61</span>
                    </p>
                    <p class=""lotteries"">
                      <span>75%</span>
                      <span>65%</span>
                      <span>55%</span>
                    </p>","d","trinary","B","33.55","26","26","0","A","A","C","B","55","61","",""
"","","","","","html-keyboard-response","76","316592","0.0-9.0-0.4","031","null","<p style=""text-align: center;"">+</p>","null","fixation","","","","","","","","","","","","",""
"","","","","","html-keyboard-response","77","318835","0.0-9.0-1.4","031","2242","
                    <p class=""lotteries"">
                      <span><img src='img/A.png', width=""30""></span>
                      <span><img src='img/S.png', width=""30""></span>
                      <span><img src='img/D.png', width=""30""></span>
                    </p>
                    <p class=""lotteries"">
                      <span>₪58</span>
                      <span>₪4</span>
                      <span>₪11</span>
                    </p>
                    <p class=""lotteries"">
                      <span>30%</span>
                      <span>25%</span>
                      <span>25%</span>
                    </p>","a","trinary","A","17.4","30","30","1","-","A","C","B","30","58","",""
"","","","","","html-keyboard-response","78","320066","0.0-9.0-0.5","031","null","<p style=""text-align: center;"">+</p>","null","fixation","","","","","","","","","","","","",""
"","","","","","html-keyboard-response","79","321930","0.0-9.0-1.5","031","1863","
                    <p class=""lotteries"">
                      <span><img src='img/A.png', width=""30""></span>
                      <span><img src='img/S.png', width=""30""></span>
                      <span><img src='img/D.png', width=""30""></span>
                    </p>
                    <p class=""lotteries"">
                      <span>₪18</span>
                      <span>₪11</span>
                      <span>₪11</span>
                    </p>
                    <p class=""lotteries"">
                      <span>50%</span>
                      <span>25%</span>
                      <span>20%</span>
                    </p>","a","trinary","A","9","28","28","1","-","A","B","C","50","18","",""
"","","","","","html-keyboard-response","80","323134","0.0-9.0-0.6","031","null","<p style=""text-align: center;"">+</p>","null","fixation","","","","","","","","","","","","",""
"","","","","","html-keyboard-response","81","329843","0.0-9.0-1.6","031","6707","
                    <p class=""lotteries"">
                      <span><img src='img/A.png', width=""30""></span>
                      <span><img src='img/S.png', width=""30""></span>
                      <span><img src='img/D.png', width=""30""></span>
                    </p>
                    <p class=""lotteries"">
                      <span>₪39</span>
                      <span>₪36</span>
                      <span>₪43</span>
                    </p>
                    <p class=""lotteries"">
                      <span>65%</span>
                      <span>60%</span>
                      <span>60%</span>
                    </p>","d","trinary","B","25.8","15","15","0","-","A","C","B","60","43","",""
"","","","","","html-keyboard-response","82","331083","0.0-9.0-0.7","031","null","<p style=""text-align: center;"">+</p>","null","fixation","","","","","","","","","","","","",""
"","","","","","html-keyboard-response","83","336266","0.0-9.0-1.7","031","5182","
                    <p class=""lotteries"">
                      <span><img src='img/A.png', width=""30""></span>
                      <span><img src='img/S.png', width=""30""></span>
                      <span><img src='img/D.png', width=""30""></span>
                    </p>
                    <p class=""lotteries"">
                      <span>₪36</span>
                      <span>₪64</span>
                      <span>₪4</span>
                    </p>
                    <p class=""lotteries"">
                      <span>75%</span>
                      <span>50%</span>
                      <span>50%</span>
                    </p>","a","trinary","B","27","4","4","0","A","B","A","C","75","36","",""
"","","","","","html-keyboard-response","84","337139","0.0-9.0-0.8","031","null","<p style=""text-align: center;"">+</p>","null","fixation","","","","","","","","","","","","",""
"","","","","","html-keyboard-response","85","343203","0.0-9.0-1.8","031","6062","
                    <p class=""lotteries"">
                      <span><img src='img/A.png', width=""30""></span>
                      <span><img src='img/S.png', width=""30""></span>
                      <span><img src='img/D.png', width=""30""></span>
                    </p>
                    <p class=""lotteries"">
                      <span>₪36</span>
                      <span>₪71</span>
                      <span>₪36</span>
                    </p>
                    <p class=""lotteries"">
                      <span>70%</span>
                      <span>55%</span>
                      <span>75%</span>
                    </p>","s","trinary","B","39.05","5","5","0","A","C","B","A","55","71","",""
"","","","","","html-keyboard-response","86","344134","0.0-9.0-0.9","031","null","<p style=""text-align: center;"">+</p>","null","fixation","","","","","","","","","","","","",""
"","","","","","html-keyboard-response","87","347939","0.0-9.0-1.9","031","3803","
                    <p class=""lotteries"">
                      <span><img src='img/A.png', width=""30""></span>
                      <span><img src='img/S.png', width=""30""></span>
                      <span><img src='img/D.png', width=""30""></span>
                    </p>
                    <p class=""lotteries"">
                      <span>₪43</span>
                      <span>₪58</span>
                      <span>₪61</span>
                    </p>
                    <p class=""lotteries"">
                      <span>75%</span>
                      <span>45%</span>
                      <span>45%</span>
                    </p>","d","trinary","A","27.45","11","11","0","A","B","C","A","45","61","",""
"","","","","","html-keyboard-response","88","349102","0.0-9.0-0.10","031","null","<p style=""text-align: center;"">+</p>","null","fixation","","","","","","","","","","","","",""
"","","","","","html-keyboard-response","89","353771","0.0-9.0-1.10","031","4667","
                    <p class=""lotteries"">
                      <span><img src='img/A.png', width=""30""></span>
                      <span><img src='img/S.png', width=""30""></span>
                      <span><img src='img/D.png', width=""30""></span>
                    </p>
                    <p class=""lotteries"">
                      <span>₪76</span>
                      <span>₪79</span>
                      <span>₪71</span>
                    </p>
                    <p class=""lotteries"">
                      <span>65%</span>
                      <span>65%</span>
                      <span>75%</span>
                    </p>","d","trinary","B","53.25","8","8","0","A","C","A","B","75","71","",""
"","","","","","html-keyboard-response","90","354905","0.0-9.0-0.11","031","null","<p style=""text-align: center;"">+</p>","null","fixation","","","","","","","","","","","","",""
"","","","","","html-keyboard-response","91","358883","0.0-9.0-1.11","031","3976","
                    <p class=""lotteries"">
                      <span><img src='img/A.png', width=""30""></span>
                      <span><img src='img/S.png', width=""30""></span>
                      <span><img src='img/D.png', width=""30""></span>
                    </p>
                    <p class=""lotteries"">
                      <span>₪71</span>
                      <span>₪11</span>
                      <span>₪58</span>
                    </p>
                    <p class=""lotteries"">
                      <span>55%</span>
                      <span>75%</span>
                      <span>45%</span>
                    </p>","a","trinary","A","39.05","18","18","0","A","A","B","C","55","71","",""
"","","","","","html-keyboard-response","92","359504","0.0-9.0-0.12","031","null","<p style=""text-align: center;"">+</p>","null","fixation","","","","","","","","","","","","",""
"","","","","","html-keyboard-response","93","363338","0.0-9.0-1.12","031","3833","
                    <p class=""lotteries"">
                      <span><img src='img/A.png', width=""30""></span>
                      <span><img src='img/S.png', width=""30""></span>
                      <span><img src='img/D.png', width=""30""></span>
                    </p>
                    <p class=""lotteries"">
                      <span>₪61</span>
                      <span>₪43</span>
                      <span>₪36</span>
                    </p>
                    <p class=""lotteries"">
                      <span>55%</span>
                      <span>60%</span>
                      <span>60%</span>
                    </p>","a","trinary","B","33.55","7","7","0","A","B","A","C","55","61","",""
"","","","","","html-keyboard-response","94","364393","0.0-9.0-0.13","031","null","<p style=""text-align: center;"">+</p>","null","fixation","","","","","","","","","","","","",""
"","","","","","html-keyboard-response","95","368242","0.0-9.0-1.13","031","3848","
                    <p class=""lotteries"">
                      <span><img src='img/A.png', width=""30""></span>
                      <span><img src='img/S.png', width=""30""></span>
                      <span><img src='img/D.png', width=""30""></span>
                    </p>
                    <p class=""lotteries"">
                      <span>₪36</span>
                      <span>₪71</span>
                      <span>₪18</span>
                    </p>
                    <p class=""lotteries"">
                      <span>75%</span>
                      <span>45%</span>
                      <span>50%</span>
                    </p>","s","trinary","A","31.95","16","16","0","A","B","A","C","45","71","",""
"","","","","","html-keyboard-response","96","369230","0.0-9.0-0.14","031","null","<p style=""text-align: center;"">+</p>","null","fixation","","","","","","","","","","","","",""
"","","","","","html-keyboard-response","97","375806","0.0-9.0-1.14","031","6563","
                    <p class=""lotteries"">
                      <span><img src='img/A.png', width=""30""></span>
                      <span><img src='img/S.png', width=""30""></span>
                      <span><img src='img/D.png', width=""30""></span>
                    </p>
                    <p class=""lotteries"">
                      <span>₪11</span>
                      <span>₪39</span>
                      <span>₪58</span>
                    </p>
                    <p class=""lotteries"">
                      <span>45%</span>
                      <span>60%</span>
                      <span>45%</span>
                    </p>","d","trinary","A","26.1","25","25","0","A","C","B","A","45","58","",""
"","","","","","html-keyboard-response","98","376323","0.0-9.0-0.15","031","null","<p style=""text-align: center;"">+</p>","null","fixation","","","","","","","","","","","","",""
"","","","","","html-keyboard-response","99","383886","0.0-9.0-1.15","031","7562","
                    <p class=""lotteries"">
                      <span><img src='img/A.png', width=""30""></span>
                      <span><img src='img/S.png', width=""30""></span>
                      <span><img src='img/D.png', width=""30""></span>
                    </p>
                    <p class=""lotteries"">
                      <span>₪36</span>
                      <span>₪11</span>
                      <span>₪18</span>
                    </p>
                    <p class=""lotteries"">
                      <span>30%</span>
                      <span>75%</span>
                      <span>50%</span>
                    </p>","a","trinary","A","10.8","22","22","0","-","A","C","B","30","36","",""
"","","","","","html-keyboard-response","100","385298","0.0-9.0-0.16","031","null","<p style=""text-align: center;"">+</p>","null","fixation","","","","","","","","","","","","",""
"","","","","","html-keyboard-response","101","387183","0.0-9.0-1.16","031","1883","
                    <p class=""lotteries"">
                      <span><img src='img/A.png', width=""30""></span>
                      <span><img src='img/S.png', width=""30""></span>
                      <span><img src='img/D.png', width=""30""></span>
                    </p>
                    <p class=""lotteries"">
                      <span>₪11</span>
                      <span>₪4</span>
                      <span>₪4</span>
                    </p>
                    <p class=""lotteries"">
                      <span>75%</span>
                      <span>75%</span>
                      <span>25%</span>
                    </p>","a","trinary","A","8.25","29","29","1","-","A","C","B","75","11","",""
"","","","","","html-keyboard-response","102","387908","0.0-9.0-0.17","031","null","<p style=""text-align: center;"">+</p>","null","fixation","","","","","","","","","","","","",""
"","","","","","html-keyboard-response","103","392894","0.0-9.0-1.17","031","4985","
                    <p class=""lotteries"">
                      <span><img src='img/A.png', width=""30""></span>
                      <span><img src='img/S.png', width=""30""></span>
                      <span><img src='img/D.png', width=""30""></span>
                    </p>
                    <p class=""lotteries"">
                      <span>₪4</span>
                      <span>₪11</span>
                      <span>₪16</span>
                    </p>
                    <p class=""lotteries"">
                      <span>75%</span>
                      <span>25%</span>
                      <span>20%</span>
                    </p>","d","trinary","A","3.2","27","27","0","-","C","B","A","20","16","",""
"","","","","","html-keyboard-response","104","393625","0.0-9.0-0.18","031","null","<p style=""text-align: center;"">+</p>","null","fixation","","","","","","","","","","","","",""
"","","","","","html-keyboard-response","105","399910","0.0-9.0-1.18","031","6284","
                    <p class=""lotteries"">
                      <span><img src='img/A.png', width=""30""></span>
                      <span><img src='img/S.png', width=""30""></span>
                      <span><img src='img/D.png', width=""30""></span>
                    </p>
                    <p class=""lotteries"">
                      <span>₪58</span>
                      <span>₪58</span>
                      <span>₪36</span>
                    </p>
                    <p class=""lotteries"">
                      <span>30%</span>
                      <span>40%</span>
                      <span>75%</span>
                    </p>","d","trinary","B","27","13","13","0","A","C","A","B","75","36","",""
"","","","","","html-keyboard-response","106","400501","0.0-9.0-0.19","031","null","<p style=""text-align: center;"">+</p>","null","fixation","","","","","","","","","","","","",""
"","","","","","html-keyboard-response","107","406358","0.0-9.0-1.19","031","5856","
                    <p class=""lotteries"">
                      <span><img src='img/A.png', width=""30""></span>
                      <span><img src='img/S.png', width=""30""></span>
                      <span><img src='img/D.png', width=""30""></span>
                    </p>
                    <p class=""lotteries"">
                      <span>₪18</span>
                      <span>₪43</span>
                      <span>₪71</span>
                    </p>
                    <p class=""lotteries"">
                      <span>50%</span>
                      <span>60%</span>
                      <span>45%</span>
                    </p>","s","trinary","A","25.8","2","2","0","A","C","A","B","60","43","",""
"","","","","","html-keyboard-response","108","407561","0.0-9.0-0.20","031","null","<p style=""text-align: center;"">+</p>","null","fixation","","","","","","","","","","","","",""
"","","","","","html-keyboard-response","109","423590","0.0-9.0-1.20","031","16028","
                    <p class=""lotteries"">
                      <span><img src='img/A.png', width=""30""></span>
                      <span><img src='img/S.png', width=""30""></span>
                      <span><img src='img/D.png', width=""30""></span>
                    </p>
                    <p class=""lotteries"">
                      <span>₪61</span>
                      <span>₪36</span>
                      <span>₪58</span>
                    </p>
                    <p class=""lotteries"">
                      <span>45%</span>
                      <span>70%</span>
                      <span>40%</span>
                    </p>","s","trinary","B","25.2","10","10","0","A","A","B","C","70","36","",""
"","","","","","html-keyboard-response","110","424996","0.0-9.0-0.21","031","null","<p style=""text-align: center;"">+</p>","null","fixation","","","","","","","","","","","","",""
"","","","","","html-keyboard-response","111","429486","0.0-9.0-1.21","031","4489","
                    <p class=""lotteries"">
                      <span><img src='img/A.png', width=""30""></span>
                      <span><img src='img/S.png', width=""30""></span>
                      <span><img src='img/D.png', width=""30""></span>
                    </p>
                    <p class=""lotteries"">
                      <span>₪11</span>
                      <span>₪4</span>
                      <span>₪18</span>
                    </p>
                    <p class=""lotteries"">
                      <span>20%</span>
                      <span>75%</span>
                      <span>25%</span>
                    </p>","s","trinary","B","3","23","23","0","A","C","B","A","75","4","",""
"","","","","","html-keyboard-response","112","430676","0.0-9.0-0.22","031","null","<p style=""text-align: center;"">+</p>","null","fixation","","","","","","","","","","","","",""
"","","","","","html-keyboard-response","113","437941","0.0-9.0-1.22","031","7264","
                    <p class=""lotteries"">
                      <span><img src='img/A.png', width=""30""></span>
                      <span><img src='img/S.png', width=""30""></span>
                      <span><img src='img/D.png', width=""30""></span>
                    </p>
                    <p class=""lotteries"">
                      <span>₪39</span>
                      <span>₪36</span>
                      <span>₪64</span>
                    </p>
                    <p class=""lotteries"">
                      <span>65%</span>
                      <span>60%</span>
                      <span>50%</span>
                    </p>","d","trinary","B","32","1","1","0","A","A","C","B","50","64","",""
"","","","","","html-keyboard-response","114","438485","0.0-9.0-0.23","031","null","<p style=""text-align: center;"">+</p>","null","fixation","","","","","","","","","","","","",""
"","","","","","html-keyboard-response","115","442516","0.0-9.0-1.23","031","4030","
                    <p class=""lotteries"">
                      <span><img src='img/A.png', width=""30""></span>
                      <span><img src='img/S.png', width=""30""></span>
                      <span><img src='img/D.png', width=""30""></span>
                    </p>
                    <p class=""lotteries"">
                      <span>₪79</span>
                      <span>₪39</span>
                      <span>₪43</span>
                    </p>
                    <p class=""lotteries"">
                      <span>40%</span>
                      <span>60%</span>
                      <span>60%</span>
                    </p>","a","trinary","B","31.6","9","9","0","A","B","C","A","40","79","",""
"","","","","","html-keyboard-response","116","443162","0.0-9.0-0.24","031","null","<p style=""text-align: center;"">+</p>","null","fixation","","","","","","","","","","","","",""
"","","","","","html-keyboard-response","117","446621","0.0-9.0-1.24","031","3457","
                    <p class=""lotteries"">
                      <span><img src='img/A.png', width=""30""></span>
                      <span><img src='img/S.png', width=""30""></span>
                      <span><img src='img/D.png', width=""30""></span>
                    </p>
                    <p class=""lotteries"">
                      <span>₪16</span>
                      <span>₪18</span>
                      <span>₪11</span>
                    </p>
                    <p class=""lotteries"">
                      <span>20%</span>
                      <span>25%</span>
                      <span>45%</span>
                    </p>","s","trinary","A","4.5","14","14","0","A","C","A","B","25","18","",""
"","","","","","html-keyboard-response","118","447481","0.0-9.0-0.25","031","null","<p style=""text-align: center;"">+</p>","null","fixation","","","","","","","","","","","","",""
"","","","","","html-keyboard-response","119","451837","0.0-9.0-1.25","031","4354","
                    <p class=""lotteries"">
                      <span><img src='img/A.png', width=""30""></span>
                      <span><img src='img/S.png', width=""30""></span>
                      <span><img src='img/D.png', width=""30""></span>
                    </p>
                    <p class=""lotteries"">
                      <span>₪4</span>
                      <span>₪11</span>
                      <span>₪64</span>
                    </p>
                    <p class=""lotteries"">
                      <span>25%</span>
                      <span>75%</span>
                      <span>25%</span>
                    </p>","s","trinary","B","8.25","6","6","0","B","C","B","A","75","11","",""
"","","","","","html-keyboard-response","120","453118","0.0-9.0-0.26","031","null","<p style=""text-align: center;"">+</p>","null","fixation","","","","","","","","","","","","",""
"","","","","","html-keyboard-response","121","458397","0.0-9.0-1.26","031","5277","
                    <p class=""lotteries"">
                      <span><img src='img/A.png', width=""30""></span>
                      <span><img src='img/S.png', width=""30""></span>
                      <span><img src='img/D.png', width=""30""></span>
                    </p>
                    <p class=""lotteries"">
                      <span>₪58</span>
                      <span>₪64</span>
                      <span>₪11</span>
                    </p>
                    <p class=""lotteries"">
                      <span>40%</span>
                      <span>25%</span>
                      <span>45%</span>
                    </p>","a","trinary","B","23.2","21","21","0","-","B","A","C","40","58","",""
"","","","","","html-keyboard-response","122","459222","0.0-9.0-0.27","031","null","<p style=""text-align: center;"">+</p>","null","fixation","","","","","","","","","","","","",""
"","","","","","html-keyboard-response","123","463604","0.0-9.0-1.27","031","4381","
                    <p class=""lotteries"">
                      <span><img src='img/A.png', width=""30""></span>
                      <span><img src='img/S.png', width=""30""></span>
                      <span><img src='img/D.png', width=""30""></span>
                    </p>
                    <p class=""lotteries"">
                      <span>₪16</span>
                      <span>₪11</span>
                      <span>₪4</span>
                    </p>
                    <p class=""lotteries"">
                      <span>20%</span>
                      <span>20%</span>
                      <span>50%</span>
                    </p>","a","trinary","A","3.2","17","17","0","A","A","C","B","20","16","",""
"","","","","","html-keyboard-response","124","464760","0.0-9.0-0.28","031","null","<p style=""text-align: center;"">+</p>","null","fixation","","","","","","","","","","","","",""
"","","","","","html-keyboard-response","125","469548","0.0-9.0-1.28","031","4787","
                    <p class=""lotteries"">
                      <span><img src='img/A.png', width=""30""></span>
                      <span><img src='img/S.png', width=""30""></span>
                      <span><img src='img/D.png', width=""30""></span>
                    </p>
                    <p class=""lotteries"">
                      <span>₪16</span>
                      <span>₪36</span>
                      <span>₪4</span>
                    </p>
                    <p class=""lotteries"">
                      <span>20%</span>
                      <span>30%</span>
                      <span>75%</span>
                    </p>","s","trinary","A","10.8","20","20","0","A","C","A","B","30","36","",""
"","","","","","html-keyboard-response","126","471054","0.0-9.0-0.29","031","null","<p style=""text-align: center;"">+</p>","null","fixation","","","","","","","","","","","","",""
"","","","","","html-keyboard-response","127","474837","0.0-9.0-1.29","031","3781","
                    <p class=""lotteries"">
                      <span><img src='img/A.png', width=""30""></span>
                      <span><img src='img/S.png', width=""30""></span>
                      <span><img src='img/D.png', width=""30""></span>
                    </p>
                    <p class=""lotteries"">
                      <span>₪11</span>
                      <span>₪43</span>
                      <span>₪76</span>
                    </p>
                    <p class=""lotteries"">
                      <span>75%</span>
                      <span>75%</span>
                      <span>65%</span>
                    </p>","d","trinary","B","49.4","24","24","0","A","C","A","B","65","76","",""
"","","","","","html-keyboard-response","128","475853","0.0-10.0","031","null","<p style=""text-align: center;"">+</p>","null","fixation","","","","","","","","","","","","",""
"","","","","","html-keyboard-response","129","476900","0.0-11.0","031","1046","<p>הפסקה.
          <br>לחצו על רווח כדי להמשיך.</p>"," ","scan_wait","","","","","","","","","","","","",""
"","","","","","html-keyboard-response","130","477419","0.0-12.0-0.0","031","null","<p style=""text-align: center;"">+</p>","null","fixation","","","","","","","","","","","","",""
"","","","","","html-keyboard-response","131","484068","0.0-12.0-1.0","031","6648","
                    <p class=""lotteries"">
                      <span><img src='img/A.png', width=""30""></span>
                      <span><img src='img/S.png', width=""30""></span>
                      <span><img src='img/D.png', width=""30""></span>
                    </p>
                    <p class=""lotteries"">
                      <span>₪36</span>
                      <span>₪64</span>
                      <span>₪36</span>
                    </p>
                    <p class=""lotteries"">
                      <span>30%</span>
                      <span>50%</span>
                      <span>70%</span>
                    </p>","d","trinary","A","25.2","3","3","0","-","C","B","A","70","36","",""
"","","","","","html-keyboard-response","132","485211","0.0-12.0-0.1","031","null","<p style=""text-align: center;"">+</p>","null","fixation","","","","","","","","","","","","",""
"","","","","","html-keyboard-response","133","489516","0.0-12.0-1.1","031","4304","
                    <p class=""lotteries"">
                      <span><img src='img/A.png', width=""30""></span>
                      <span><img src='img/S.png', width=""30""></span>
                      <span><img src='img/D.png', width=""30""></span>
                    </p>
                    <p class=""lotteries"">
                      <span>₪11</span>
                      <span>₪16</span>
                      <span>₪4</span>
                    </p>
                    <p class=""lotteries"">
                      <span>25%</span>
                      <span>20%</span>
                      <span>75%</span>
                    </p>","s","trinary","A","3.2","27","27","0","-","B","A","C","20","16","",""
"","","","","","html-keyboard-response","134","490644","0.0-12.0-0.2","031","null","<p style=""text-align: center;"">+</p>","null","fixation","","","","","","","","","","","","",""
"","","","","","html-keyboard-response","135","497125","0.0-12.0-1.2","031","6479","
                    <p class=""lotteries"">
                      <span><img src='img/A.png', width=""30""></span>
                      <span><img src='img/S.png', width=""30""></span>
                      <span><img src='img/D.png', width=""30""></span>
                    </p>
                    <p class=""lotteries"">
                      <span>₪58</span>
                      <span>₪11</span>
                      <span>₪71</span>
                    </p>
                    <p class=""lotteries"">
                      <span>45%</span>
                      <span>75%</span>
                      <span>55%</span>
                    </p>","d","trinary","A","39.05","18","18","0","A","C","B","A","55","71","",""
"","","","","","html-keyboard-response","136","497635","0.0-12.0-0.3","031","null","<p style=""text-align: center;"">+</p>","null","fixation","","","","","","","","","","","","",""
"","","","","","html-keyboard-response","137","504374","0.0-12.0-1.3","031","6736","
                    <p class=""lotteries"">
                      <span><img src='img/A.png', width=""30""></span>
                      <span><img src='img/S.png', width=""30""></span>
                      <span><img src='img/D.png', width=""30""></span>
                    </p>
                    <p class=""lotteries"">
                      <span>₪36</span>
                      <span>₪61</span>
                      <span>₪43</span>
                    </p>
                    <p class=""lotteries"">
                      <span>60%</span>
                      <span>55%</span>
                      <span>60%</span>
                    </p>","s","trinary","B","33.55","7","7","0","A","C","B","A","55","61","",""
"","","","","","html-keyboard-response","138","505199","0.0-12.0-0.4","031","null","<p style=""text-align: center;"">+</p>","null","fixation","","","","","","","","","","","","",""
"","","","","","html-keyboard-response","139","508670","0.0-12.0-1.4","031","3469","
                    <p class=""lotteries"">
                      <span><img src='img/A.png', width=""30""></span>
                      <span><img src='img/S.png', width=""30""></span>
                      <span><img src='img/D.png', width=""30""></span>
                    </p>
                    <p class=""lotteries"">
                      <span>₪58</span>
                      <span>₪43</span>
                      <span>₪76</span>
                    </p>
                    <p class=""lotteries"">
                      <span>40%</span>
                      <span>75%</span>
                      <span>65%</span>
                    </p>","d","trinary","A","49.4","19","19","0","-","C","B","A","65","76","",""
"","","","","","html-keyboard-response","140","510093","0.0-12.0-0.5","031","null","<p style=""text-align: center;"">+</p>","null","fixation","","","","","","","","","","","","",""
"","","","","","html-keyboard-response","141","516470","0.0-12.0-1.5","031","6375","
                    <p class=""lotteries"">
                      <span><img src='img/A.png', width=""30""></span>
                      <span><img src='img/S.png', width=""30""></span>
                      <span><img src='img/D.png', width=""30""></span>
                    </p>
                    <p class=""lotteries"">
                      <span>₪43</span>
                      <span>₪79</span>
                      <span>₪39</span>
                    </p>
                    <p class=""lotteries"">
                      <span>60%</span>
                      <span>40%</span>
                      <span>60%</span>
                    </p>","a","trinary","A","25.8","9","9","0","A","A","B","C","60","43","",""
"","","","","","html-keyboard-response","142","517048","0.0-12.0-0.6","031","null","<p style=""text-align: center;"">+</p>","null","fixation","","","","","","","","","","","","",""
"","","","","","html-keyboard-response","143","520478","0.0-12.0-1.6","031","3428","
                    <p class=""lotteries"">
                      <span><img src='img/A.png', width=""30""></span>
                      <span><img src='img/S.png', width=""30""></span>
                      <span><img src='img/D.png', width=""30""></span>
                    </p>
                    <p class=""lotteries"">
                      <span>₪36</span>
                      <span>₪4</span>
                      <span>₪16</span>
                    </p>
                    <p class=""lotteries"">
                      <span>30%</span>
                      <span>75%</span>
                      <span>20%</span>
                    </p>","a","trinary","A","10.8","20","20","0","A","A","B","C","30","36","",""
"","","","","","html-keyboard-response","144","521611","0.0-12.0-0.7","031","null","<p style=""text-align: center;"">+</p>","null","fixation","","","","","","","","","","","","",""
"","","","","","html-keyboard-response","145","525430","0.0-12.0-1.7","031","3817","
                    <p class=""lotteries"">
                      <span><img src='img/A.png', width=""30""></span>
                      <span><img src='img/S.png', width=""30""></span>
                      <span><img src='img/D.png', width=""30""></span>
                    </p>
                    <p class=""lotteries"">
                      <span>₪64</span>
                      <span>₪58</span>
                      <span>₪11</span>
                    </p>
                    <p class=""lotteries"">
                      <span>25%</span>
                      <span>40%</span>
                      <span>45%</span>
                    </p>","s","trinary","B","23.2","21","21","0","-","A","B","C","40","58","",""
"","","","","","html-keyboard-response","146","526155","0.0-12.0-0.8","031","null","<p style=""text-align: center;"">+</p>","null","fixation","","","","","","","","","","","","",""
"","","","","","html-keyboard-response","147","530270","0.0-12.0-1.8","031","4113","
                    <p class=""lotteries"">
                      <span><img src='img/A.png', width=""30""></span>
                      <span><img src='img/S.png', width=""30""></span>
                      <span><img src='img/D.png', width=""30""></span>
                    </p>
                    <p class=""lotteries"">
                      <span>₪36</span>
                      <span>₪71</span>
                      <span>₪36</span>
                    </p>
                    <p class=""lotteries"">
                      <span>70%</span>
                      <span>55%</span>
                      <span>75%</span>
                    </p>","s","trinary","B","39.05","5","5","0","A","C","B","A","55","71","",""
"","","","","","html-keyboard-response","148","531567","0.0-12.0-0.9","031","null","<p style=""text-align: center;"">+</p>","null","fixation","","","","","","","","","","","","",""
"","","","","","html-keyboard-response","149","533646","0.0-12.0-1.9","031","2078","
                    <p class=""lotteries"">
                      <span><img src='img/A.png', width=""30""></span>
                      <span><img src='img/S.png', width=""30""></span>
                      <span><img src='img/D.png', width=""30""></span>
                    </p>
                    <p class=""lotteries"">
                      <span>₪4</span>
                      <span>₪11</span>
                      <span>₪58</span>
                    </p>
                    <p class=""lotteries"">
                      <span>25%</span>
                      <span>25%</span>
                      <span>30%</span>
                    </p>","d","trinary","A","17.4","30","30","1","-","C","B","A","30","58","",""
"","","","","","html-keyboard-response","150","534652","0.0-12.0-0.10","031","null","<p style=""text-align: center;"">+</p>","null","fixation","","","","","","","","","","","","",""
"","","","","","html-keyboard-response","151","537726","0.0-12.0-1.10","031","3073","
                    <p class=""lotteries"">
                      <span><img src='img/A.png', width=""30""></span>
                      <span><img src='img/S.png', width=""30""></span>
                      <span><img src='img/D.png', width=""30""></span>
                    </p>
                    <p class=""lotteries"">
                      <span>₪4</span>
                      <span>₪11</span>
                      <span>₪11</span>
                    </p>
                    <p class=""lotteries"">
                      <span>75%</span>
                      <span>25%</span>
                      <span>20%</span>
                    </p>","s","trinary","A","2.75","12","12","0","A","B","A","C","25","11","",""
"","","","","","html-keyboard-response","152","538813","0.0-12.0-0.11","031","null","<p style=""text-align: center;"">+</p>","null","fixation","","","","","","","","","","","","",""
"","","","","","html-keyboard-response","153","546942","0.0-12.0-1.11","031","8127","
                    <p class=""lotteries"">
                      <span><img src='img/A.png', width=""30""></span>
                      <span><img src='img/S.png', width=""30""></span>
                      <span><img src='img/D.png', width=""30""></span>
                    </p>
                    <p class=""lotteries"">
                      <span>₪36</span>
                      <span>₪64</span>
                      <span>₪39</span>
                    </p>
                    <p class=""lotteries"">
                      <span>60%</span>
                      <span>50%</span>
                      <span>65%</span>
                    </p>","s","trinary","B","32","1","1","0","A","C","B","A","50","64","",""
"","","","","","html-keyboard-response","154","547654","0.0-12.0-0.12","031","null","<p style=""text-align: center;"">+</p>","null","fixation","","","","","","","","","","","","",""
"","","","","","html-keyboard-response","155","552893","0.0-12.0-1.12","031","5237","
                    <p class=""lotteries"">
                      <span><img src='img/A.png', width=""30""></span>
                      <span><img src='img/S.png', width=""30""></span>
                      <span><img src='img/D.png', width=""30""></span>
                    </p>
                    <p class=""lotteries"">
                      <span>₪11</span>
                      <span>₪4</span>
                      <span>₪18</span>
                    </p>
                    <p class=""lotteries"">
                      <span>20%</span>
                      <span>75%</span>
                      <span>25%</span>
                    </p>","d","trinary","A","4.5","23","23","0","A","C","B","A","25","18","",""
"","","","","","html-keyboard-response","156","554011","0.0-12.0-0.13","031","null","<p style=""text-align: center;"">+</p>","null","fixation","","","","","","","","","","","","",""
"","","","","","html-keyboard-response","157","558934","0.0-12.0-1.13","031","4922","
                    <p class=""lotteries"">
                      <span><img src='img/A.png', width=""30""></span>
                      <span><img src='img/S.png', width=""30""></span>
                      <span><img src='img/D.png', width=""30""></span>
                    </p>
                    <p class=""lotteries"">
                      <span>₪18</span>
                      <span>₪11</span>
                      <span>₪36</span>
                    </p>
                    <p class=""lotteries"">
                      <span>50%</span>
                      <span>75%</span>
                      <span>30%</span>
                    </p>","s","trinary","C","8.25","22","22","0","-","B","C","A","75","11","",""
"","","","","","html-keyboard-response","158","560108","0.0-12.0-0.14","031","null","<p style=""text-align: center;"">+</p>","null","fixation","","","","","","","","","","","","",""
"","","","","","html-keyboard-response","159","567370","0.0-12.0-1.14","031","7264","
                    <p class=""lotteries"">
                      <span><img src='img/A.png', width=""30""></span>
                      <span><img src='img/S.png', width=""30""></span>
                      <span><img src='img/D.png', width=""30""></span>
                    </p>
                    <p class=""lotteries"">
                      <span>₪58</span>
                      <span>₪36</span>
                      <span>₪58</span>
                    </p>
                    <p class=""lotteries"">
                      <span>40%</span>
                      <span>75%</span>
                      <span>30%</span>
                    </p>","s","trinary","B","27","13","13","0","A","A","B","C","75","36","",""
"","","","","","html-keyboard-response","160","568694","0.0-12.0-0.15","031","null","<p style=""text-align: center;"">+</p>","null","fixation","","","","","","","","","","","","",""
"","","","","","html-keyboard-response","161","572482","0.0-12.0-1.15","031","3786","
                    <p class=""lotteries"">
                      <span><img src='img/A.png', width=""30""></span>
                      <span><img src='img/S.png', width=""30""></span>
                      <span><img src='img/D.png', width=""30""></span>
                    </p>
                    <p class=""lotteries"">
                      <span>₪11</span>
                      <span>₪11</span>
                      <span>₪18</span>
                    </p>
                    <p class=""lotteries"">
                      <span>20%</span>
                      <span>25%</span>
                      <span>50%</span>
                    </p>","d","trinary","A","9","28","28","1","-","C","B","A","50","18","",""
"","","","","","html-keyboard-response","162","573622","0.0-12.0-0.16","031","null","<p style=""text-align: center;"">+</p>","null","fixation","","","","","","","","","","","","",""
"","","","","","html-keyboard-response","163","585362","0.0-12.0-1.16","031","11738","
                    <p class=""lotteries"">
                      <span><img src='img/A.png', width=""30""></span>
                      <span><img src='img/S.png', width=""30""></span>
                      <span><img src='img/D.png', width=""30""></span>
                    </p>
                    <p class=""lotteries"">
                      <span>₪76</span>
                      <span>₪79</span>
                      <span>₪71</span>
                    </p>
                    <p class=""lotteries"">
                      <span>65%</span>
                      <span>65%</span>
                      <span>75%</span>
                    </p>","d","trinary","B","53.25","8","8","0","A","C","A","B","75","71","",""
"","","","","","html-keyboard-response","164","585927","0.0-12.0-0.17","031","null","<p style=""text-align: center;"">+</p>","null","fixation","","","","","","","","","","","","",""
"","","","","","html-keyboard-response","165","592275","0.0-12.0-1.17","031","6346","
                    <p class=""lotteries"">
                      <span><img src='img/A.png', width=""30""></span>
                      <span><img src='img/S.png', width=""30""></span>
                      <span><img src='img/D.png', width=""30""></span>
                    </p>
                    <p class=""lotteries"">
                      <span>₪39</span>
                      <span>₪43</span>
                      <span>₪61</span>
                    </p>
                    <p class=""lotteries"">
                      <span>65%</span>
                      <span>75%</span>
                      <span>55%</span>
                    </p>","d","trinary","B","33.55","26","26","0","A","C","A","B","55","61","",""
"","","","","","html-keyboard-response","166","592999","0.0-12.0-0.18","031","null","<p style=""text-align: center;"">+</p>","null","fixation","","","","","","","","","","","","",""
"","","","","","html-keyboard-response","167","595778","0.0-12.0-1.18","031","2777","
                    <p class=""lotteries"">
                      <span><img src='img/A.png', width=""30""></span>
                      <span><img src='img/S.png', width=""30""></span>
                      <span><img src='img/D.png', width=""30""></span>
                    </p>
                    <p class=""lotteries"">
                      <span>₪11</span>
                      <span>₪18</span>
                      <span>₪16</span>
                    </p>
                    <p class=""lotteries"">
                      <span>45%</span>
                      <span>25%</span>
                      <span>20%</span>
                    </p>","s","trinary","A","4.5","14","14","0","A","B","A","C","25","18","",""
"","","","","","html-keyboard-response","168","596422","0.0-12.0-0.19","031","null","<p style=""text-align: center;"">+</p>","null","fixation","","","","","","","","","","","","",""
"","","","","","html-keyboard-response","169","599386","0.0-12.0-1.19","031","2963","
                    <p class=""lotteries"">
                      <span><img src='img/A.png', width=""30""></span>
                      <span><img src='img/S.png', width=""30""></span>
                      <span><img src='img/D.png', width=""30""></span>
                    </p>
                    <p class=""lotteries"">
                      <span>₪11</span>
                      <span>₪4</span>
                      <span>₪4</span>
                    </p>
                    <p class=""lotteries"">
                      <span>75%</span>
                      <span>25%</span>
                      <span>75%</span>
                    </p>","a","trinary","A","8.25","29","29","1","-","A","B","C","75","11","",""
"","","","","","html-keyboard-response","170","600506","0.0-12.0-0.20","031","null","<p style=""text-align: center;"">+</p>","null","fixation","","","","","","","","","","","","",""
"","","","","","html-keyboard-response","171","603665","0.0-12.0-1.20","031","3158","
                    <p class=""lotteries"">
                      <span><img src='img/A.png', width=""30""></span>
                      <span><img src='img/S.png', width=""30""></span>
                      <span><img src='img/D.png', width=""30""></span>
                    </p>
                    <p class=""lotteries"">
                      <span>₪16</span>
                      <span>₪11</span>
                      <span>₪4</span>
                    </p>
                    <p class=""lotteries"">
                      <span>20%</span>
                      <span>20%</span>
                      <span>50%</span>
                    </p>","a","trinary","A","3.2","17","17","0","A","A","C","B","20","16","",""
"","","","","","html-keyboard-response","172","604508","0.0-12.0-0.21","031","null","<p style=""text-align: center;"">+</p>","null","fixation","","","","","","","","","","","","",""
"","","","","","html-keyboard-response","173","610306","0.0-12.0-1.21","031","5794","
                    <p class=""lotteries"">
                      <span><img src='img/A.png', width=""30""></span>
                      <span><img src='img/S.png', width=""30""></span>
                      <span><img src='img/D.png', width=""30""></span>
                    </p>
                    <p class=""lotteries"">
                      <span>₪71</span>
                      <span>₪18</span>
                      <span>₪43</span>
                    </p>
                    <p class=""lotteries"">
                      <span>45%</span>
                      <span>50%</span>
                      <span>60%</span>
                    </p>","d","trinary","A","25.8","2","2","0","A","B","C","A","60","43","",""
"","","","","","html-keyboard-response","174","611454","0.0-12.0-0.22","031","null","<p style=""text-align: center;"">+</p>","null","fixation","","","","","","","","","","","","",""
"","","","","","html-keyboard-response","175","617417","0.0-12.0-1.22","031","5962","
                    <p class=""lotteries"">
                      <span><img src='img/A.png', width=""30""></span>
                      <span><img src='img/S.png', width=""30""></span>
                      <span><img src='img/D.png', width=""30""></span>
                    </p>
                    <p class=""lotteries"">
                      <span>₪11</span>
                      <span>₪76</span>
                      <span>₪43</span>
                    </p>
                    <p class=""lotteries"">
                      <span>75%</span>
                      <span>65%</span>
                      <span>75%</span>
                    </p>","s","trinary","B","49.4","24","24","0","A","C","B","A","65","76","",""
"","","","","","html-keyboard-response","176","618148","0.0-12.0-0.23","031","null","<p style=""text-align: center;"">+</p>","null","fixation","","","","","","","","","","","","",""
"","","","","","html-keyboard-response","177","625562","0.0-12.0-1.23","031","7412","
                    <p class=""lotteries"">
                      <span><img src='img/A.png', width=""30""></span>
                      <span><img src='img/S.png', width=""30""></span>
                      <span><img src='img/D.png', width=""30""></span>
                    </p>
                    <p class=""lotteries"">
                      <span>₪61</span>
                      <span>₪58</span>
                      <span>₪36</span>
                    </p>
                    <p class=""lotteries"">
                      <span>45%</span>
                      <span>40%</span>
                      <span>70%</span>
                    </p>","d","trinary","B","25.2","10","10","0","A","A","C","B","70","36","",""
"","","","","","html-keyboard-response","178","626579","0.0-12.0-0.24","031","null","<p style=""text-align: center;"">+</p>","null","fixation","","","","","","","","","","","","",""
"","","","","","html-keyboard-response","179","632336","0.0-12.0-1.24","031","5749","
                    <p class=""lotteries"">
                      <span><img src='img/A.png', width=""30""></span>
                      <span><img src='img/S.png', width=""30""></span>
                      <span><img src='img/D.png', width=""30""></span>
                    </p>
                    <p class=""lotteries"">
                      <span>₪43</span>
                      <span>₪39</span>
                      <span>₪36</span>
                    </p>
                    <p class=""lotteries"">
                      <span>60%</span>
                      <span>65%</span>
                      <span>60%</span>
                    </p>","a","trinary","B","25.8","15","15","0","-","B","A","C","60","43","",""
"","","","","","html-keyboard-response","180","633523","0.0-12.0-0.25","031","null","<p style=""text-align: center;"">+</p>","null","fixation","","","","","","","","","","","","",""
"","","","","","html-keyboard-response","181","638696","0.0-12.0-1.25","031","5172","
                    <p class=""lotteries"">
                      <span><img src='img/A.png', width=""30""></span>
                      <span><img src='img/S.png', width=""30""></span>
                      <span><img src='img/D.png', width=""30""></span>
                    </p>
                    <p class=""lotteries"">
                      <span>₪36</span>
                      <span>₪18</span>
                      <span>₪71</span>
                    </p>
                    <p class=""lotteries"">
                      <span>75%</span>
                      <span>50%</span>
                      <span>45%</span>
                    </p>","a","trinary","B","27","16","16","0","A","B","C","A","75","36","",""
"","","","","","html-keyboard-response","182","639375","0.0-12.0-0.26","031","null","<p style=""text-align: center;"">+</p>","null","fixation","","","","","","","","","","","","",""
"","","","","","html-keyboard-response","183","643840","0.0-12.0-1.26","031","4463","
                    <p class=""lotteries"">
                      <span><img src='img/A.png', width=""30""></span>
                      <span><img src='img/S.png', width=""30""></span>
                      <span><img src='img/D.png', width=""30""></span>
                    </p>
                    <p class=""lotteries"">
                      <span>₪4</span>
                      <span>₪36</span>
                      <span>₪64</span>
                    </p>
                    <p class=""lotteries"">
                      <span>50%</span>
                      <span>75%</span>
                      <span>50%</span>
                    </p>","d","trinary","A","32","4","4","0","A","C","B","A","50","64","",""
"","","","","","html-keyboard-response","184","644757","0.0-12.0-0.27","031","null","<p style=""text-align: center;"">+</p>","null","fixation","","","","","","","","","","","","",""
"","","","","","html-keyboard-response","185","650376","0.0-12.0-1.27","031","5617","
                    <p class=""lotteries"">
                      <span><img src='img/A.png', width=""30""></span>
                      <span><img src='img/S.png', width=""30""></span>
                      <span><img src='img/D.png', width=""30""></span>
                    </p>
                    <p class=""lotteries"">
                      <span>₪64</span>
                      <span>₪4</span>
                      <span>₪11</span>
                    </p>
                    <p class=""lotteries"">
                      <span>25%</span>
                      <span>25%</span>
                      <span>75%</span>
                    </p>","d","trinary","B","8.25","6","6","0","B","A","C","B","75","11","",""
"","","","","","html-keyboard-response","186","651431","0.0-12.0-0.28","031","null","<p style=""text-align: center;"">+</p>","null","fixation","","","","","","","","","","","","",""
"","","","","","html-keyboard-response","187","655752","0.0-12.0-1.28","031","4320","
                    <p class=""lotteries"">
                      <span><img src='img/A.png', width=""30""></span>
                      <span><img src='img/S.png', width=""30""></span>
                      <span><img src='img/D.png', width=""30""></span>
                    </p>
                    <p class=""lotteries"">
                      <span>₪11</span>
                      <span>₪39</span>
                      <span>₪58</span>
                    </p>
                    <p class=""lotteries"">
                      <span>45%</span>
                      <span>60%</span>
                      <span>45%</span>
                    </p>","s","trinary","B","23.4","25","25","0","A","C","B","A","60","39","",""
"","","","","","html-keyboard-response","188","656957","0.0-12.0-0.29","031","null","<p style=""text-align: center;"">+</p>","null","fixation","","","","","","","","","","","","",""
"","","","","","html-keyboard-response","189","661544","0.0-12.0-1.29","031","4585","
                    <p class=""lotteries"">
                      <span><img src='img/A.png', width=""30""></span>
                      <span><img src='img/S.png', width=""30""></span>
                      <span><img src='img/D.png', width=""30""></span>
                    </p>
                    <p class=""lotteries"">
                      <span>₪58</span>
                      <span>₪61</span>
                      <span>₪43</span>
                    </p>
                    <p class=""lotteries"">
                      <span>45%</span>
                      <span>45%</span>
                      <span>75%</span>
                    </p>","d","trinary","B","32.25","11","11","0","A","C","A","B","75","43","",""
"","","","","","html-keyboard-response","190","662551","0.0-13.0","031","null","<p style=""text-align: center;"">+</p>","null","fixation","","","","","","","","","","","","",""
"","","","","","html-keyboard-response","191","663255","0.0-14.0","031","null","","null","delay","","","","","","","","","","","","",""
"","","","","","html-keyboard-response","192","685240","0.0-15.0","031","21983","<h1>הסוף</h1>
        <p>אנו מודים לכם על ההשתתפות!
        <p>כעת נשחק את אחת ההגרלות שבחרתם, באחד משני החלקים.
        <br>אנא קראו לנו להרצת ההגרלות.</p>"," ","","","","","","","","","","","","","",""
"","","","","","survey","193","698951","0.0-16.0","031","13621","","{""Gender"":""נקבה"",""Hand"":""ימין"",""Glasses"":""כן"",""Age"":""23""}","","","","","","","","","","","","","","[]"
