"success","timeout","failed_images","failed_audio","failed_video","trial_type","trial_index","time_elapsed","internal_node_id","subject_id","rt","stimulus","response","part","actual_choice","actual_EV","binary_id","trinary_id","catch","A_key","D_key","choice_prob","choice_amount","chosen_part","accuracy"
"true","false","[]","[]","[]","preload","0","6","0.0-0.0","034","","","","","","","","","","","","","","",""
"","","","","","html-keyboard-response","1","719","0.0-1.0","034","null","","null","delay","","","","","","","","","","",""
"","","","","","html-keyboard-response","2","20400","0.0-2.0","034","19679","
          <h1>חלק 2</h1>
          <p>בחלק זה יוצגו בפניכם שתי הגרלות.
          <br>אתם מתבקשים לבחור את ההגרלה שתרצו להשתתף בה.
          <br>שימו לב! בסוף הניסוי נבחר שלב אחד באקראי ונממש את ההגרלה שבחרתם. כלומר, הבחירה שלכם יכולה להפוך לכסף אמיתי.
          <br><br>לחצו רווח כדי להמשיך.</p>"," ","instructions","","","","","","","","","","",""
"","","","","","html-keyboard-response","3","31481","0.0-3.0","034","10364","
          <p>בואו נתחיל בדוגמה:
          <br>לפניכם שתי הגרלות.
          <br>לחצו 'A' אם אתם מעדיפים את ההגרלה השמאלית
          <br>לחצו 'D' אם אתם מעדיפים את ההגרלה הימנית
          <p class=""lotteries"">
            <span><img src='img/A.png', width=""30""></span>
            <span><img src='img/D.png', width=""30""></span>
          </p>
          <p class=""lotteries"">
            <span>₪39</span>
            <span>₪54</span>
          </p>
          <p class=""lotteries"">
            <span>65%</span>
            <span>35%</span>
          </p>","d","example","","","","","","","","","","",""
"","","","","","html-keyboard-response","4","35336","0.0-4.0","034","3151","<p>יפה מאוד!
                  <br>בחרתם את ההגרלה הימנית. נשמע נכון?
                  <br>בואו ננסה דוגמה נוספת:</p>
                  <p class=""lotteries"">
                    <span><img src='img/A.png', width=""30""></span>
                    <span><img src='img/D.png', width=""30""></span>
                  </p>
                  <p class=""lotteries"">
                    <span>₪29</span>
                    <span>₪43</span>
                  </p>
                  <p class=""lotteries"">
                    <span>30%</span>
                    <span>65%</span>
                  </p>","d","example","","","","","","","","","","",""
"","","","","","html-keyboard-response","5","40472","0.0-5.0","034","4422","<p>יפה. כעת בחרתם את ההגרלה הימנית. 
                  <br>מיד נתחיל בניסוי.
                  <br>אתם תראו זוגות של הגרלות ותתבקשו לבחור את ההגרלה המועדפת עליכם.
                  <br><br>לחצו רווח כדי להמשיך.</p>"," ","instructions","","","","","","","","","","",""
"","","","","","html-keyboard-response","6","42118","0.0-6.0-0.0","034","null","<p style=""text-align: center;"">+</p>","null","fixation","","","","","","","","","","",""
"","","","","","html-keyboard-response","7","47144","0.0-6.0-1.0","034","5024","
                    <p class=""lotteries"">
                      <span><img src='img/A.png', width=""30""></span>
                      <span><img src='img/D.png', width=""30""></span>
                    </p>
                    <p class=""lotteries"">
                      <span>₪43</span>
                      <span>₪61</span>
                    </p>
                    <p class=""lotteries"">
                      <span>60%</span>
                      <span>55%</span>
                    </p>","d","binary","B","33.55","7","7","0","A","B","55","61","",""
"","","","","","html-keyboard-response","8","48225","0.0-6.0-0.1","034","null","<p style=""text-align: center;"">+</p>","null","fixation","","","","","","","","","","",""
"","","","","","html-keyboard-response","9","51854","0.0-6.0-1.1","034","3622","
                    <p class=""lotteries"">
                      <span><img src='img/A.png', width=""30""></span>
                      <span><img src='img/D.png', width=""30""></span>
                    </p>
                    <p class=""lotteries"">
                      <span>₪43</span>
                      <span>₪39</span>
                    </p>
                    <p class=""lotteries"">
                      <span>60%</span>
                      <span>65%</span>
                    </p>","a","binary","B","25.8","15","15","0","B","A","60","43","",""
"","","","","","html-keyboard-response","10","52978","0.0-6.0-0.2","034","null","<p style=""text-align: center;"">+</p>","null","fixation","","","","","","","","","","",""
"","","","","","html-keyboard-response","11","58102","0.0-6.0-1.2","034","5123","
                    <p class=""lotteries"">
                      <span><img src='img/A.png', width=""30""></span>
                      <span><img src='img/D.png', width=""30""></span>
                    </p>
                    <p class=""lotteries"">
                      <span>₪61</span>
                      <span>₪43</span>
                    </p>
                    <p class=""lotteries"">
                      <span>55%</span>
                      <span>75%</span>
                    </p>","d","binary","A","32.25","26","26","0","B","A","75","43","",""
"","","","","","html-keyboard-response","12","59118","0.0-6.0-0.3","034","null","<p style=""text-align: center;"">+</p>","null","fixation","","","","","","","","","","",""
"","","","","","html-keyboard-response","13","62966","0.0-6.0-1.3","034","3846","
                    <p class=""lotteries"">
                      <span><img src='img/A.png', width=""30""></span>
                      <span><img src='img/D.png', width=""30""></span>
                    </p>
                    <p class=""lotteries"">
                      <span>₪61</span>
                      <span>₪36</span>
                    </p>
                    <p class=""lotteries"">
                      <span>45%</span>
                      <span>70%</span>
                    </p>","a","binary","A","27.45","10","10","0","A","B","45","61","",""
"","","","","","html-keyboard-response","14","64032","0.0-6.0-0.4","034","null","<p style=""text-align: center;"">+</p>","null","fixation","","","","","","","","","","",""
"","","","","","html-keyboard-response","15","69526","0.0-6.0-1.4","034","5492","
                    <p class=""lotteries"">
                      <span><img src='img/A.png', width=""30""></span>
                      <span><img src='img/D.png', width=""30""></span>
                    </p>
                    <p class=""lotteries"">
                      <span>₪36</span>
                      <span>₪18</span>
                    </p>
                    <p class=""lotteries"">
                      <span>30%</span>
                      <span>50%</span>
                    </p>","a","binary","A","10.8","22","22","0","A","B","30","36","",""
"","","","","","html-keyboard-response","16","70346","0.0-6.0-0.5","034","null","<p style=""text-align: center;"">+</p>","null","fixation","","","","","","","","","","",""
"","","","","","html-keyboard-response","17","79630","0.0-6.0-1.5","034","9282","
                    <p class=""lotteries"">
                      <span><img src='img/A.png', width=""30""></span>
                      <span><img src='img/D.png', width=""30""></span>
                    </p>
                    <p class=""lotteries"">
                      <span>₪16</span>
                      <span>₪11</span>
                    </p>
                    <p class=""lotteries"">
                      <span>20%</span>
                      <span>25%</span>
                    </p>","d","binary","B","2.75","27","27","0","A","B","25","11","",""
"","","","","","html-keyboard-response","18","80197","0.0-6.0-0.6","034","null","<p style=""text-align: center;"">+</p>","null","fixation","","","","","","","","","","",""
"","","","","","html-keyboard-response","19","83366","0.0-6.0-1.6","034","3168","
                    <p class=""lotteries"">
                      <span><img src='img/A.png', width=""30""></span>
                      <span><img src='img/D.png', width=""30""></span>
                    </p>
                    <p class=""lotteries"">
                      <span>₪79</span>
                      <span>₪43</span>
                    </p>
                    <p class=""lotteries"">
                      <span>40%</span>
                      <span>60%</span>
                    </p>","a","binary","B","31.6","9","9","0","B","A","40","79","",""
"","","","","","html-keyboard-response","20","84634","0.0-6.0-0.7","034","null","<p style=""text-align: center;"">+</p>","null","fixation","","","","","","","","","","",""
"","","","","","html-keyboard-response","21","88470","0.0-6.0-1.7","034","3834","
                    <p class=""lotteries"">
                      <span><img src='img/A.png', width=""30""></span>
                      <span><img src='img/D.png', width=""30""></span>
                    </p>
                    <p class=""lotteries"">
                      <span>₪36</span>
                      <span>₪71</span>
                    </p>
                    <p class=""lotteries"">
                      <span>75%</span>
                      <span>45%</span>
                    </p>","d","binary","A","31.95","16","16","0","B","A","45","71","",""
"","","","","","html-keyboard-response","22","88999","0.0-6.0-0.8","034","null","<p style=""text-align: center;"">+</p>","null","fixation","","","","","","","","","","",""
"","","","","","html-keyboard-response","23","91134","0.0-6.0-1.8","034","2133","
                    <p class=""lotteries"">
                      <span><img src='img/A.png', width=""30""></span>
                      <span><img src='img/D.png', width=""30""></span>
                    </p>
                    <p class=""lotteries"">
                      <span>₪36</span>
                      <span>₪64</span>
                    </p>
                    <p class=""lotteries"">
                      <span>75%</span>
                      <span>50%</span>
                    </p>","d","binary","A","32","4","4","0","B","A","50","64","",""
"","","","","","html-keyboard-response","24","91838","0.0-6.0-0.9","034","null","<p style=""text-align: center;"">+</p>","null","fixation","","","","","","","","","","",""
"","","","","","html-keyboard-response","25","95174","0.0-6.0-1.9","034","3335","
                    <p class=""lotteries"">
                      <span><img src='img/A.png', width=""30""></span>
                      <span><img src='img/D.png', width=""30""></span>
                    </p>
                    <p class=""lotteries"">
                      <span>₪18</span>
                      <span>₪11</span>
                    </p>
                    <p class=""lotteries"">
                      <span>25%</span>
                      <span>45%</span>
                    </p>","d","binary","B","4.95","14","14","0","A","B","45","11","",""
"","","","","","html-keyboard-response","26","96652","0.0-6.0-0.10","034","null","<p style=""text-align: center;"">+</p>","null","fixation","","","","","","","","","","",""
"","","","","","html-keyboard-response","27","99734","0.0-6.0-1.10","034","3080","
                    <p class=""lotteries"">
                      <span><img src='img/A.png', width=""30""></span>
                      <span><img src='img/D.png', width=""30""></span>
                    </p>
                    <p class=""lotteries"">
                      <span>₪4</span>
                      <span>₪11</span>
                    </p>
                    <p class=""lotteries"">
                      <span>25%</span>
                      <span>75%</span>
                    </p>","d","binary","A","8.25","29","29","1","B","A","75","11","",""
"","","","","","html-keyboard-response","28","100891","0.0-6.0-0.11","034","null","<p style=""text-align: center;"">+</p>","null","fixation","","","","","","","","","","",""
"","","","","","html-keyboard-response","29","103630","0.0-6.0-1.11","034","2738","
                    <p class=""lotteries"">
                      <span><img src='img/A.png', width=""30""></span>
                      <span><img src='img/D.png', width=""30""></span>
                    </p>
                    <p class=""lotteries"">
                      <span>₪64</span>
                      <span>₪58</span>
                    </p>
                    <p class=""lotteries"">
                      <span>25%</span>
                      <span>40%</span>
                    </p>","d","binary","B","23.2","21","21","0","A","B","40","58","",""
"","","","","","html-keyboard-response","30","104635","0.0-6.0-0.12","034","null","<p style=""text-align: center;"">+</p>","null","fixation","","","","","","","","","","",""
"","","","","","html-keyboard-response","31","106974","0.0-6.0-1.12","034","2337","
                    <p class=""lotteries"">
                      <span><img src='img/A.png', width=""30""></span>
                      <span><img src='img/D.png', width=""30""></span>
                    </p>
                    <p class=""lotteries"">
                      <span>₪61</span>
                      <span>₪43</span>
                    </p>
                    <p class=""lotteries"">
                      <span>45%</span>
                      <span>75%</span>
                    </p>","a","binary","A","27.45","11","11","0","A","B","45","61","",""
"","","","","","html-keyboard-response","32","108405","0.0-6.0-0.13","034","null","<p style=""text-align: center;"">+</p>","null","fixation","","","","","","","","","","",""
"","","","","","html-keyboard-response","33","111955","0.0-6.0-1.13","034","3551","
                    <p class=""lotteries"">
                      <span><img src='img/A.png', width=""30""></span>
                      <span><img src='img/D.png', width=""30""></span>
                    </p>
                    <p class=""lotteries"">
                      <span>₪58</span>
                      <span>₪36</span>
                    </p>
                    <p class=""lotteries"">
                      <span>40%</span>
                      <span>75%</span>
                    </p>","a","binary","A","23.2","13","13","0","A","B","40","58","",""
"","","","","","html-keyboard-response","34","112526","0.0-6.0-0.14","034","null","<p style=""text-align: center;"">+</p>","null","fixation","","","","","","","","","","",""
"","","","","","html-keyboard-response","35","116187","0.0-6.0-1.14","034","3660","
                    <p class=""lotteries"">
                      <span><img src='img/A.png', width=""30""></span>
                      <span><img src='img/D.png', width=""30""></span>
                    </p>
                    <p class=""lotteries"">
                      <span>₪18</span>
                      <span>₪11</span>
                    </p>
                    <p class=""lotteries"">
                      <span>50%</span>
                      <span>25%</span>
                    </p>","a","binary","A","9","28","28","1","A","B","50","18","",""
"","","","","","html-keyboard-response","36","117321","0.0-6.0-0.15","034","null","<p style=""text-align: center;"">+</p>","null","fixation","","","","","","","","","","",""
"","","","","","html-keyboard-response","37","120539","0.0-6.0-1.15","034","3216","
                    <p class=""lotteries"">
                      <span><img src='img/A.png', width=""30""></span>
                      <span><img src='img/D.png', width=""30""></span>
                    </p>
                    <p class=""lotteries"">
                      <span>₪64</span>
                      <span>₪39</span>
                    </p>
                    <p class=""lotteries"">
                      <span>50%</span>
                      <span>65%</span>
                    </p>","a","binary","B","32","1","1","0","B","A","50","64","",""
"","","","","","html-keyboard-response","38","121781","0.0-6.0-0.16","034","null","<p style=""text-align: center;"">+</p>","null","fixation","","","","","","","","","","",""
"","","","","","html-keyboard-response","39","125155","0.0-6.0-1.16","034","3372","
                    <p class=""lotteries"">
                      <span><img src='img/A.png', width=""30""></span>
                      <span><img src='img/D.png', width=""30""></span>
                    </p>
                    <p class=""lotteries"">
                      <span>₪4</span>
                      <span>₪11</span>
                    </p>
                    <p class=""lotteries"">
                      <span>75%</span>
                      <span>25%</span>
                    </p>","d","binary","A","2.75","12","12","0","B","A","25","11","",""
"","","","","","html-keyboard-response","40","125866","0.0-6.0-0.17","034","null","<p style=""text-align: center;"">+</p>","null","fixation","","","","","","","","","","",""
"","","","","","html-keyboard-response","41","136899","0.0-6.0-1.17","034","11032","
                    <p class=""lotteries"">
                      <span><img src='img/A.png', width=""30""></span>
                      <span><img src='img/D.png', width=""30""></span>
                    </p>
                    <p class=""lotteries"">
                      <span>₪64</span>
                      <span>₪36</span>
                    </p>
                    <p class=""lotteries"">
                      <span>50%</span>
                      <span>70%</span>
                    </p>","a","binary","B","32","3","3","0","B","A","50","64","",""
"","","","","","html-keyboard-response","42","137633","0.0-6.0-0.18","034","null","<p style=""text-align: center;"">+</p>","null","fixation","","","","","","","","","","",""
"","","","","","html-keyboard-response","43","142507","0.0-6.0-1.18","034","4873","
                    <p class=""lotteries"">
                      <span><img src='img/A.png', width=""30""></span>
                      <span><img src='img/D.png', width=""30""></span>
                    </p>
                    <p class=""lotteries"">
                      <span>₪64</span>
                      <span>₪11</span>
                    </p>
                    <p class=""lotteries"">
                      <span>25%</span>
                      <span>75%</span>
                    </p>","a","binary","A","16","6","6","0","A","B","25","64","",""
"","","","","","html-keyboard-response","44","143779","0.0-6.0-0.19","034","null","<p style=""text-align: center;"">+</p>","null","fixation","","","","","","","","","","",""
"","","","","","html-keyboard-response","45","147347","0.0-6.0-1.19","034","3566","
                    <p class=""lotteries"">
                      <span><img src='img/A.png', width=""30""></span>
                      <span><img src='img/D.png', width=""30""></span>
                    </p>
                    <p class=""lotteries"">
                      <span>₪76</span>
                      <span>₪43</span>
                    </p>
                    <p class=""lotteries"">
                      <span>65%</span>
                      <span>75%</span>
                    </p>","a","binary","A","49.4","19","19","0","A","B","65","76","",""
"","","","","","html-keyboard-response","46","148612","0.0-6.0-0.20","034","null","<p style=""text-align: center;"">+</p>","null","fixation","","","","","","","","","","",""
"","","","","","html-keyboard-response","47","150890","0.0-6.0-1.20","034","2277","
                    <p class=""lotteries"">
                      <span><img src='img/A.png', width=""30""></span>
                      <span><img src='img/D.png', width=""30""></span>
                    </p>
                    <p class=""lotteries"">
                      <span>₪43</span>
                      <span>₪71</span>
                    </p>
                    <p class=""lotteries"">
                      <span>60%</span>
                      <span>45%</span>
                    </p>","d","binary","B","31.95","2","2","0","A","B","45","71","",""
"","","","","","html-keyboard-response","48","151646","0.0-6.0-0.21","034","null","<p style=""text-align: center;"">+</p>","null","fixation","","","","","","","","","","",""
"","","","","","html-keyboard-response","49","154179","0.0-6.0-1.21","034","2531","
                    <p class=""lotteries"">
                      <span><img src='img/A.png', width=""30""></span>
                      <span><img src='img/D.png', width=""30""></span>
                    </p>
                    <p class=""lotteries"">
                      <span>₪36</span>
                      <span>₪71</span>
                    </p>
                    <p class=""lotteries"">
                      <span>75%</span>
                      <span>55%</span>
                    </p>","d","binary","B","39.05","5","5","0","A","B","55","71","",""
"","","","","","html-keyboard-response","50","155430","0.0-6.0-0.22","034","null","<p style=""text-align: center;"">+</p>","null","fixation","","","","","","","","","","",""
"","","","","","html-keyboard-response","51","158939","0.0-6.0-1.22","034","3507","
                    <p class=""lotteries"">
                      <span><img src='img/A.png', width=""30""></span>
                      <span><img src='img/D.png', width=""30""></span>
                    </p>
                    <p class=""lotteries"">
                      <span>₪4</span>
                      <span>₪18</span>
                    </p>
                    <p class=""lotteries"">
                      <span>75%</span>
                      <span>25%</span>
                    </p>","d","binary","A","4.5","23","23","0","B","A","25","18","",""
"","","","","","html-keyboard-response","52","159759","0.0-6.0-0.23","034","null","<p style=""text-align: center;"">+</p>","null","fixation","","","","","","","","","","",""
"","","","","","html-keyboard-response","53","161747","0.0-6.0-1.23","034","1987","
                    <p class=""lotteries"">
                      <span><img src='img/A.png', width=""30""></span>
                      <span><img src='img/D.png', width=""30""></span>
                    </p>
                    <p class=""lotteries"">
                      <span>₪43</span>
                      <span>₪76</span>
                    </p>
                    <p class=""lotteries"">
                      <span>75%</span>
                      <span>65%</span>
                    </p>","d","binary","B","49.4","24","24","0","A","B","65","76","",""
"","","","","","html-keyboard-response","54","162340","0.0-6.0-0.24","034","null","<p style=""text-align: center;"">+</p>","null","fixation","","","","","","","","","","",""
"","","","","","html-keyboard-response","55","165012","0.0-6.0-1.24","034","2670","
                    <p class=""lotteries"">
                      <span><img src='img/A.png', width=""30""></span>
                      <span><img src='img/D.png', width=""30""></span>
                    </p>
                    <p class=""lotteries"">
                      <span>₪11</span>
                      <span>₪58</span>
                    </p>
                    <p class=""lotteries"">
                      <span>25%</span>
                      <span>30%</span>
                    </p>","d","binary","A","17.4","30","30","1","B","A","30","58","",""
"","","","","","html-keyboard-response","56","166186","0.0-6.0-0.25","034","null","<p style=""text-align: center;"">+</p>","null","fixation","","","","","","","","","","",""
"","","","","","html-keyboard-response","57","187111","0.0-6.0-1.25","034","20918","
                    <p class=""lotteries"">
                      <span><img src='img/A.png', width=""30""></span>
                      <span><img src='img/D.png', width=""30""></span>
                    </p>
                    <p class=""lotteries"">
                      <span>₪71</span>
                      <span>₪79</span>
                    </p>
                    <p class=""lotteries"">
                      <span>75%</span>
                      <span>65%</span>
                    </p>","a","binary","B","53.25","8","8","0","B","A","75","71","",""
"","","","","","html-keyboard-response","58","188616","0.0-6.0-0.26","034","null","<p style=""text-align: center;"">+</p>","null","fixation","","","","","","","","","","",""
"","","","","","html-keyboard-response","59","191120","0.0-6.0-1.26","034","2503","
                    <p class=""lotteries"">
                      <span><img src='img/A.png', width=""30""></span>
                      <span><img src='img/D.png', width=""30""></span>
                    </p>
                    <p class=""lotteries"">
                      <span>₪4</span>
                      <span>₪16</span>
                    </p>
                    <p class=""lotteries"">
                      <span>50%</span>
                      <span>20%</span>
                    </p>","d","binary","A","3.2","17","17","0","B","A","20","16","",""
"","","","","","html-keyboard-response","60","192540","0.0-6.0-0.27","034","null","<p style=""text-align: center;"">+</p>","null","fixation","","","","","","","","","","",""
"","","","","","html-keyboard-response","61","194448","0.0-6.0-1.27","034","1907","
                    <p class=""lotteries"">
                      <span><img src='img/A.png', width=""30""></span>
                      <span><img src='img/D.png', width=""30""></span>
                    </p>
                    <p class=""lotteries"">
                      <span>₪11</span>
                      <span>₪71</span>
                    </p>
                    <p class=""lotteries"">
                      <span>75%</span>
                      <span>55%</span>
                    </p>","d","binary","A","39.05","18","18","0","B","A","55","71","",""
"","","","","","html-keyboard-response","62","195951","0.0-6.0-0.28","034","null","<p style=""text-align: center;"">+</p>","null","fixation","","","","","","","","","","",""
"","","","","","html-keyboard-response","63","197928","0.0-6.0-1.28","034","1976","
                    <p class=""lotteries"">
                      <span><img src='img/A.png', width=""30""></span>
                      <span><img src='img/D.png', width=""30""></span>
                    </p>
                    <p class=""lotteries"">
                      <span>₪4</span>
                      <span>₪36</span>
                    </p>
                    <p class=""lotteries"">
                      <span>75%</span>
                      <span>30%</span>
                    </p>","d","binary","A","10.8","20","20","0","B","A","30","36","",""
"","","","","","html-keyboard-response","64","199324","0.0-6.0-0.29","034","null","<p style=""text-align: center;"">+</p>","null","fixation","","","","","","","","","","",""
"","","","","","html-keyboard-response","65","202864","0.0-6.0-1.29","034","3538","
                    <p class=""lotteries"">
                      <span><img src='img/A.png', width=""30""></span>
                      <span><img src='img/D.png', width=""30""></span>
                    </p>
                    <p class=""lotteries"">
                      <span>₪39</span>
                      <span>₪58</span>
                    </p>
                    <p class=""lotteries"">
                      <span>60%</span>
                      <span>45%</span>
                    </p>","d","binary","A","26.1","25","25","0","B","A","45","58","",""
"","","","","","html-keyboard-response","66","203869","0.0-7.0","034","null","<p style=""text-align: center;"">+</p>","null","fixation","","","","","","","","","","",""
"","","","","","html-keyboard-response","67","230400","0.0-8.0","034","26528","<p>הפסקה.
          <br>לחצו על רווח כדי להמשיך.</p>"," ","scan_wait","","","","","","","","","","",""
"","","","","","html-keyboard-response","68","231071","0.0-9.0-0.0","034","null","<p style=""text-align: center;"">+</p>","null","fixation","","","","","","","","","","",""
"","","","","","html-keyboard-response","69","233912","0.0-9.0-1.0","034","2839","
                    <p class=""lotteries"">
                      <span><img src='img/A.png', width=""30""></span>
                      <span><img src='img/D.png', width=""30""></span>
                    </p>
                    <p class=""lotteries"">
                      <span>₪11</span>
                      <span>₪16</span>
                    </p>
                    <p class=""lotteries"">
                      <span>25%</span>
                      <span>20%</span>
                    </p>","d","binary","A","3.2","27","27","0","B","A","20","16","",""
"","","","","","html-keyboard-response","70","234715","0.0-9.0-0.1","034","null","<p style=""text-align: center;"">+</p>","null","fixation","","","","","","","","","","",""
"","","","","","html-keyboard-response","71","237240","0.0-9.0-1.1","034","2524","
                    <p class=""lotteries"">
                      <span><img src='img/A.png', width=""30""></span>
                      <span><img src='img/D.png', width=""30""></span>
                    </p>
                    <p class=""lotteries"">
                      <span>₪64</span>
                      <span>₪36</span>
                    </p>
                    <p class=""lotteries"">
                      <span>50%</span>
                      <span>70%</span>
                    </p>","a","binary","B","32","3","3","0","B","A","50","64","",""
"","","","","","html-keyboard-response","72","238045","0.0-9.0-0.2","034","null","<p style=""text-align: center;"">+</p>","null","fixation","","","","","","","","","","",""
"","","","","","html-keyboard-response","73","239280","0.0-9.0-1.2","034","1233","
                    <p class=""lotteries"">
                      <span><img src='img/A.png', width=""30""></span>
                      <span><img src='img/D.png', width=""30""></span>
                    </p>
                    <p class=""lotteries"">
                      <span>₪43</span>
                      <span>₪61</span>
                    </p>
                    <p class=""lotteries"">
                      <span>75%</span>
                      <span>45%</span>
                    </p>","d","binary","A","27.45","11","11","0","B","A","45","61","",""
"","","","","","html-keyboard-response","74","240704","0.0-9.0-0.3","034","null","<p style=""text-align: center;"">+</p>","null","fixation","","","","","","","","","","",""
"","","","","","html-keyboard-response","75","242632","0.0-9.0-1.3","034","1926","
                    <p class=""lotteries"">
                      <span><img src='img/A.png', width=""30""></span>
                      <span><img src='img/D.png', width=""30""></span>
                    </p>
                    <p class=""lotteries"">
                      <span>₪58</span>
                      <span>₪39</span>
                    </p>
                    <p class=""lotteries"">
                      <span>45%</span>
                      <span>60%</span>
                    </p>","a","binary","A","26.1","25","25","0","A","B","45","58","",""
"","","","","","html-keyboard-response","76","243899","0.0-9.0-0.4","034","null","<p style=""text-align: center;"">+</p>","null","fixation","","","","","","","","","","",""
"","","","","","html-keyboard-response","77","246064","0.0-9.0-1.4","034","2164","
                    <p class=""lotteries"">
                      <span><img src='img/A.png', width=""30""></span>
                      <span><img src='img/D.png', width=""30""></span>
                    </p>
                    <p class=""lotteries"">
                      <span>₪36</span>
                      <span>₪64</span>
                    </p>
                    <p class=""lotteries"">
                      <span>75%</span>
                      <span>50%</span>
                    </p>","d","binary","A","32","4","4","0","B","A","50","64","",""
"","","","","","html-keyboard-response","78","247212","0.0-9.0-0.5","034","null","<p style=""text-align: center;"">+</p>","null","fixation","","","","","","","","","","",""
"","","","","","html-keyboard-response","79","260005","0.0-9.0-1.5","034","12792","
                    <p class=""lotteries"">
                      <span><img src='img/A.png', width=""30""></span>
                      <span><img src='img/D.png', width=""30""></span>
                    </p>
                    <p class=""lotteries"">
                      <span>₪18</span>
                      <span>₪11</span>
                    </p>
                    <p class=""lotteries"">
                      <span>25%</span>
                      <span>45%</span>
                    </p>","d","binary","B","4.95","14","14","0","A","B","45","11","",""
"","","","","","html-keyboard-response","80","261441","0.0-9.0-0.6","034","null","<p style=""text-align: center;"">+</p>","null","fixation","","","","","","","","","","",""
"","","","","","html-keyboard-response","81","262933","0.0-9.0-1.6","034","1491","
                    <p class=""lotteries"">
                      <span><img src='img/A.png', width=""30""></span>
                      <span><img src='img/D.png', width=""30""></span>
                    </p>
                    <p class=""lotteries"">
                      <span>₪11</span>
                      <span>₪4</span>
                    </p>
                    <p class=""lotteries"">
                      <span>75%</span>
                      <span>25%</span>
                    </p>","a","binary","A","8.25","29","29","1","A","B","75","11","",""
"","","","","","html-keyboard-response","82","264126","0.0-9.0-0.7","034","null","<p style=""text-align: center;"">+</p>","null","fixation","","","","","","","","","","",""
"","","","","","html-keyboard-response","83","265797","0.0-9.0-1.7","034","1670","
                    <p class=""lotteries"">
                      <span><img src='img/A.png', width=""30""></span>
                      <span><img src='img/D.png', width=""30""></span>
                    </p>
                    <p class=""lotteries"">
                      <span>₪4</span>
                      <span>₪16</span>
                    </p>
                    <p class=""lotteries"">
                      <span>50%</span>
                      <span>20%</span>
                    </p>","d","binary","A","3.2","17","17","0","B","A","20","16","",""
"","","","","","html-keyboard-response","84","267210","0.0-9.0-0.8","034","null","<p style=""text-align: center;"">+</p>","null","fixation","","","","","","","","","","",""
"","","","","","html-keyboard-response","85","269685","0.0-9.0-1.8","034","2474","
                    <p class=""lotteries"">
                      <span><img src='img/A.png', width=""30""></span>
                      <span><img src='img/D.png', width=""30""></span>
                    </p>
                    <p class=""lotteries"">
                      <span>₪76</span>
                      <span>₪43</span>
                    </p>
                    <p class=""lotteries"">
                      <span>65%</span>
                      <span>75%</span>
                    </p>","a","binary","B","49.4","24","24","0","B","A","65","76","",""
"","","","","","html-keyboard-response","86","271187","0.0-9.0-0.9","034","null","<p style=""text-align: center;"">+</p>","null","fixation","","","","","","","","","","",""
"","","","","","html-keyboard-response","87","273573","0.0-9.0-1.9","034","2385","
                    <p class=""lotteries"">
                      <span><img src='img/A.png', width=""30""></span>
                      <span><img src='img/D.png', width=""30""></span>
                    </p>
                    <p class=""lotteries"">
                      <span>₪61</span>
                      <span>₪43</span>
                    </p>
                    <p class=""lotteries"">
                      <span>55%</span>
                      <span>60%</span>
                    </p>","a","binary","B","33.55","7","7","0","B","A","55","61","",""
"","","","","","html-keyboard-response","88","274930","0.0-9.0-0.10","034","null","<p style=""text-align: center;"">+</p>","null","fixation","","","","","","","","","","",""
"","","","","","html-keyboard-response","89","278061","0.0-9.0-1.10","034","3130","
                    <p class=""lotteries"">
                      <span><img src='img/A.png', width=""30""></span>
                      <span><img src='img/D.png', width=""30""></span>
                    </p>
                    <p class=""lotteries"">
                      <span>₪36</span>
                      <span>₪18</span>
                    </p>
                    <p class=""lotteries"">
                      <span>30%</span>
                      <span>50%</span>
                    </p>","d","binary","B","9","22","22","0","A","B","50","18","",""
"","","","","","html-keyboard-response","90","279553","0.0-9.0-0.11","034","null","<p style=""text-align: center;"">+</p>","null","fixation","","","","","","","","","","",""
"","","","","","html-keyboard-response","91","281277","0.0-9.0-1.11","034","1723","
                    <p class=""lotteries"">
                      <span><img src='img/A.png', width=""30""></span>
                      <span><img src='img/D.png', width=""30""></span>
                    </p>
                    <p class=""lotteries"">
                      <span>₪18</span>
                      <span>₪4</span>
                    </p>
                    <p class=""lotteries"">
                      <span>25%</span>
                      <span>75%</span>
                    </p>","a","binary","A","4.5","23","23","0","A","B","25","18","",""
"","","","","","html-keyboard-response","92","282441","0.0-9.0-0.12","034","null","<p style=""text-align: center;"">+</p>","null","fixation","","","","","","","","","","",""
"","","","","","html-keyboard-response","93","284205","0.0-9.0-1.12","034","1762","
                    <p class=""lotteries"">
                      <span><img src='img/A.png', width=""30""></span>
                      <span><img src='img/D.png', width=""30""></span>
                    </p>
                    <p class=""lotteries"">
                      <span>₪11</span>
                      <span>₪4</span>
                    </p>
                    <p class=""lotteries"">
                      <span>25%</span>
                      <span>75%</span>
                    </p>","a","binary","A","2.75","12","12","0","A","B","25","11","",""
"","","","","","html-keyboard-response","94","285578","0.0-9.0-0.13","034","null","<p style=""text-align: center;"">+</p>","null","fixation","","","","","","","","","","",""
"","","","","","html-keyboard-response","95","287957","0.0-9.0-1.13","034","2377","
                    <p class=""lotteries"">
                      <span><img src='img/A.png', width=""30""></span>
                      <span><img src='img/D.png', width=""30""></span>
                    </p>
                    <p class=""lotteries"">
                      <span>₪43</span>
                      <span>₪76</span>
                    </p>
                    <p class=""lotteries"">
                      <span>75%</span>
                      <span>65%</span>
                    </p>","d","binary","A","49.4","19","19","0","B","A","65","76","",""
"","","","","","html-keyboard-response","96","288484","0.0-9.0-0.14","034","null","<p style=""text-align: center;"">+</p>","null","fixation","","","","","","","","","","",""
"","","","","","html-keyboard-response","97","290837","0.0-9.0-1.14","034","2352","
                    <p class=""lotteries"">
                      <span><img src='img/A.png', width=""30""></span>
                      <span><img src='img/D.png', width=""30""></span>
                    </p>
                    <p class=""lotteries"">
                      <span>₪79</span>
                      <span>₪43</span>
                    </p>
                    <p class=""lotteries"">
                      <span>40%</span>
                      <span>60%</span>
                    </p>","a","binary","B","31.6","9","9","0","B","A","40","79","",""
"","","","","","html-keyboard-response","98","291914","0.0-9.0-0.15","034","null","<p style=""text-align: center;"">+</p>","null","fixation","","","","","","","","","","",""
"","","","","","html-keyboard-response","99","293365","0.0-9.0-1.15","034","1449","
                    <p class=""lotteries"">
                      <span><img src='img/A.png', width=""30""></span>
                      <span><img src='img/D.png', width=""30""></span>
                    </p>
                    <p class=""lotteries"">
                      <span>₪61</span>
                      <span>₪43</span>
                    </p>
                    <p class=""lotteries"">
                      <span>55%</span>
                      <span>75%</span>
                    </p>","a","binary","B","33.55","26","26","0","B","A","55","61","",""
"","","","","","html-keyboard-response","100","294684","0.0-9.0-0.16","034","null","<p style=""text-align: center;"">+</p>","null","fixation","","","","","","","","","","",""
"","","","","","html-keyboard-response","101","296581","0.0-9.0-1.16","034","1896","
                    <p class=""lotteries"">
                      <span><img src='img/A.png', width=""30""></span>
                      <span><img src='img/D.png', width=""30""></span>
                    </p>
                    <p class=""lotteries"">
                      <span>₪11</span>
                      <span>₪18</span>
                    </p>
                    <p class=""lotteries"">
                      <span>25%</span>
                      <span>50%</span>
                    </p>","d","binary","A","9","28","28","1","B","A","50","18","",""
"","","","","","html-keyboard-response","102","297946","0.0-9.0-0.17","034","null","<p style=""text-align: center;"">+</p>","null","fixation","","","","","","","","","","",""
"","","","","","html-keyboard-response","103","301573","0.0-9.0-1.17","034","3625","
                    <p class=""lotteries"">
                      <span><img src='img/A.png', width=""30""></span>
                      <span><img src='img/D.png', width=""30""></span>
                    </p>
                    <p class=""lotteries"">
                      <span>₪58</span>
                      <span>₪11</span>
                    </p>
                    <p class=""lotteries"">
                      <span>30%</span>
                      <span>25%</span>
                    </p>","a","binary","A","17.4","30","30","1","A","B","30","58","",""
"","","","","","html-keyboard-response","104","302397","0.0-9.0-0.18","034","null","<p style=""text-align: center;"">+</p>","null","fixation","","","","","","","","","","",""
"","","","","","html-keyboard-response","105","310137","0.0-9.0-1.18","034","7750","
                    <p class=""lotteries"">
                      <span><img src='img/A.png', width=""30""></span>
                      <span><img src='img/D.png', width=""30""></span>
                    </p>
                    <p class=""lotteries"">
                      <span>₪71</span>
                      <span>₪36</span>
                    </p>
                    <p class=""lotteries"">
                      <span>55%</span>
                      <span>75%</span>
                    </p>","a","binary","B","39.05","5","5","0","B","A","55","71","",""
"","","","","","html-keyboard-response","106","311359","0.0-9.0-0.19","034","null","<p style=""text-align: center;"">+</p>","null","fixation","","","","","","","","","","",""
"","","","","","html-keyboard-response","107","313257","0.0-9.0-1.19","034","1897","
                    <p class=""lotteries"">
                      <span><img src='img/A.png', width=""30""></span>
                      <span><img src='img/D.png', width=""30""></span>
                    </p>
                    <p class=""lotteries"">
                      <span>₪71</span>
                      <span>₪36</span>
                    </p>
                    <p class=""lotteries"">
                      <span>45%</span>
                      <span>75%</span>
                    </p>","a","binary","A","31.95","16","16","0","A","B","45","71","",""
"","","","","","html-keyboard-response","108","314023","0.0-9.0-0.20","034","null","<p style=""text-align: center;"">+</p>","null","fixation","","","","","","","","","","",""
"","","","","","html-keyboard-response","109","317105","0.0-9.0-1.20","034","3081","
                    <p class=""lotteries"">
                      <span><img src='img/A.png', width=""30""></span>
                      <span><img src='img/D.png', width=""30""></span>
                    </p>
                    <p class=""lotteries"">
                      <span>₪39</span>
                      <span>₪43</span>
                    </p>
                    <p class=""lotteries"">
                      <span>65%</span>
                      <span>60%</span>
                    </p>","d","binary","B","25.8","15","15","0","A","B","60","43","",""
"","","","","","html-keyboard-response","110","318452","0.0-9.0-0.21","034","null","<p style=""text-align: center;"">+</p>","null","fixation","","","","","","","","","","",""
"","","","","","html-keyboard-response","111","322450","0.0-9.0-1.21","034","3996","
                    <p class=""lotteries"">
                      <span><img src='img/A.png', width=""30""></span>
                      <span><img src='img/D.png', width=""30""></span>
                    </p>
                    <p class=""lotteries"">
                      <span>₪64</span>
                      <span>₪39</span>
                    </p>
                    <p class=""lotteries"">
                      <span>50%</span>
                      <span>65%</span>
                    </p>","a","binary","B","32","1","1","0","B","A","50","64","",""
"","","","","","html-keyboard-response","112","323832","0.0-9.0-0.22","034","null","<p style=""text-align: center;"">+</p>","null","fixation","","","","","","","","","","",""
"","","","","","html-keyboard-response","113","325569","0.0-9.0-1.22","034","1736","
                    <p class=""lotteries"">
                      <span><img src='img/A.png', width=""30""></span>
                      <span><img src='img/D.png', width=""30""></span>
                    </p>
                    <p class=""lotteries"">
                      <span>₪64</span>
                      <span>₪11</span>
                    </p>
                    <p class=""lotteries"">
                      <span>25%</span>
                      <span>75%</span>
                    </p>","a","binary","A","16","6","6","0","A","B","25","64","",""
"","","","","","html-keyboard-response","114","326763","0.0-9.0-0.23","034","null","<p style=""text-align: center;"">+</p>","null","fixation","","","","","","","","","","",""
"","","","","","html-keyboard-response","115","329393","0.0-9.0-1.23","034","2629","
                    <p class=""lotteries"">
                      <span><img src='img/A.png', width=""30""></span>
                      <span><img src='img/D.png', width=""30""></span>
                    </p>
                    <p class=""lotteries"">
                      <span>₪43</span>
                      <span>₪71</span>
                    </p>
                    <p class=""lotteries"">
                      <span>60%</span>
                      <span>45%</span>
                    </p>","d","binary","B","31.95","2","2","0","A","B","45","71","",""
"","","","","","html-keyboard-response","116","330469","0.0-9.0-0.24","034","null","<p style=""text-align: center;"">+</p>","null","fixation","","","","","","","","","","",""
"","","","","","html-keyboard-response","117","332977","0.0-9.0-1.24","034","2507","
                    <p class=""lotteries"">
                      <span><img src='img/A.png', width=""30""></span>
                      <span><img src='img/D.png', width=""30""></span>
                    </p>
                    <p class=""lotteries"">
                      <span>₪71</span>
                      <span>₪79</span>
                    </p>
                    <p class=""lotteries"">
                      <span>75%</span>
                      <span>65%</span>
                    </p>","a","binary","B","53.25","8","8","0","B","A","75","71","",""
"","","","","","html-keyboard-response","118","333771","0.0-9.0-0.25","034","null","<p style=""text-align: center;"">+</p>","null","fixation","","","","","","","","","","",""
"","","","","","html-keyboard-response","119","335921","0.0-9.0-1.25","034","2149","
                    <p class=""lotteries"">
                      <span><img src='img/A.png', width=""30""></span>
                      <span><img src='img/D.png', width=""30""></span>
                    </p>
                    <p class=""lotteries"">
                      <span>₪36</span>
                      <span>₪58</span>
                    </p>
                    <p class=""lotteries"">
                      <span>75%</span>
                      <span>40%</span>
                    </p>","d","binary","A","23.2","13","13","0","B","A","40","58","",""
"","","","","","html-keyboard-response","120","337033","0.0-9.0-0.26","034","null","<p style=""text-align: center;"">+</p>","null","fixation","","","","","","","","","","",""
"","","","","","html-keyboard-response","121","341097","0.0-9.0-1.26","034","4064","
                    <p class=""lotteries"">
                      <span><img src='img/A.png', width=""30""></span>
                      <span><img src='img/D.png', width=""30""></span>
                    </p>
                    <p class=""lotteries"">
                      <span>₪64</span>
                      <span>₪58</span>
                    </p>
                    <p class=""lotteries"">
                      <span>25%</span>
                      <span>40%</span>
                    </p>","a","binary","A","16","21","21","0","A","B","25","64","",""
"","","","","","html-keyboard-response","122","341809","0.0-9.0-0.27","034","null","<p style=""text-align: center;"">+</p>","null","fixation","","","","","","","","","","",""
"","","","","","html-keyboard-response","123","343617","0.0-9.0-1.27","034","1807","
                    <p class=""lotteries"">
                      <span><img src='img/A.png', width=""30""></span>
                      <span><img src='img/D.png', width=""30""></span>
                    </p>
                    <p class=""lotteries"">
                      <span>₪36</span>
                      <span>₪61</span>
                    </p>
                    <p class=""lotteries"">
                      <span>70%</span>
                      <span>45%</span>
                    </p>","d","binary","A","27.45","10","10","0","B","A","45","61","",""
"","","","","","html-keyboard-response","124","344373","0.0-9.0-0.28","034","null","<p style=""text-align: center;"">+</p>","null","fixation","","","","","","","","","","",""
"","","","","","html-keyboard-response","125","346705","0.0-9.0-1.28","034","2331","
                    <p class=""lotteries"">
                      <span><img src='img/A.png', width=""30""></span>
                      <span><img src='img/D.png', width=""30""></span>
                    </p>
                    <p class=""lotteries"">
                      <span>₪71</span>
                      <span>₪11</span>
                    </p>
                    <p class=""lotteries"">
                      <span>55%</span>
                      <span>75%</span>
                    </p>","a","binary","A","39.05","18","18","0","A","B","55","71","",""
"","","","","","html-keyboard-response","126","348020","0.0-9.0-0.29","034","null","<p style=""text-align: center;"">+</p>","null","fixation","","","","","","","","","","",""
"","","","","","html-keyboard-response","127","349545","0.0-9.0-1.29","034","1524","
                    <p class=""lotteries"">
                      <span><img src='img/A.png', width=""30""></span>
                      <span><img src='img/D.png', width=""30""></span>
                    </p>
                    <p class=""lotteries"">
                      <span>₪4</span>
                      <span>₪36</span>
                    </p>
                    <p class=""lotteries"">
                      <span>75%</span>
                      <span>30%</span>
                    </p>","d","binary","A","10.8","20","20","0","B","A","30","36","",""
"","","","","","html-keyboard-response","128","350555","0.0-10.0","034","null","<p style=""text-align: center;"">+</p>","null","fixation","","","","","","","","","","",""
"","","","","","html-keyboard-response","129","351721","0.0-11.0","034","1165","<p>הפסקה.
          <br>לחצו על רווח כדי להמשיך.</p>"," ","scan_wait","","","","","","","","","","",""
"","","","","","html-keyboard-response","130","352739","0.0-12.0-0.0","034","null","<p style=""text-align: center;"">+</p>","null","fixation","","","","","","","","","","",""
"","","","","","html-keyboard-response","131","354729","0.0-12.0-1.0","034","1989","
                    <p class=""lotteries"">
                      <span><img src='img/A.png', width=""30""></span>
                      <span><img src='img/D.png', width=""30""></span>
                    </p>
                    <p class=""lotteries"">
                      <span>₪58</span>
                      <span>₪39</span>
                    </p>
                    <p class=""lotteries"">
                      <span>45%</span>
                      <span>60%</span>
                    </p>","a","binary","A","26.1","25","25","0","A","B","45","58","",""
"","","","","","html-keyboard-response","132","356114","0.0-12.0-0.1","034","null","<p style=""text-align: center;"">+</p>","null","fixation","","","","","","","","","","",""
"","","","","","html-keyboard-response","133","357505","0.0-12.0-1.1","034","1390","
                    <p class=""lotteries"">
                      <span><img src='img/A.png', width=""30""></span>
                      <span><img src='img/D.png', width=""30""></span>
                    </p>
                    <p class=""lotteries"">
                      <span>₪18</span>
                      <span>₪11</span>
                    </p>
                    <p class=""lotteries"">
                      <span>50%</span>
                      <span>25%</span>
                    </p>","a","binary","A","9","28","28","1","A","B","50","18","",""
"","","","","","html-keyboard-response","134","358647","0.0-12.0-0.2","034","null","<p style=""text-align: center;"">+</p>","null","fixation","","","","","","","","","","",""
"","","","","","html-keyboard-response","135","360465","0.0-12.0-1.2","034","1817","
                    <p class=""lotteries"">
                      <span><img src='img/A.png', width=""30""></span>
                      <span><img src='img/D.png', width=""30""></span>
                    </p>
                    <p class=""lotteries"">
                      <span>₪71</span>
                      <span>₪79</span>
                    </p>
                    <p class=""lotteries"">
                      <span>75%</span>
                      <span>65%</span>
                    </p>","d","binary","A","51.35","8","8","0","B","A","65","79","",""
"","","","","","html-keyboard-response","136","361426","0.0-12.0-0.3","034","null","<p style=""text-align: center;"">+</p>","null","fixation","","","","","","","","","","",""
"","","","","","html-keyboard-response","137","367120","0.0-12.0-1.3","034","5693","
                    <p class=""lotteries"">
                      <span><img src='img/A.png', width=""30""></span>
                      <span><img src='img/D.png', width=""30""></span>
                    </p>
                    <p class=""lotteries"">
                      <span>₪43</span>
                      <span>₪71</span>
                    </p>
                    <p class=""lotteries"">
                      <span>60%</span>
                      <span>45%</span>
                    </p>","d","binary","B","31.95","2","2","0","A","B","45","71","",""
"","","","","","html-keyboard-response","138","367967","0.0-12.0-0.4","034","null","<p style=""text-align: center;"">+</p>","null","fixation","","","","","","","","","","",""
"","","","","","html-keyboard-response","139","372593","0.0-12.0-1.4","034","4625","
                    <p class=""lotteries"">
                      <span><img src='img/A.png', width=""30""></span>
                      <span><img src='img/D.png', width=""30""></span>
                    </p>
                    <p class=""lotteries"">
                      <span>₪61</span>
                      <span>₪43</span>
                    </p>
                    <p class=""lotteries"">
                      <span>45%</span>
                      <span>75%</span>
                    </p>","a","binary","A","27.45","11","11","0","A","B","45","61","",""
"","","","","","html-keyboard-response","140","374089","0.0-12.0-0.5","034","null","<p style=""text-align: center;"">+</p>","null","fixation","","","","","","","","","","",""
"","","","","","html-keyboard-response","141","375265","0.0-12.0-1.5","034","1176","
                    <p class=""lotteries"">
                      <span><img src='img/A.png', width=""30""></span>
                      <span><img src='img/D.png', width=""30""></span>
                    </p>
                    <p class=""lotteries"">
                      <span>₪11</span>
                      <span>₪71</span>
                    </p>
                    <p class=""lotteries"">
                      <span>75%</span>
                      <span>55%</span>
                    </p>","d","binary","A","39.05","18","18","0","B","A","55","71","",""
"","","","","","html-keyboard-response","142","376101","0.0-12.0-0.6","034","null","<p style=""text-align: center;"">+</p>","null","fixation","","","","","","","","","","",""
"","","","","","html-keyboard-response","143","377329","0.0-12.0-1.6","034","1227","
                    <p class=""lotteries"">
                      <span><img src='img/A.png', width=""30""></span>
                      <span><img src='img/D.png', width=""30""></span>
                    </p>
                    <p class=""lotteries"">
                      <span>₪4</span>
                      <span>₪36</span>
                    </p>
                    <p class=""lotteries"">
                      <span>75%</span>
                      <span>30%</span>
                    </p>","d","binary","A","10.8","20","20","0","B","A","30","36","",""
"","","","","","html-keyboard-response","144","378526","0.0-12.0-0.7","034","null","<p style=""text-align: center;"">+</p>","null","fixation","","","","","","","","","","",""
"","","","","","html-keyboard-response","145","380657","0.0-12.0-1.7","034","2130","
                    <p class=""lotteries"">
                      <span><img src='img/A.png', width=""30""></span>
                      <span><img src='img/D.png', width=""30""></span>
                    </p>
                    <p class=""lotteries"">
                      <span>₪61</span>
                      <span>₪43</span>
                    </p>
                    <p class=""lotteries"">
                      <span>55%</span>
                      <span>75%</span>
                    </p>","a","binary","B","33.55","26","26","0","B","A","55","61","",""
"","","","","","html-keyboard-response","146","382108","0.0-12.0-0.8","034","null","<p style=""text-align: center;"">+</p>","null","fixation","","","","","","","","","","",""
"","","","","","html-keyboard-response","147","386105","0.0-12.0-1.8","034","3995","
                    <p class=""lotteries"">
                      <span><img src='img/A.png', width=""30""></span>
                      <span><img src='img/D.png', width=""30""></span>
                    </p>
                    <p class=""lotteries"">
                      <span>₪39</span>
                      <span>₪43</span>
                    </p>
                    <p class=""lotteries"">
                      <span>65%</span>
                      <span>60%</span>
                    </p>","d","binary","B","25.8","15","15","0","A","B","60","43","",""
"","","","","","html-keyboard-response","148","386668","0.0-12.0-0.9","034","null","<p style=""text-align: center;"">+</p>","null","fixation","","","","","","","","","","",""
"","","","","","html-keyboard-response","149","389545","0.0-12.0-1.9","034","2876","
                    <p class=""lotteries"">
                      <span><img src='img/A.png', width=""30""></span>
                      <span><img src='img/D.png', width=""30""></span>
                    </p>
                    <p class=""lotteries"">
                      <span>₪43</span>
                      <span>₪61</span>
                    </p>
                    <p class=""lotteries"">
                      <span>60%</span>
                      <span>55%</span>
                    </p>","d","binary","B","33.55","7","7","0","A","B","55","61","",""
"","","","","","html-keyboard-response","150","390976","0.0-12.0-0.10","034","null","<p style=""text-align: center;"">+</p>","null","fixation","","","","","","","","","","",""
"","","","","","html-keyboard-response","151","391961","0.0-12.0-1.10","034","983","
                    <p class=""lotteries"">
                      <span><img src='img/A.png', width=""30""></span>
                      <span><img src='img/D.png', width=""30""></span>
                    </p>
                    <p class=""lotteries"">
                      <span>₪76</span>
                      <span>₪43</span>
                    </p>
                    <p class=""lotteries"">
                      <span>65%</span>
                      <span>75%</span>
                    </p>","a","binary","B","49.4","24","24","0","B","A","65","76","",""
"","","","","","html-keyboard-response","152","392894","0.0-12.0-0.11","034","null","<p style=""text-align: center;"">+</p>","null","fixation","","","","","","","","","","",""
"","","","","","html-keyboard-response","153","394289","0.0-12.0-1.11","034","1394","
                    <p class=""lotteries"">
                      <span><img src='img/A.png', width=""30""></span>
                      <span><img src='img/D.png', width=""30""></span>
                    </p>
                    <p class=""lotteries"">
                      <span>₪71</span>
                      <span>₪36</span>
                    </p>
                    <p class=""lotteries"">
                      <span>55%</span>
                      <span>75%</span>
                    </p>","a","binary","B","39.05","5","5","0","B","A","55","71","",""
"","","","","","html-keyboard-response","154","394804","0.0-12.0-0.12","034","null","<p style=""text-align: center;"">+</p>","null","fixation","","","","","","","","","","",""
"","","","","","html-keyboard-response","155","396489","0.0-12.0-1.12","034","1684","
                    <p class=""lotteries"">
                      <span><img src='img/A.png', width=""30""></span>
                      <span><img src='img/D.png', width=""30""></span>
                    </p>
                    <p class=""lotteries"">
                      <span>₪64</span>
                      <span>₪58</span>
                    </p>
                    <p class=""lotteries"">
                      <span>25%</span>
                      <span>40%</span>
                    </p>","a","binary","A","16","21","21","0","A","B","25","64","",""
"","","","","","html-keyboard-response","156","397613","0.0-12.0-0.13","034","null","<p style=""text-align: center;"">+</p>","null","fixation","","","","","","","","","","",""
"","","","","","html-keyboard-response","157","398785","0.0-12.0-1.13","034","1170","
                    <p class=""lotteries"">
                      <span><img src='img/A.png', width=""30""></span>
                      <span><img src='img/D.png', width=""30""></span>
                    </p>
                    <p class=""lotteries"">
                      <span>₪11</span>
                      <span>₪18</span>
                    </p>
                    <p class=""lotteries"">
                      <span>45%</span>
                      <span>25%</span>
                    </p>","d","binary","A","4.5","14","14","0","B","A","25","18","",""
"","","","","","html-keyboard-response","158","399335","0.0-12.0-0.14","034","null","<p style=""text-align: center;"">+</p>","null","fixation","","","","","","","","","","",""
"","","","","","html-keyboard-response","159","400317","0.0-12.0-1.14","034","981","
                    <p class=""lotteries"">
                      <span><img src='img/A.png', width=""30""></span>
                      <span><img src='img/D.png', width=""30""></span>
                    </p>
                    <p class=""lotteries"">
                      <span>₪18</span>
                      <span>₪4</span>
                    </p>
                    <p class=""lotteries"">
                      <span>25%</span>
                      <span>75%</span>
                    </p>","a","binary","A","4.5","23","23","0","A","B","25","18","",""
"","","","","","html-keyboard-response","160","401213","0.0-12.0-0.15","034","null","<p style=""text-align: center;"">+</p>","null","fixation","","","","","","","","","","",""
"","","","","","html-keyboard-response","161","402961","0.0-12.0-1.15","034","1747","
                    <p class=""lotteries"">
                      <span><img src='img/A.png', width=""30""></span>
                      <span><img src='img/D.png', width=""30""></span>
                    </p>
                    <p class=""lotteries"">
                      <span>₪43</span>
                      <span>₪76</span>
                    </p>
                    <p class=""lotteries"">
                      <span>75%</span>
                      <span>65%</span>
                    </p>","d","binary","A","49.4","19","19","0","B","A","65","76","",""
"","","","","","html-keyboard-response","162","403486","0.0-12.0-0.16","034","null","<p style=""text-align: center;"">+</p>","null","fixation","","","","","","","","","","",""
"","","","","","html-keyboard-response","163","404873","0.0-12.0-1.16","034","1387","
                    <p class=""lotteries"">
                      <span><img src='img/A.png', width=""30""></span>
                      <span><img src='img/D.png', width=""30""></span>
                    </p>
                    <p class=""lotteries"">
                      <span>₪39</span>
                      <span>₪64</span>
                    </p>
                    <p class=""lotteries"">
                      <span>65%</span>
                      <span>50%</span>
                    </p>","d","binary","B","32","1","1","0","A","B","50","64","",""
"","","","","","html-keyboard-response","164","405450","0.0-12.0-0.17","034","null","<p style=""text-align: center;"">+</p>","null","fixation","","","","","","","","","","",""
"","","","","","html-keyboard-response","165","406673","0.0-12.0-1.17","034","1222","
                    <p class=""lotteries"">
                      <span><img src='img/A.png', width=""30""></span>
                      <span><img src='img/D.png', width=""30""></span>
                    </p>
                    <p class=""lotteries"">
                      <span>₪36</span>
                      <span>₪64</span>
                    </p>
                    <p class=""lotteries"">
                      <span>70%</span>
                      <span>50%</span>
                    </p>","d","binary","B","32","3","3","0","A","B","50","64","",""
"","","","","","html-keyboard-response","166","408142","0.0-12.0-0.18","034","null","<p style=""text-align: center;"">+</p>","null","fixation","","","","","","","","","","",""
"","","","","","html-keyboard-response","167","409689","0.0-12.0-1.18","034","1546","
                    <p class=""lotteries"">
                      <span><img src='img/A.png', width=""30""></span>
                      <span><img src='img/D.png', width=""30""></span>
                    </p>
                    <p class=""lotteries"">
                      <span>₪36</span>
                      <span>₪18</span>
                    </p>
                    <p class=""lotteries"">
                      <span>30%</span>
                      <span>50%</span>
                    </p>","a","binary","A","10.8","22","22","0","A","B","30","36","",""
"","","","","","html-keyboard-response","168","410907","0.0-12.0-0.19","034","null","<p style=""text-align: center;"">+</p>","null","fixation","","","","","","","","","","",""
"","","","","","html-keyboard-response","169","412081","0.0-12.0-1.19","034","1172","
                    <p class=""lotteries"">
                      <span><img src='img/A.png', width=""30""></span>
                      <span><img src='img/D.png', width=""30""></span>
                    </p>
                    <p class=""lotteries"">
                      <span>₪4</span>
                      <span>₪11</span>
                    </p>
                    <p class=""lotteries"">
                      <span>75%</span>
                      <span>25%</span>
                    </p>","d","binary","A","2.75","12","12","0","B","A","25","11","",""
"","","","","","html-keyboard-response","170","413025","0.0-12.0-0.20","034","null","<p style=""text-align: center;"">+</p>","null","fixation","","","","","","","","","","",""
"","","","","","html-keyboard-response","171","414681","0.0-12.0-1.20","034","1654","
                    <p class=""lotteries"">
                      <span><img src='img/A.png', width=""30""></span>
                      <span><img src='img/D.png', width=""30""></span>
                    </p>
                    <p class=""lotteries"">
                      <span>₪79</span>
                      <span>₪43</span>
                    </p>
                    <p class=""lotteries"">
                      <span>40%</span>
                      <span>60%</span>
                    </p>","a","binary","B","31.6","9","9","0","B","A","40","79","",""
"","","","","","html-keyboard-response","172","415297","0.0-12.0-0.21","034","null","<p style=""text-align: center;"">+</p>","null","fixation","","","","","","","","","","",""
"","","","","","html-keyboard-response","173","416345","0.0-12.0-1.21","034","1047","
                    <p class=""lotteries"">
                      <span><img src='img/A.png', width=""30""></span>
                      <span><img src='img/D.png', width=""30""></span>
                    </p>
                    <p class=""lotteries"">
                      <span>₪64</span>
                      <span>₪36</span>
                    </p>
                    <p class=""lotteries"">
                      <span>50%</span>
                      <span>75%</span>
                    </p>","a","binary","A","32","4","4","0","A","B","50","64","",""
"","","","","","html-keyboard-response","174","417337","0.0-12.0-0.22","034","null","<p style=""text-align: center;"">+</p>","null","fixation","","","","","","","","","","",""
"","","","","","html-keyboard-response","175","418113","0.0-12.0-1.22","034","774","
                    <p class=""lotteries"">
                      <span><img src='img/A.png', width=""30""></span>
                      <span><img src='img/D.png', width=""30""></span>
                    </p>
                    <p class=""lotteries"">
                      <span>₪4</span>
                      <span>₪16</span>
                    </p>
                    <p class=""lotteries"">
                      <span>50%</span>
                      <span>20%</span>
                    </p>","d","binary","A","3.2","17","17","0","B","A","20","16","",""
"","","","","","html-keyboard-response","176","419495","0.0-12.0-0.23","034","null","<p style=""text-align: center;"">+</p>","null","fixation","","","","","","","","","","",""
"","","","","","html-keyboard-response","177","420545","0.0-12.0-1.23","034","1048","
                    <p class=""lotteries"">
                      <span><img src='img/A.png', width=""30""></span>
                      <span><img src='img/D.png', width=""30""></span>
                    </p>
                    <p class=""lotteries"">
                      <span>₪58</span>
                      <span>₪11</span>
                    </p>
                    <p class=""lotteries"">
                      <span>30%</span>
                      <span>25%</span>
                    </p>","a","binary","A","17.4","30","30","1","A","B","30","58","",""
"","","","","","html-keyboard-response","178","421709","0.0-12.0-0.24","034","null","<p style=""text-align: center;"">+</p>","null","fixation","","","","","","","","","","",""
"","","","","","html-keyboard-response","179","422624","0.0-12.0-1.24","034","914","
                    <p class=""lotteries"">
                      <span><img src='img/A.png', width=""30""></span>
                      <span><img src='img/D.png', width=""30""></span>
                    </p>
                    <p class=""lotteries"">
                      <span>₪36</span>
                      <span>₪71</span>
                    </p>
                    <p class=""lotteries"">
                      <span>75%</span>
                      <span>45%</span>
                    </p>","d","binary","A","31.95","16","16","0","B","A","45","71","",""
"","","","","","html-keyboard-response","180","423355","0.0-12.0-0.25","034","null","<p style=""text-align: center;"">+</p>","null","fixation","","","","","","","","","","",""
"","","","","","html-keyboard-response","181","424881","0.0-12.0-1.25","034","1525","
                    <p class=""lotteries"">
                      <span><img src='img/A.png', width=""30""></span>
                      <span><img src='img/D.png', width=""30""></span>
                    </p>
                    <p class=""lotteries"">
                      <span>₪16</span>
                      <span>₪11</span>
                    </p>
                    <p class=""lotteries"">
                      <span>20%</span>
                      <span>25%</span>
                    </p>","a","binary","A","3.2","27","27","0","A","B","20","16","",""
"","","","","","html-keyboard-response","182","426215","0.0-12.0-0.26","034","null","<p style=""text-align: center;"">+</p>","null","fixation","","","","","","","","","","",""
"","","","","","html-keyboard-response","183","428378","0.0-12.0-1.26","034","2161","
                    <p class=""lotteries"">
                      <span><img src='img/A.png', width=""30""></span>
                      <span><img src='img/D.png', width=""30""></span>
                    </p>
                    <p class=""lotteries"">
                      <span>₪61</span>
                      <span>₪36</span>
                    </p>
                    <p class=""lotteries"">
                      <span>45%</span>
                      <span>70%</span>
                    </p>","a","binary","A","27.45","10","10","0","A","B","45","61","",""
"","","","","","html-keyboard-response","184","429637","0.0-12.0-0.27","034","null","<p style=""text-align: center;"">+</p>","null","fixation","","","","","","","","","","",""
"","","","","","html-keyboard-response","185","430729","0.0-12.0-1.27","034","1091","
                    <p class=""lotteries"">
                      <span><img src='img/A.png', width=""30""></span>
                      <span><img src='img/D.png', width=""30""></span>
                    </p>
                    <p class=""lotteries"">
                      <span>₪11</span>
                      <span>₪4</span>
                    </p>
                    <p class=""lotteries"">
                      <span>75%</span>
                      <span>25%</span>
                    </p>","a","binary","A","8.25","29","29","1","A","B","75","11","",""
"","","","","","html-keyboard-response","186","431408","0.0-12.0-0.28","034","null","<p style=""text-align: center;"">+</p>","null","fixation","","","","","","","","","","",""
"","","","","","html-keyboard-response","187","435212","0.0-12.0-1.28","034","3800","
                    <p class=""lotteries"">
                      <span><img src='img/A.png', width=""30""></span>
                      <span><img src='img/D.png', width=""30""></span>
                    </p>
                    <p class=""lotteries"">
                      <span>₪36</span>
                      <span>₪58</span>
                    </p>
                    <p class=""lotteries"">
                      <span>75%</span>
                      <span>40%</span>
                    </p>","a","binary","B","27","13","13","0","B","A","75","36","",""
"","","","","","html-keyboard-response","188","436223","0.0-12.0-0.29","034","null","<p style=""text-align: center;"">+</p>","null","fixation","","","","","","","","","","",""
"","","","","","html-keyboard-response","189","438621","0.0-12.0-1.29","034","2397","
                    <p class=""lotteries"">
                      <span><img src='img/A.png', width=""30""></span>
                      <span><img src='img/D.png', width=""30""></span>
                    </p>
                    <p class=""lotteries"">
                      <span>₪64</span>
                      <span>₪11</span>
                    </p>
                    <p class=""lotteries"">
                      <span>25%</span>
                      <span>75%</span>
                    </p>","a","binary","A","16","6","6","0","A","B","25","64","",""
"","","","","","html-keyboard-response","190","439624","0.0-13.0","034","null","<p style=""text-align: center;"">+</p>","null","fixation","","","","","","","","","","",""
"","","","","","html-keyboard-response","191","440327","0.0-14.0","034","null","","null","delay","","","","","","","","","","",""
"","","","","","html-keyboard-response","192","475517","0.0-15.0","034","35188","<h1>הסוף</h1>
        <p>אנו מודים לכם על ההשתתפות!
        <p>כעת נשחק את אחת ההגרלות שבחרתם, באחד משני החלקים.
        <br>אנא קראו לנו להרצת ההגרלות.</p>"," ","","","","","","","","","","","",""
"","","","","","survey","193","490252","0.0-16.0","034","14601","","{""Gender"":""נקבה"",""Hand"":""ימין"",""Glasses"":""לא"",""Age"":""24""}","","","","","","","","","","","","[]"
