"success","timeout","failed_images","failed_audio","failed_video","trial_type","trial_index","time_elapsed","internal_node_id","subject_id","rt","stimulus","response","part","actual_choice","actual_EV","binary_id","trinary_id","catch","A_key","D_key","choice_prob","choice_amount","chosen_part","accuracy"
"true","false","[]","[]","[]","preload","0","60","0.0-0.0","060","","","","","","","","","","","","","","",""
"","","","","","html-keyboard-response","1","767","0.0-1.0","060","null","","null","delay","","","","","","","","","","",""
"","","","","","html-keyboard-response","2","698302","0.0-2.0","060","697530","
          <h1>חלק 2</h1>
          <p>בחלק זה יוצגו בפניכם שתי הגרלות.
          <br>אתם מתבקשים לבחור את ההגרלה שתרצו להשתתף בה.
          <br>שימו לב! בסוף הניסוי נבחר שלב אחד באקראי ונממש את ההגרלה שבחרתם. כלומר, הבחירה שלכם יכולה להפוך לכסף אמיתי.
          <br><br>לחצו רווח כדי להמשיך.</p>"," ","instructions","","","","","","","","","","",""
"","","","","","html-keyboard-response","3","717142","0.0-3.0","060","18127","
          <p>בואו נתחיל בדוגמה:
          <br>לפניכם שתי הגרלות.
          <br>לחצו 'A' אם אתם מעדיפים את ההגרלה השמאלית
          <br>לחצו 'D' אם אתם מעדיפים את ההגרלה הימנית
          <p class=""lotteries"">
            <span><img src='img/A.png', width=""30""></span>
            <span><img src='img/D.png', width=""30""></span>
          </p>
          <p class=""lotteries"">
            <span>₪39</span>
            <span>₪54</span>
          </p>
          <p class=""lotteries"">
            <span>65%</span>
            <span>35%</span>
          </p>","a","example","","","","","","","","","","",""
"","","","","","html-keyboard-response","4","723906","0.0-4.0","060","6052","<p>יפה מאוד!
                  <br>בחרתם את ההגרלה השמאלית. נשמע נכון?
                  <br>בואו ננסה דוגמה נוספת:</p>
                  <p class=""lotteries"">
                    <span><img src='img/A.png', width=""30""></span>
                    <span><img src='img/D.png', width=""30""></span>
                  </p>
                  <p class=""lotteries"">
                    <span>₪29</span>
                    <span>₪43</span>
                  </p>
                  <p class=""lotteries"">
                    <span>30%</span>
                    <span>65%</span>
                  </p>","d","example","","","","","","","","","","",""
"","","","","","html-keyboard-response","5","729642","0.0-5.0","060","5021","<p>יפה. כעת בחרתם את ההגרלה הימנית. 
                  <br>מיד נתחיל בניסוי.
                  <br>אתם תראו זוגות של הגרלות ותתבקשו לבחור את ההגרלה המועדפת עליכם.
                  <br><br>לחצו רווח כדי להמשיך.</p>"," ","instructions","","","","","","","","","","",""
"","","","","","html-keyboard-response","6","730957","0.0-6.0-0.0","060","null","<p style=""text-align: center;"">+</p>","null","fixation","","","","","","","","","","",""
"","","","","","html-keyboard-response","7","736538","0.0-6.0-1.0","060","5577","
                    <p class=""lotteries"">
                      <span><img src='img/A.png', width=""30""></span>
                      <span><img src='img/D.png', width=""30""></span>
                    </p>
                    <p class=""lotteries"">
                      <span>₪79</span>
                      <span>₪71</span>
                    </p>
                    <p class=""lotteries"">
                      <span>65%</span>
                      <span>75%</span>
                    </p>","d","binary","B","53.25","8","8","0","A","B","75","71","",""
"","","","","","html-keyboard-response","8","737114","0.0-6.0-0.1","060","null","<p style=""text-align: center;"">+</p>","null","fixation","","","","","","","","","","",""
"","","","","","html-keyboard-response","9","741002","0.0-6.0-1.1","060","3886","
                    <p class=""lotteries"">
                      <span><img src='img/A.png', width=""30""></span>
                      <span><img src='img/D.png', width=""30""></span>
                    </p>
                    <p class=""lotteries"">
                      <span>₪11</span>
                      <span>₪18</span>
                    </p>
                    <p class=""lotteries"">
                      <span>45%</span>
                      <span>25%</span>
                    </p>","a","binary","B","4.95","14","14","0","B","A","45","11","",""
"","","","","","html-keyboard-response","10","742364","0.0-6.0-0.2","060","null","<p style=""text-align: center;"">+</p>","null","fixation","","","","","","","","","","",""
"","","","","","html-keyboard-response","11","746043","0.0-6.0-1.2","060","3677","
                    <p class=""lotteries"">
                      <span><img src='img/A.png', width=""30""></span>
                      <span><img src='img/D.png', width=""30""></span>
                    </p>
                    <p class=""lotteries"">
                      <span>₪64</span>
                      <span>₪58</span>
                    </p>
                    <p class=""lotteries"">
                      <span>25%</span>
                      <span>40%</span>
                    </p>","d","binary","B","23.2","21","21","0","A","B","40","58","",""
"","","","","","html-keyboard-response","12","747196","0.0-6.0-0.3","060","null","<p style=""text-align: center;"">+</p>","null","fixation","","","","","","","","","","",""
"","","","","","html-keyboard-response","13","753598","0.0-6.0-1.3","060","6400","
                    <p class=""lotteries"">
                      <span><img src='img/A.png', width=""30""></span>
                      <span><img src='img/D.png', width=""30""></span>
                    </p>
                    <p class=""lotteries"">
                      <span>₪43</span>
                      <span>₪76</span>
                    </p>
                    <p class=""lotteries"">
                      <span>75%</span>
                      <span>65%</span>
                    </p>","a","binary","A","32.25","24","24","0","A","B","75","43","",""
"","","","","","html-keyboard-response","14","754490","0.0-6.0-0.4","060","null","<p style=""text-align: center;"">+</p>","null","fixation","","","","","","","","","","",""
"","","","","","html-keyboard-response","15","759683","0.0-6.0-1.4","060","5194","
                    <p class=""lotteries"">
                      <span><img src='img/A.png', width=""30""></span>
                      <span><img src='img/D.png', width=""30""></span>
                    </p>
                    <p class=""lotteries"">
                      <span>₪18</span>
                      <span>₪4</span>
                    </p>
                    <p class=""lotteries"">
                      <span>25%</span>
                      <span>75%</span>
                    </p>","a","binary","A","4.5","23","23","0","A","B","25","18","",""
"","","","","","html-keyboard-response","16","760841","0.0-6.0-0.5","060","null","<p style=""text-align: center;"">+</p>","null","fixation","","","","","","","","","","",""
"","","","","","html-keyboard-response","17","769715","0.0-6.0-1.5","060","8873","
                    <p class=""lotteries"">
                      <span><img src='img/A.png', width=""30""></span>
                      <span><img src='img/D.png', width=""30""></span>
                    </p>
                    <p class=""lotteries"">
                      <span>₪36</span>
                      <span>₪71</span>
                    </p>
                    <p class=""lotteries"">
                      <span>75%</span>
                      <span>55%</span>
                    </p>","a","binary","A","27","5","5","0","A","B","75","36","",""
"","","","","","html-keyboard-response","18","770544","0.0-6.0-0.6","060","null","<p style=""text-align: center;"">+</p>","null","fixation","","","","","","","","","","",""
"","","","","","html-keyboard-response","19","773891","0.0-6.0-1.6","060","3346","
                    <p class=""lotteries"">
                      <span><img src='img/A.png', width=""30""></span>
                      <span><img src='img/D.png', width=""30""></span>
                    </p>
                    <p class=""lotteries"">
                      <span>₪11</span>
                      <span>₪71</span>
                    </p>
                    <p class=""lotteries"">
                      <span>75%</span>
                      <span>55%</span>
                    </p>","d","binary","A","39.05","18","18","0","B","A","55","71","",""
"","","","","","html-keyboard-response","20","774890","0.0-6.0-0.7","060","null","<p style=""text-align: center;"">+</p>","null","fixation","","","","","","","","","","",""
"","","","","","html-keyboard-response","21","778823","0.0-6.0-1.7","060","3932","
                    <p class=""lotteries"">
                      <span><img src='img/A.png', width=""30""></span>
                      <span><img src='img/D.png', width=""30""></span>
                    </p>
                    <p class=""lotteries"">
                      <span>₪58</span>
                      <span>₪36</span>
                    </p>
                    <p class=""lotteries"">
                      <span>40%</span>
                      <span>75%</span>
                    </p>","d","binary","B","27","13","13","0","A","B","75","36","",""
"","","","","","html-keyboard-response","22","779336","0.0-6.0-0.8","060","null","<p style=""text-align: center;"">+</p>","null","fixation","","","","","","","","","","",""
"","","","","","html-keyboard-response","23","785615","0.0-6.0-1.8","060","6278","
                    <p class=""lotteries"">
                      <span><img src='img/A.png', width=""30""></span>
                      <span><img src='img/D.png', width=""30""></span>
                    </p>
                    <p class=""lotteries"">
                      <span>₪39</span>
                      <span>₪58</span>
                    </p>
                    <p class=""lotteries"">
                      <span>60%</span>
                      <span>45%</span>
                    </p>","a","binary","B","23.4","25","25","0","B","A","60","39","",""
"","","","","","html-keyboard-response","24","786986","0.0-6.0-0.9","060","null","<p style=""text-align: center;"">+</p>","null","fixation","","","","","","","","","","",""
"","","","","","html-keyboard-response","25","789087","0.0-6.0-1.9","060","2100","
                    <p class=""lotteries"">
                      <span><img src='img/A.png', width=""30""></span>
                      <span><img src='img/D.png', width=""30""></span>
                    </p>
                    <p class=""lotteries"">
                      <span>₪36</span>
                      <span>₪71</span>
                    </p>
                    <p class=""lotteries"">
                      <span>75%</span>
                      <span>45%</span>
                    </p>","a","binary","B","27","16","16","0","B","A","75","36","",""
"","","","","","html-keyboard-response","26","789810","0.0-6.0-0.10","060","null","<p style=""text-align: center;"">+</p>","null","fixation","","","","","","","","","","",""
"","","","","","html-keyboard-response","27","792839","0.0-6.0-1.10","060","3027","
                    <p class=""lotteries"">
                      <span><img src='img/A.png', width=""30""></span>
                      <span><img src='img/D.png', width=""30""></span>
                    </p>
                    <p class=""lotteries"">
                      <span>₪16</span>
                      <span>₪4</span>
                    </p>
                    <p class=""lotteries"">
                      <span>20%</span>
                      <span>50%</span>
                    </p>","a","binary","A","3.2","17","17","0","A","B","20","16","",""
"","","","","","html-keyboard-response","28","793987","0.0-6.0-0.11","060","null","<p style=""text-align: center;"">+</p>","null","fixation","","","","","","","","","","",""
"","","","","","html-keyboard-response","29","796799","0.0-6.0-1.11","060","2811","
                    <p class=""lotteries"">
                      <span><img src='img/A.png', width=""30""></span>
                      <span><img src='img/D.png', width=""30""></span>
                    </p>
                    <p class=""lotteries"">
                      <span>₪11</span>
                      <span>₪18</span>
                    </p>
                    <p class=""lotteries"">
                      <span>25%</span>
                      <span>50%</span>
                    </p>","d","binary","A","9","28","28","1","B","A","50","18","",""
"","","","","","html-keyboard-response","30","797753","0.0-6.0-0.12","060","null","<p style=""text-align: center;"">+</p>","null","fixation","","","","","","","","","","",""
"","","","","","html-keyboard-response","31","801239","0.0-6.0-1.12","060","3484","
                    <p class=""lotteries"">
                      <span><img src='img/A.png', width=""30""></span>
                      <span><img src='img/D.png', width=""30""></span>
                    </p>
                    <p class=""lotteries"">
                      <span>₪64</span>
                      <span>₪36</span>
                    </p>
                    <p class=""lotteries"">
                      <span>50%</span>
                      <span>75%</span>
                    </p>","d","binary","B","27","4","4","0","A","B","75","36","",""
"","","","","","html-keyboard-response","32","802038","0.0-6.0-0.13","060","null","<p style=""text-align: center;"">+</p>","null","fixation","","","","","","","","","","",""
"","","","","","html-keyboard-response","33","806047","0.0-6.0-1.13","060","4008","
                    <p class=""lotteries"">
                      <span><img src='img/A.png', width=""30""></span>
                      <span><img src='img/D.png', width=""30""></span>
                    </p>
                    <p class=""lotteries"">
                      <span>₪64</span>
                      <span>₪39</span>
                    </p>
                    <p class=""lotteries"">
                      <span>50%</span>
                      <span>65%</span>
                    </p>","d","binary","A","25.35","1","1","0","B","A","65","39","",""
"","","","","","html-keyboard-response","34","807504","0.0-6.0-0.14","060","null","<p style=""text-align: center;"">+</p>","null","fixation","","","","","","","","","","",""
"","","","","","html-keyboard-response","35","811395","0.0-6.0-1.14","060","3890","
                    <p class=""lotteries"">
                      <span><img src='img/A.png', width=""30""></span>
                      <span><img src='img/D.png', width=""30""></span>
                    </p>
                    <p class=""lotteries"">
                      <span>₪36</span>
                      <span>₪18</span>
                    </p>
                    <p class=""lotteries"">
                      <span>30%</span>
                      <span>50%</span>
                    </p>","d","binary","B","9","22","22","0","A","B","50","18","",""
"","","","","","html-keyboard-response","36","812305","0.0-6.0-0.15","060","null","<p style=""text-align: center;"">+</p>","null","fixation","","","","","","","","","","",""
"","","","","","html-keyboard-response","37","816395","0.0-6.0-1.15","060","4089","
                    <p class=""lotteries"">
                      <span><img src='img/A.png', width=""30""></span>
                      <span><img src='img/D.png', width=""30""></span>
                    </p>
                    <p class=""lotteries"">
                      <span>₪43</span>
                      <span>₪61</span>
                    </p>
                    <p class=""lotteries"">
                      <span>60%</span>
                      <span>55%</span>
                    </p>","d","binary","B","33.55","7","7","0","A","B","55","61","",""
"","","","","","html-keyboard-response","38","817292","0.0-6.0-0.16","060","null","<p style=""text-align: center;"">+</p>","null","fixation","","","","","","","","","","",""
"","","","","","html-keyboard-response","39","825978","0.0-6.0-1.16","060","8679","
                    <p class=""lotteries"">
                      <span><img src='img/A.png', width=""30""></span>
                      <span><img src='img/D.png', width=""30""></span>
                    </p>
                    <p class=""lotteries"">
                      <span>₪43</span>
                      <span>₪76</span>
                    </p>
                    <p class=""lotteries"">
                      <span>75%</span>
                      <span>65%</span>
                    </p>","a","binary","B","32.25","19","19","0","B","A","75","43","",""
"","","","","","html-keyboard-response","40","827079","0.0-6.0-0.17","060","null","<p style=""text-align: center;"">+</p>","null","fixation","","","","","","","","","","",""
"","","","","","html-keyboard-response","41","830369","0.0-6.0-1.17","060","3289","
                    <p class=""lotteries"">
                      <span><img src='img/A.png', width=""30""></span>
                      <span><img src='img/D.png', width=""30""></span>
                    </p>
                    <p class=""lotteries"">
                      <span>₪64</span>
                      <span>₪11</span>
                    </p>
                    <p class=""lotteries"">
                      <span>25%</span>
                      <span>75%</span>
                    </p>","a","binary","A","16","6","6","0","A","B","25","64","",""
"","","","","","html-keyboard-response","42","830961","0.0-6.0-0.18","060","null","<p style=""text-align: center;"">+</p>","null","fixation","","","","","","","","","","",""
"","","","","","html-keyboard-response","43","839380","0.0-6.0-1.18","060","8419","
                    <p class=""lotteries"">
                      <span><img src='img/A.png', width=""30""></span>
                      <span><img src='img/D.png', width=""30""></span>
                    </p>
                    <p class=""lotteries"">
                      <span>₪4</span>
                      <span>₪11</span>
                    </p>
                    <p class=""lotteries"">
                      <span>75%</span>
                      <span>25%</span>
                    </p>","d","binary","A","2.75","12","12","0","B","A","25","11","",""
"","","","","","html-keyboard-response","44","839993","0.0-6.0-0.19","060","null","<p style=""text-align: center;"">+</p>","null","fixation","","","","","","","","","","",""
"","","","","","html-keyboard-response","45","843373","0.0-6.0-1.19","060","3379","
                    <p class=""lotteries"">
                      <span><img src='img/A.png', width=""30""></span>
                      <span><img src='img/D.png', width=""30""></span>
                    </p>
                    <p class=""lotteries"">
                      <span>₪43</span>
                      <span>₪61</span>
                    </p>
                    <p class=""lotteries"">
                      <span>75%</span>
                      <span>45%</span>
                    </p>","a","binary","B","32.25","11","11","0","B","A","75","43","",""
"","","","","","html-keyboard-response","46","844392","0.0-6.0-0.20","060","null","<p style=""text-align: center;"">+</p>","null","fixation","","","","","","","","","","",""
"","","","","","html-keyboard-response","47","847436","0.0-6.0-1.20","060","3043","
                    <p class=""lotteries"">
                      <span><img src='img/A.png', width=""30""></span>
                      <span><img src='img/D.png', width=""30""></span>
                    </p>
                    <p class=""lotteries"">
                      <span>₪43</span>
                      <span>₪61</span>
                    </p>
                    <p class=""lotteries"">
                      <span>75%</span>
                      <span>55%</span>
                    </p>","a","binary","A","32.25","26","26","0","A","B","75","43","",""
"","","","","","html-keyboard-response","48","848205","0.0-6.0-0.21","060","null","<p style=""text-align: center;"">+</p>","null","fixation","","","","","","","","","","",""
"","","","","","html-keyboard-response","49","850828","0.0-6.0-1.21","060","2622","
                    <p class=""lotteries"">
                      <span><img src='img/A.png', width=""30""></span>
                      <span><img src='img/D.png', width=""30""></span>
                    </p>
                    <p class=""lotteries"">
                      <span>₪36</span>
                      <span>₪4</span>
                    </p>
                    <p class=""lotteries"">
                      <span>30%</span>
                      <span>75%</span>
                    </p>","a","binary","A","10.8","20","20","0","A","B","30","36","",""
"","","","","","html-keyboard-response","50","851379","0.0-6.0-0.22","060","null","<p style=""text-align: center;"">+</p>","null","fixation","","","","","","","","","","",""
"","","","","","html-keyboard-response","51","853821","0.0-6.0-1.22","060","2440","
                    <p class=""lotteries"">
                      <span><img src='img/A.png', width=""30""></span>
                      <span><img src='img/D.png', width=""30""></span>
                    </p>
                    <p class=""lotteries"">
                      <span>₪43</span>
                      <span>₪71</span>
                    </p>
                    <p class=""lotteries"">
                      <span>60%</span>
                      <span>45%</span>
                    </p>","a","binary","A","25.8","2","2","0","A","B","60","43","",""
"","","","","","html-keyboard-response","52","854875","0.0-6.0-0.23","060","null","<p style=""text-align: center;"">+</p>","null","fixation","","","","","","","","","","",""
"","","","","","html-keyboard-response","53","860240","0.0-6.0-1.23","060","5364","
                    <p class=""lotteries"">
                      <span><img src='img/A.png', width=""30""></span>
                      <span><img src='img/D.png', width=""30""></span>
                    </p>
                    <p class=""lotteries"">
                      <span>₪11</span>
                      <span>₪16</span>
                    </p>
                    <p class=""lotteries"">
                      <span>25%</span>
                      <span>20%</span>
                    </p>","a","binary","B","2.75","27","27","0","B","A","25","11","",""
"","","","","","html-keyboard-response","54","861668","0.0-6.0-0.24","060","null","<p style=""text-align: center;"">+</p>","null","fixation","","","","","","","","","","",""
"","","","","","html-keyboard-response","55","864344","0.0-6.0-1.24","060","2676","
                    <p class=""lotteries"">
                      <span><img src='img/A.png', width=""30""></span>
                      <span><img src='img/D.png', width=""30""></span>
                    </p>
                    <p class=""lotteries"">
                      <span>₪11</span>
                      <span>₪58</span>
                    </p>
                    <p class=""lotteries"">
                      <span>25%</span>
                      <span>30%</span>
                    </p>","d","binary","A","17.4","30","30","1","B","A","30","58","",""
"","","","","","html-keyboard-response","56","865542","0.0-6.0-0.25","060","null","<p style=""text-align: center;"">+</p>","null","fixation","","","","","","","","","","",""
"","","","","","html-keyboard-response","57","868520","0.0-6.0-1.25","060","2977","
                    <p class=""lotteries"">
                      <span><img src='img/A.png', width=""30""></span>
                      <span><img src='img/D.png', width=""30""></span>
                    </p>
                    <p class=""lotteries"">
                      <span>₪43</span>
                      <span>₪79</span>
                    </p>
                    <p class=""lotteries"">
                      <span>60%</span>
                      <span>40%</span>
                    </p>","a","binary","A","25.8","9","9","0","A","B","60","43","",""
"","","","","","html-keyboard-response","58","869375","0.0-6.0-0.26","060","null","<p style=""text-align: center;"">+</p>","null","fixation","","","","","","","","","","",""
"","","","","","html-keyboard-response","59","873473","0.0-6.0-1.26","060","4096","
                    <p class=""lotteries"">
                      <span><img src='img/A.png', width=""30""></span>
                      <span><img src='img/D.png', width=""30""></span>
                    </p>
                    <p class=""lotteries"">
                      <span>₪64</span>
                      <span>₪36</span>
                    </p>
                    <p class=""lotteries"">
                      <span>50%</span>
                      <span>70%</span>
                    </p>","d","binary","A","25.2","3","3","0","B","A","70","36","",""
"","","","","","html-keyboard-response","60","874123","0.0-6.0-0.27","060","null","<p style=""text-align: center;"">+</p>","null","fixation","","","","","","","","","","",""
"","","","","","html-keyboard-response","61","877528","0.0-6.0-1.27","060","3404","
                    <p class=""lotteries"">
                      <span><img src='img/A.png', width=""30""></span>
                      <span><img src='img/D.png', width=""30""></span>
                    </p>
                    <p class=""lotteries"">
                      <span>₪36</span>
                      <span>₪61</span>
                    </p>
                    <p class=""lotteries"">
                      <span>70%</span>
                      <span>45%</span>
                    </p>","a","binary","B","25.2","10","10","0","B","A","70","36","",""
"","","","","","html-keyboard-response","62","878369","0.0-6.0-0.28","060","null","<p style=""text-align: center;"">+</p>","null","fixation","","","","","","","","","","",""
"","","","","","html-keyboard-response","63","881736","0.0-6.0-1.28","060","3366","
                    <p class=""lotteries"">
                      <span><img src='img/A.png', width=""30""></span>
                      <span><img src='img/D.png', width=""30""></span>
                    </p>
                    <p class=""lotteries"">
                      <span>₪4</span>
                      <span>₪11</span>
                    </p>
                    <p class=""lotteries"">
                      <span>25%</span>
                      <span>75%</span>
                    </p>","d","binary","A","8.25","29","29","1","B","A","75","11","",""
"","","","","","html-keyboard-response","64","883054","0.0-6.0-0.29","060","null","<p style=""text-align: center;"">+</p>","null","fixation","","","","","","","","","","",""
"","","","","","html-keyboard-response","65","887588","0.0-6.0-1.29","060","4541","
                    <p class=""lotteries"">
                      <span><img src='img/A.png', width=""30""></span>
                      <span><img src='img/D.png', width=""30""></span>
                    </p>
                    <p class=""lotteries"">
                      <span>₪39</span>
                      <span>₪43</span>
                    </p>
                    <p class=""lotteries"">
                      <span>65%</span>
                      <span>60%</span>
                    </p>","d","binary","B","25.8","15","15","0","A","B","60","43","",""
"","","","","","html-keyboard-response","66","888596","0.0-7.0","060","null","<p style=""text-align: center;"">+</p>","null","fixation","","","","","","","","","","",""
"","","","","","html-keyboard-response","67","912540","0.0-8.0","060","23942","<p>הפסקה.
          <br>לחצו על רווח כדי להמשיך.</p>"," ","scan_wait","","","","","","","","","","",""
"","","","","","html-keyboard-response","68","913754","0.0-9.0-0.0","060","null","<p style=""text-align: center;"">+</p>","null","fixation","","","","","","","","","","",""
"","","","","","html-keyboard-response","69","916808","0.0-9.0-1.0","060","3052","
                    <p class=""lotteries"">
                      <span><img src='img/A.png', width=""30""></span>
                      <span><img src='img/D.png', width=""30""></span>
                    </p>
                    <p class=""lotteries"">
                      <span>₪4</span>
                      <span>₪11</span>
                    </p>
                    <p class=""lotteries"">
                      <span>25%</span>
                      <span>75%</span>
                    </p>","d","binary","A","8.25","29","29","1","B","A","75","11","",""
"","","","","","html-keyboard-response","70","917714","0.0-9.0-0.1","060","null","<p style=""text-align: center;"">+</p>","null","fixation","","","","","","","","","","",""
"","","","","","html-keyboard-response","71","920800","0.0-9.0-1.1","060","3084","
                    <p class=""lotteries"">
                      <span><img src='img/A.png', width=""30""></span>
                      <span><img src='img/D.png', width=""30""></span>
                    </p>
                    <p class=""lotteries"">
                      <span>₪11</span>
                      <span>₪71</span>
                    </p>
                    <p class=""lotteries"">
                      <span>75%</span>
                      <span>55%</span>
                    </p>","d","binary","A","39.05","18","18","0","B","A","55","71","",""
"","","","","","html-keyboard-response","72","921897","0.0-9.0-0.2","060","null","<p style=""text-align: center;"">+</p>","null","fixation","","","","","","","","","","",""
"","","","","","html-keyboard-response","73","923824","0.0-9.0-1.2","060","1926","
                    <p class=""lotteries"">
                      <span><img src='img/A.png', width=""30""></span>
                      <span><img src='img/D.png', width=""30""></span>
                    </p>
                    <p class=""lotteries"">
                      <span>₪58</span>
                      <span>₪36</span>
                    </p>
                    <p class=""lotteries"">
                      <span>40%</span>
                      <span>75%</span>
                    </p>","d","binary","B","27","13","13","0","A","B","75","36","",""
"","","","","","html-keyboard-response","74","924760","0.0-9.0-0.3","060","null","<p style=""text-align: center;"">+</p>","null","fixation","","","","","","","","","","",""
"","","","","","html-keyboard-response","75","928144","0.0-9.0-1.3","060","3383","
                    <p class=""lotteries"">
                      <span><img src='img/A.png', width=""30""></span>
                      <span><img src='img/D.png', width=""30""></span>
                    </p>
                    <p class=""lotteries"">
                      <span>₪76</span>
                      <span>₪43</span>
                    </p>
                    <p class=""lotteries"">
                      <span>65%</span>
                      <span>75%</span>
                    </p>","d","binary","A","32.25","24","24","0","B","A","75","43","",""
"","","","","","html-keyboard-response","76","929122","0.0-9.0-0.4","060","null","<p style=""text-align: center;"">+</p>","null","fixation","","","","","","","","","","",""
"","","","","","html-keyboard-response","77","932777","0.0-9.0-1.4","060","3653","
                    <p class=""lotteries"">
                      <span><img src='img/A.png', width=""30""></span>
                      <span><img src='img/D.png', width=""30""></span>
                    </p>
                    <p class=""lotteries"">
                      <span>₪43</span>
                      <span>₪39</span>
                    </p>
                    <p class=""lotteries"">
                      <span>60%</span>
                      <span>65%</span>
                    </p>","d","binary","A","25.35","15","15","0","B","A","65","39","",""
"","","","","","html-keyboard-response","78","933923","0.0-9.0-0.5","060","null","<p style=""text-align: center;"">+</p>","null","fixation","","","","","","","","","","",""
"","","","","","html-keyboard-response","79","936128","0.0-9.0-1.5","060","2203","
                    <p class=""lotteries"">
                      <span><img src='img/A.png', width=""30""></span>
                      <span><img src='img/D.png', width=""30""></span>
                    </p>
                    <p class=""lotteries"">
                      <span>₪71</span>
                      <span>₪43</span>
                    </p>
                    <p class=""lotteries"">
                      <span>45%</span>
                      <span>60%</span>
                    </p>","d","binary","A","25.8","2","2","0","B","A","60","43","",""
"","","","","","html-keyboard-response","80","936818","0.0-9.0-0.6","060","null","<p style=""text-align: center;"">+</p>","null","fixation","","","","","","","","","","",""
"","","","","","html-keyboard-response","81","939260","0.0-9.0-1.6","060","2441","
                    <p class=""lotteries"">
                      <span><img src='img/A.png', width=""30""></span>
                      <span><img src='img/D.png', width=""30""></span>
                    </p>
                    <p class=""lotteries"">
                      <span>₪43</span>
                      <span>₪79</span>
                    </p>
                    <p class=""lotteries"">
                      <span>60%</span>
                      <span>40%</span>
                    </p>","a","binary","A","25.8","9","9","0","A","B","60","43","",""
"","","","","","html-keyboard-response","82","940477","0.0-9.0-0.7","060","null","<p style=""text-align: center;"">+</p>","null","fixation","","","","","","","","","","",""
"","","","","","html-keyboard-response","83","941907","0.0-9.0-1.7","060","1429","
                    <p class=""lotteries"">
                      <span><img src='img/A.png', width=""30""></span>
                      <span><img src='img/D.png', width=""30""></span>
                    </p>
                    <p class=""lotteries"">
                      <span>₪4</span>
                      <span>₪11</span>
                    </p>
                    <p class=""lotteries"">
                      <span>75%</span>
                      <span>25%</span>
                    </p>","d","binary","A","2.75","12","12","0","B","A","25","11","",""
"","","","","","html-keyboard-response","84","942753","0.0-9.0-0.8","060","null","<p style=""text-align: center;"">+</p>","null","fixation","","","","","","","","","","",""
"","","","","","html-keyboard-response","85","945948","0.0-9.0-1.8","060","3193","
                    <p class=""lotteries"">
                      <span><img src='img/A.png', width=""30""></span>
                      <span><img src='img/D.png', width=""30""></span>
                    </p>
                    <p class=""lotteries"">
                      <span>₪79</span>
                      <span>₪71</span>
                    </p>
                    <p class=""lotteries"">
                      <span>65%</span>
                      <span>75%</span>
                    </p>","d","binary","B","53.25","8","8","0","A","B","75","71","",""
"","","","","","html-keyboard-response","86","947268","0.0-9.0-0.9","060","null","<p style=""text-align: center;"">+</p>","null","fixation","","","","","","","","","","",""
"","","","","","html-keyboard-response","87","950375","0.0-9.0-1.9","060","3110","
                    <p class=""lotteries"">
                      <span><img src='img/A.png', width=""30""></span>
                      <span><img src='img/D.png', width=""30""></span>
                    </p>
                    <p class=""lotteries"">
                      <span>₪18</span>
                      <span>₪11</span>
                    </p>
                    <p class=""lotteries"">
                      <span>25%</span>
                      <span>45%</span>
                    </p>","d","binary","B","4.95","14","14","0","A","B","45","11","",""
"","","","","","html-keyboard-response","88","951796","0.0-9.0-0.10","060","null","<p style=""text-align: center;"">+</p>","null","fixation","","","","","","","","","","",""
"","","","","","html-keyboard-response","89","953783","0.0-9.0-1.10","060","1985","
                    <p class=""lotteries"">
                      <span><img src='img/A.png', width=""30""></span>
                      <span><img src='img/D.png', width=""30""></span>
                    </p>
                    <p class=""lotteries"">
                      <span>₪64</span>
                      <span>₪11</span>
                    </p>
                    <p class=""lotteries"">
                      <span>25%</span>
                      <span>75%</span>
                    </p>","d","binary","B","8.25","6","6","0","A","B","75","11","",""
"","","","","","html-keyboard-response","90","954590","0.0-9.0-0.11","060","null","<p style=""text-align: center;"">+</p>","null","fixation","","","","","","","","","","",""
"","","","","","html-keyboard-response","91","959912","0.0-9.0-1.11","060","5320","
                    <p class=""lotteries"">
                      <span><img src='img/A.png', width=""30""></span>
                      <span><img src='img/D.png', width=""30""></span>
                    </p>
                    <p class=""lotteries"">
                      <span>₪43</span>
                      <span>₪61</span>
                    </p>
                    <p class=""lotteries"">
                      <span>75%</span>
                      <span>55%</span>
                    </p>","a","binary","A","32.25","26","26","0","A","B","75","43","",""
"","","","","","html-keyboard-response","92","960611","0.0-9.0-0.12","060","null","<p style=""text-align: center;"">+</p>","null","fixation","","","","","","","","","","",""
"","","","","","html-keyboard-response","93","962591","0.0-9.0-1.12","060","1978","
                    <p class=""lotteries"">
                      <span><img src='img/A.png', width=""30""></span>
                      <span><img src='img/D.png', width=""30""></span>
                    </p>
                    <p class=""lotteries"">
                      <span>₪11</span>
                      <span>₪16</span>
                    </p>
                    <p class=""lotteries"">
                      <span>25%</span>
                      <span>20%</span>
                    </p>","a","binary","B","2.75","27","27","0","B","A","25","11","",""
"","","","","","html-keyboard-response","94","963390","0.0-9.0-0.13","060","null","<p style=""text-align: center;"">+</p>","null","fixation","","","","","","","","","","",""
"","","","","","html-keyboard-response","95","965871","0.0-9.0-1.13","060","2480","
                    <p class=""lotteries"">
                      <span><img src='img/A.png', width=""30""></span>
                      <span><img src='img/D.png', width=""30""></span>
                    </p>
                    <p class=""lotteries"">
                      <span>₪64</span>
                      <span>₪39</span>
                    </p>
                    <p class=""lotteries"">
                      <span>50%</span>
                      <span>65%</span>
                    </p>","d","binary","A","25.35","1","1","0","B","A","65","39","",""
"","","","","","html-keyboard-response","96","966564","0.0-9.0-0.14","060","null","<p style=""text-align: center;"">+</p>","null","fixation","","","","","","","","","","",""
"","","","","","html-keyboard-response","97","968195","0.0-9.0-1.14","060","1630","
                    <p class=""lotteries"">
                      <span><img src='img/A.png', width=""30""></span>
                      <span><img src='img/D.png', width=""30""></span>
                    </p>
                    <p class=""lotteries"">
                      <span>₪43</span>
                      <span>₪61</span>
                    </p>
                    <p class=""lotteries"">
                      <span>75%</span>
                      <span>45%</span>
                    </p>","a","binary","B","32.25","11","11","0","B","A","75","43","",""
"","","","","","html-keyboard-response","98","969326","0.0-9.0-0.15","060","null","<p style=""text-align: center;"">+</p>","null","fixation","","","","","","","","","","",""
"","","","","","html-keyboard-response","99","971635","0.0-9.0-1.15","060","2308","
                    <p class=""lotteries"">
                      <span><img src='img/A.png', width=""30""></span>
                      <span><img src='img/D.png', width=""30""></span>
                    </p>
                    <p class=""lotteries"">
                      <span>₪18</span>
                      <span>₪4</span>
                    </p>
                    <p class=""lotteries"">
                      <span>25%</span>
                      <span>75%</span>
                    </p>","a","binary","A","4.5","23","23","0","A","B","25","18","",""
"","","","","","html-keyboard-response","100","972420","0.0-9.0-0.16","060","null","<p style=""text-align: center;"">+</p>","null","fixation","","","","","","","","","","",""
"","","","","","html-keyboard-response","101","975035","0.0-9.0-1.16","060","2614","
                    <p class=""lotteries"">
                      <span><img src='img/A.png', width=""30""></span>
                      <span><img src='img/D.png', width=""30""></span>
                    </p>
                    <p class=""lotteries"">
                      <span>₪18</span>
                      <span>₪36</span>
                    </p>
                    <p class=""lotteries"">
                      <span>50%</span>
                      <span>30%</span>
                    </p>","a","binary","B","9","22","22","0","B","A","50","18","",""
"","","","","","html-keyboard-response","102","976397","0.0-9.0-0.17","060","null","<p style=""text-align: center;"">+</p>","null","fixation","","","","","","","","","","",""
"","","","","","html-keyboard-response","103","978595","0.0-9.0-1.17","060","2197","
                    <p class=""lotteries"">
                      <span><img src='img/A.png', width=""30""></span>
                      <span><img src='img/D.png', width=""30""></span>
                    </p>
                    <p class=""lotteries"">
                      <span>₪64</span>
                      <span>₪58</span>
                    </p>
                    <p class=""lotteries"">
                      <span>25%</span>
                      <span>40%</span>
                    </p>","d","binary","B","23.2","21","21","0","A","B","40","58","",""
"","","","","","html-keyboard-response","104","979167","0.0-9.0-0.18","060","null","<p style=""text-align: center;"">+</p>","null","fixation","","","","","","","","","","",""
"","","","","","html-keyboard-response","105","981003","0.0-9.0-1.18","060","1835","
                    <p class=""lotteries"">
                      <span><img src='img/A.png', width=""30""></span>
                      <span><img src='img/D.png', width=""30""></span>
                    </p>
                    <p class=""lotteries"">
                      <span>₪11</span>
                      <span>₪58</span>
                    </p>
                    <p class=""lotteries"">
                      <span>25%</span>
                      <span>30%</span>
                    </p>","d","binary","A","17.4","30","30","1","B","A","30","58","",""
"","","","","","html-keyboard-response","106","981977","0.0-9.0-0.19","060","null","<p style=""text-align: center;"">+</p>","null","fixation","","","","","","","","","","",""
"","","","","","html-keyboard-response","107","986099","0.0-9.0-1.19","060","4121","
                    <p class=""lotteries"">
                      <span><img src='img/A.png', width=""30""></span>
                      <span><img src='img/D.png', width=""30""></span>
                    </p>
                    <p class=""lotteries"">
                      <span>₪36</span>
                      <span>₪71</span>
                    </p>
                    <p class=""lotteries"">
                      <span>75%</span>
                      <span>55%</span>
                    </p>","a","binary","A","27","5","5","0","A","B","75","36","",""
"","","","","","html-keyboard-response","108","986847","0.0-9.0-0.20","060","null","<p style=""text-align: center;"">+</p>","null","fixation","","","","","","","","","","",""
"","","","","","html-keyboard-response","109","989943","0.0-9.0-1.20","060","3095","
                    <p class=""lotteries"">
                      <span><img src='img/A.png', width=""30""></span>
                      <span><img src='img/D.png', width=""30""></span>
                    </p>
                    <p class=""lotteries"">
                      <span>₪36</span>
                      <span>₪64</span>
                    </p>
                    <p class=""lotteries"">
                      <span>75%</span>
                      <span>50%</span>
                    </p>","a","binary","B","27","4","4","0","B","A","75","36","",""
"","","","","","html-keyboard-response","110","991091","0.0-9.0-0.21","060","null","<p style=""text-align: center;"">+</p>","null","fixation","","","","","","","","","","",""
"","","","","","html-keyboard-response","111","993551","0.0-9.0-1.21","060","2459","
                    <p class=""lotteries"">
                      <span><img src='img/A.png', width=""30""></span>
                      <span><img src='img/D.png', width=""30""></span>
                    </p>
                    <p class=""lotteries"">
                      <span>₪36</span>
                      <span>₪71</span>
                    </p>
                    <p class=""lotteries"">
                      <span>75%</span>
                      <span>45%</span>
                    </p>","a","binary","B","27","16","16","0","B","A","75","36","",""
"","","","","","html-keyboard-response","112","994356","0.0-9.0-0.22","060","null","<p style=""text-align: center;"">+</p>","null","fixation","","","","","","","","","","",""
"","","","","","html-keyboard-response","113","1000695","0.0-9.0-1.22","060","6338","
                    <p class=""lotteries"">
                      <span><img src='img/A.png', width=""30""></span>
                      <span><img src='img/D.png', width=""30""></span>
                    </p>
                    <p class=""lotteries"">
                      <span>₪43</span>
                      <span>₪76</span>
                    </p>
                    <p class=""lotteries"">
                      <span>75%</span>
                      <span>65%</span>
                    </p>","a","binary","B","32.25","19","19","0","B","A","75","43","",""
"","","","","","html-keyboard-response","114","1001741","0.0-9.0-0.23","060","null","<p style=""text-align: center;"">+</p>","null","fixation","","","","","","","","","","",""
"","","","","","html-keyboard-response","115","1004135","0.0-9.0-1.23","060","2393","
                    <p class=""lotteries"">
                      <span><img src='img/A.png', width=""30""></span>
                      <span><img src='img/D.png', width=""30""></span>
                    </p>
                    <p class=""lotteries"">
                      <span>₪18</span>
                      <span>₪11</span>
                    </p>
                    <p class=""lotteries"">
                      <span>50%</span>
                      <span>25%</span>
                    </p>","a","binary","A","9","28","28","1","A","B","50","18","",""
"","","","","","html-keyboard-response","116","1005608","0.0-9.0-0.24","060","null","<p style=""text-align: center;"">+</p>","null","fixation","","","","","","","","","","",""
"","","","","","html-keyboard-response","117","1008311","0.0-9.0-1.24","060","2702","
                    <p class=""lotteries"">
                      <span><img src='img/A.png', width=""30""></span>
                      <span><img src='img/D.png', width=""30""></span>
                    </p>
                    <p class=""lotteries"">
                      <span>₪4</span>
                      <span>₪36</span>
                    </p>
                    <p class=""lotteries"">
                      <span>75%</span>
                      <span>30%</span>
                    </p>","d","binary","A","10.8","20","20","0","B","A","30","36","",""
"","","","","","html-keyboard-response","118","1009252","0.0-9.0-0.25","060","null","<p style=""text-align: center;"">+</p>","null","fixation","","","","","","","","","","",""
"","","","","","html-keyboard-response","119","1011914","0.0-9.0-1.25","060","2650","
                    <p class=""lotteries"">
                      <span><img src='img/A.png', width=""30""></span>
                      <span><img src='img/D.png', width=""30""></span>
                    </p>
                    <p class=""lotteries"">
                      <span>₪61</span>
                      <span>₪43</span>
                    </p>
                    <p class=""lotteries"">
                      <span>55%</span>
                      <span>60%</span>
                    </p>","a","binary","B","33.55","7","7","0","B","A","55","61","",""
"","","","","","html-keyboard-response","120","1013044","0.0-9.0-0.26","060","null","<p style=""text-align: center;"">+</p>","null","fixation","","","","","","","","","","",""
"","","","","","html-keyboard-response","121","1016754","0.0-9.0-1.26","060","3709","
                    <p class=""lotteries"">
                      <span><img src='img/A.png', width=""30""></span>
                      <span><img src='img/D.png', width=""30""></span>
                    </p>
                    <p class=""lotteries"">
                      <span>₪4</span>
                      <span>₪16</span>
                    </p>
                    <p class=""lotteries"">
                      <span>50%</span>
                      <span>20%</span>
                    </p>","d","binary","A","3.2","17","17","0","B","A","20","16","",""
"","","","","","html-keyboard-response","122","1017544","0.0-9.0-0.27","060","null","<p style=""text-align: center;"">+</p>","null","fixation","","","","","","","","","","",""
"","","","","","html-keyboard-response","123","1020909","0.0-9.0-1.27","060","3364","
                    <p class=""lotteries"">
                      <span><img src='img/A.png', width=""30""></span>
                      <span><img src='img/D.png', width=""30""></span>
                    </p>
                    <p class=""lotteries"">
                      <span>₪58</span>
                      <span>₪39</span>
                    </p>
                    <p class=""lotteries"">
                      <span>45%</span>
                      <span>60%</span>
                    </p>","d","binary","B","23.4","25","25","0","A","B","60","39","",""
"","","","","","html-keyboard-response","124","1021705","0.0-9.0-0.28","060","null","<p style=""text-align: center;"">+</p>","null","fixation","","","","","","","","","","",""
"","","","","","html-keyboard-response","125","1023621","0.0-9.0-1.28","060","1915","
                    <p class=""lotteries"">
                      <span><img src='img/A.png', width=""30""></span>
                      <span><img src='img/D.png', width=""30""></span>
                    </p>
                    <p class=""lotteries"">
                      <span>₪64</span>
                      <span>₪36</span>
                    </p>
                    <p class=""lotteries"">
                      <span>50%</span>
                      <span>70%</span>
                    </p>","d","binary","A","25.2","3","3","0","B","A","70","36","",""
"","","","","","html-keyboard-response","126","1024667","0.0-9.0-0.29","060","null","<p style=""text-align: center;"">+</p>","null","fixation","","","","","","","","","","",""
"","","","","","html-keyboard-response","127","1026573","0.0-9.0-1.29","060","1905","
                    <p class=""lotteries"">
                      <span><img src='img/A.png', width=""30""></span>
                      <span><img src='img/D.png', width=""30""></span>
                    </p>
                    <p class=""lotteries"">
                      <span>₪61</span>
                      <span>₪36</span>
                    </p>
                    <p class=""lotteries"">
                      <span>45%</span>
                      <span>70%</span>
                    </p>","d","binary","B","25.2","10","10","0","A","B","70","36","",""
"","","","","","html-keyboard-response","128","1027577","0.0-10.0","060","null","<p style=""text-align: center;"">+</p>","null","fixation","","","","","","","","","","",""
"","","","","","html-keyboard-response","129","1029013","0.0-11.0","060","1435","<p>הפסקה.
          <br>לחצו על רווח כדי להמשיך.</p>"," ","scan_wait","","","","","","","","","","",""
"","","","","","html-keyboard-response","130","1029863","0.0-12.0-0.0","060","null","<p style=""text-align: center;"">+</p>","null","fixation","","","","","","","","","","",""
"","","","","","html-keyboard-response","131","1034997","0.0-12.0-1.0","060","5133","
                    <p class=""lotteries"">
                      <span><img src='img/A.png', width=""30""></span>
                      <span><img src='img/D.png', width=""30""></span>
                    </p>
                    <p class=""lotteries"">
                      <span>₪18</span>
                      <span>₪11</span>
                    </p>
                    <p class=""lotteries"">
                      <span>25%</span>
                      <span>45%</span>
                    </p>","d","binary","B","4.95","14","14","0","A","B","45","11","",""
"","","","","","html-keyboard-response","132","1036355","0.0-12.0-0.1","060","null","<p style=""text-align: center;"">+</p>","null","fixation","","","","","","","","","","",""
"","","","","","html-keyboard-response","133","1038213","0.0-12.0-1.1","060","1857","
                    <p class=""lotteries"">
                      <span><img src='img/A.png', width=""30""></span>
                      <span><img src='img/D.png', width=""30""></span>
                    </p>
                    <p class=""lotteries"">
                      <span>₪4</span>
                      <span>₪18</span>
                    </p>
                    <p class=""lotteries"">
                      <span>75%</span>
                      <span>25%</span>
                    </p>","d","binary","A","4.5","23","23","0","B","A","25","18","",""
"","","","","","html-keyboard-response","134","1039465","0.0-12.0-0.2","060","null","<p style=""text-align: center;"">+</p>","null","fixation","","","","","","","","","","",""
"","","","","","html-keyboard-response","135","1044798","0.0-12.0-1.2","060","5332","
                    <p class=""lotteries"">
                      <span><img src='img/A.png', width=""30""></span>
                      <span><img src='img/D.png', width=""30""></span>
                    </p>
                    <p class=""lotteries"">
                      <span>₪61</span>
                      <span>₪43</span>
                    </p>
                    <p class=""lotteries"">
                      <span>55%</span>
                      <span>60%</span>
                    </p>","a","binary","B","33.55","7","7","0","B","A","55","61","",""
"","","","","","html-keyboard-response","136","1045856","0.0-12.0-0.3","060","null","<p style=""text-align: center;"">+</p>","null","fixation","","","","","","","","","","",""
"","","","","","html-keyboard-response","137","1049024","0.0-12.0-1.3","060","3167","
                    <p class=""lotteries"">
                      <span><img src='img/A.png', width=""30""></span>
                      <span><img src='img/D.png', width=""30""></span>
                    </p>
                    <p class=""lotteries"">
                      <span>₪11</span>
                      <span>₪18</span>
                    </p>
                    <p class=""lotteries"">
                      <span>25%</span>
                      <span>50%</span>
                    </p>","d","binary","A","9","28","28","1","B","A","50","18","",""
"","","","","","html-keyboard-response","138","1049552","0.0-12.0-0.4","060","null","<p style=""text-align: center;"">+</p>","null","fixation","","","","","","","","","","",""
"","","","","","html-keyboard-response","139","1052225","0.0-12.0-1.4","060","2672","
                    <p class=""lotteries"">
                      <span><img src='img/A.png', width=""30""></span>
                      <span><img src='img/D.png', width=""30""></span>
                    </p>
                    <p class=""lotteries"">
                      <span>₪61</span>
                      <span>₪43</span>
                    </p>
                    <p class=""lotteries"">
                      <span>45%</span>
                      <span>75%</span>
                    </p>","d","binary","B","32.25","11","11","0","A","B","75","43","",""
"","","","","","html-keyboard-response","140","1053294","0.0-12.0-0.5","060","null","<p style=""text-align: center;"">+</p>","null","fixation","","","","","","","","","","",""
"","","","","","html-keyboard-response","141","1055913","0.0-12.0-1.5","060","2618","
                    <p class=""lotteries"">
                      <span><img src='img/A.png', width=""30""></span>
                      <span><img src='img/D.png', width=""30""></span>
                    </p>
                    <p class=""lotteries"">
                      <span>₪71</span>
                      <span>₪36</span>
                    </p>
                    <p class=""lotteries"">
                      <span>55%</span>
                      <span>75%</span>
                    </p>","d","binary","A","27","5","5","0","B","A","75","36","",""
"","","","","","html-keyboard-response","142","1057408","0.0-12.0-0.6","060","null","<p style=""text-align: center;"">+</p>","null","fixation","","","","","","","","","","",""
"","","","","","html-keyboard-response","143","1061154","0.0-12.0-1.6","060","3744","
                    <p class=""lotteries"">
                      <span><img src='img/A.png', width=""30""></span>
                      <span><img src='img/D.png', width=""30""></span>
                    </p>
                    <p class=""lotteries"">
                      <span>₪39</span>
                      <span>₪58</span>
                    </p>
                    <p class=""lotteries"">
                      <span>60%</span>
                      <span>45%</span>
                    </p>","a","binary","B","23.4","25","25","0","B","A","60","39","",""
"","","","","","html-keyboard-response","144","1061954","0.0-12.0-0.7","060","null","<p style=""text-align: center;"">+</p>","null","fixation","","","","","","","","","","",""
"","","","","","html-keyboard-response","145","1066202","0.0-12.0-1.7","060","4247","
                    <p class=""lotteries"">
                      <span><img src='img/A.png', width=""30""></span>
                      <span><img src='img/D.png', width=""30""></span>
                    </p>
                    <p class=""lotteries"">
                      <span>₪36</span>
                      <span>₪71</span>
                    </p>
                    <p class=""lotteries"">
                      <span>75%</span>
                      <span>45%</span>
                    </p>","a","binary","B","27","16","16","0","B","A","75","36","",""
"","","","","","html-keyboard-response","146","1067209","0.0-12.0-0.8","060","null","<p style=""text-align: center;"">+</p>","null","fixation","","","","","","","","","","",""
"","","","","","html-keyboard-response","147","1069809","0.0-12.0-1.8","060","2599","
                    <p class=""lotteries"">
                      <span><img src='img/A.png', width=""30""></span>
                      <span><img src='img/D.png', width=""30""></span>
                    </p>
                    <p class=""lotteries"">
                      <span>₪11</span>
                      <span>₪4</span>
                    </p>
                    <p class=""lotteries"">
                      <span>25%</span>
                      <span>75%</span>
                    </p>","d","binary","B","3","12","12","0","A","B","75","4","",""
"","","","","","html-keyboard-response","148","1070398","0.0-12.0-0.9","060","null","<p style=""text-align: center;"">+</p>","null","fixation","","","","","","","","","","",""
"","","","","","html-keyboard-response","149","1075305","0.0-12.0-1.9","060","4910","
                    <p class=""lotteries"">
                      <span><img src='img/A.png', width=""30""></span>
                      <span><img src='img/D.png', width=""30""></span>
                    </p>
                    <p class=""lotteries"">
                      <span>₪61</span>
                      <span>₪36</span>
                    </p>
                    <p class=""lotteries"">
                      <span>45%</span>
                      <span>70%</span>
                    </p>","d","binary","B","25.2","10","10","0","A","B","70","36","",""
"","","","","","html-keyboard-response","150","1076298","0.0-12.0-0.10","060","null","<p style=""text-align: center;"">+</p>","null","fixation","","","","","","","","","","",""
"","","","","","html-keyboard-response","151","1078057","0.0-12.0-1.10","060","1757","
                    <p class=""lotteries"">
                      <span><img src='img/A.png', width=""30""></span>
                      <span><img src='img/D.png', width=""30""></span>
                    </p>
                    <p class=""lotteries"">
                      <span>₪4</span>
                      <span>₪36</span>
                    </p>
                    <p class=""lotteries"">
                      <span>75%</span>
                      <span>30%</span>
                    </p>","d","binary","A","10.8","20","20","0","B","A","30","36","",""
"","","","","","html-keyboard-response","152","1078944","0.0-12.0-0.11","060","null","<p style=""text-align: center;"">+</p>","null","fixation","","","","","","","","","","",""
"","","","","","html-keyboard-response","153","1082529","0.0-12.0-1.11","060","3583","
                    <p class=""lotteries"">
                      <span><img src='img/A.png', width=""30""></span>
                      <span><img src='img/D.png', width=""30""></span>
                    </p>
                    <p class=""lotteries"">
                      <span>₪64</span>
                      <span>₪36</span>
                    </p>
                    <p class=""lotteries"">
                      <span>50%</span>
                      <span>70%</span>
                    </p>","d","binary","A","25.2","3","3","0","B","A","70","36","",""
"","","","","","html-keyboard-response","154","1083492","0.0-12.0-0.12","060","null","<p style=""text-align: center;"">+</p>","null","fixation","","","","","","","","","","",""
"","","","","","html-keyboard-response","155","1086729","0.0-12.0-1.12","060","3236","
                    <p class=""lotteries"">
                      <span><img src='img/A.png', width=""30""></span>
                      <span><img src='img/D.png', width=""30""></span>
                    </p>
                    <p class=""lotteries"">
                      <span>₪76</span>
                      <span>₪43</span>
                    </p>
                    <p class=""lotteries"">
                      <span>65%</span>
                      <span>75%</span>
                    </p>","d","binary","A","32.25","24","24","0","B","A","75","43","",""
"","","","","","html-keyboard-response","156","1087321","0.0-12.0-0.13","060","null","<p style=""text-align: center;"">+</p>","null","fixation","","","","","","","","","","",""
"","","","","","html-keyboard-response","157","1089472","0.0-12.0-1.13","060","2150","
                    <p class=""lotteries"">
                      <span><img src='img/A.png', width=""30""></span>
                      <span><img src='img/D.png', width=""30""></span>
                    </p>
                    <p class=""lotteries"">
                      <span>₪11</span>
                      <span>₪71</span>
                    </p>
                    <p class=""lotteries"">
                      <span>75%</span>
                      <span>55%</span>
                    </p>","d","binary","A","39.05","18","18","0","B","A","55","71","",""
"","","","","","html-keyboard-response","158","1090933","0.0-12.0-0.14","060","null","<p style=""text-align: center;"">+</p>","null","fixation","","","","","","","","","","",""
"","","","","","html-keyboard-response","159","1093200","0.0-12.0-1.14","060","2266","
                    <p class=""lotteries"">
                      <span><img src='img/A.png', width=""30""></span>
                      <span><img src='img/D.png', width=""30""></span>
                    </p>
                    <p class=""lotteries"">
                      <span>₪64</span>
                      <span>₪58</span>
                    </p>
                    <p class=""lotteries"">
                      <span>25%</span>
                      <span>40%</span>
                    </p>","d","binary","B","23.2","21","21","0","A","B","40","58","",""
"","","","","","html-keyboard-response","160","1094075","0.0-12.0-0.15","060","null","<p style=""text-align: center;"">+</p>","null","fixation","","","","","","","","","","",""
"","","","","","html-keyboard-response","161","1096153","0.0-12.0-1.15","060","2076","
                    <p class=""lotteries"">
                      <span><img src='img/A.png', width=""30""></span>
                      <span><img src='img/D.png', width=""30""></span>
                    </p>
                    <p class=""lotteries"">
                      <span>₪58</span>
                      <span>₪36</span>
                    </p>
                    <p class=""lotteries"">
                      <span>40%</span>
                      <span>75%</span>
                    </p>","d","binary","B","27","13","13","0","A","B","75","36","",""
"","","","","","html-keyboard-response","162","1097525","0.0-12.0-0.16","060","null","<p style=""text-align: center;"">+</p>","null","fixation","","","","","","","","","","",""
"","","","","","html-keyboard-response","163","1099908","0.0-12.0-1.16","060","2382","
                    <p class=""lotteries"">
                      <span><img src='img/A.png', width=""30""></span>
                      <span><img src='img/D.png', width=""30""></span>
                    </p>
                    <p class=""lotteries"">
                      <span>₪71</span>
                      <span>₪79</span>
                    </p>
                    <p class=""lotteries"">
                      <span>75%</span>
                      <span>65%</span>
                    </p>","a","binary","B","53.25","8","8","0","B","A","75","71","",""
"","","","","","html-keyboard-response","164","1101285","0.0-12.0-0.17","060","null","<p style=""text-align: center;"">+</p>","null","fixation","","","","","","","","","","",""
"","","","","","html-keyboard-response","165","1105372","0.0-12.0-1.17","060","4086","
                    <p class=""lotteries"">
                      <span><img src='img/A.png', width=""30""></span>
                      <span><img src='img/D.png', width=""30""></span>
                    </p>
                    <p class=""lotteries"">
                      <span>₪16</span>
                      <span>₪11</span>
                    </p>
                    <p class=""lotteries"">
                      <span>20%</span>
                      <span>25%</span>
                    </p>","a","binary","A","3.2","27","27","0","A","B","20","16","",""
"","","","","","html-keyboard-response","166","1106587","0.0-12.0-0.18","060","null","<p style=""text-align: center;"">+</p>","null","fixation","","","","","","","","","","",""
"","","","","","html-keyboard-response","167","1110052","0.0-12.0-1.18","060","3464","
                    <p class=""lotteries"">
                      <span><img src='img/A.png', width=""30""></span>
                      <span><img src='img/D.png', width=""30""></span>
                    </p>
                    <p class=""lotteries"">
                      <span>₪58</span>
                      <span>₪11</span>
                    </p>
                    <p class=""lotteries"">
                      <span>30%</span>
                      <span>25%</span>
                    </p>","a","binary","A","17.4","30","30","1","A","B","30","58","",""
"","","","","","html-keyboard-response","168","1110917","0.0-12.0-0.19","060","null","<p style=""text-align: center;"">+</p>","null","fixation","","","","","","","","","","",""
"","","","","","html-keyboard-response","169","1113701","0.0-12.0-1.19","060","2782","
                    <p class=""lotteries"">
                      <span><img src='img/A.png', width=""30""></span>
                      <span><img src='img/D.png', width=""30""></span>
                    </p>
                    <p class=""lotteries"">
                      <span>₪16</span>
                      <span>₪4</span>
                    </p>
                    <p class=""lotteries"">
                      <span>20%</span>
                      <span>50%</span>
                    </p>","a","binary","A","3.2","17","17","0","A","B","20","16","",""
"","","","","","html-keyboard-response","170","1114932","0.0-12.0-0.20","060","null","<p style=""text-align: center;"">+</p>","null","fixation","","","","","","","","","","",""
"","","","","","html-keyboard-response","171","1119013","0.0-12.0-1.20","060","4080","
                    <p class=""lotteries"">
                      <span><img src='img/A.png', width=""30""></span>
                      <span><img src='img/D.png', width=""30""></span>
                    </p>
                    <p class=""lotteries"">
                      <span>₪43</span>
                      <span>₪76</span>
                    </p>
                    <p class=""lotteries"">
                      <span>75%</span>
                      <span>65%</span>
                    </p>","a","binary","B","32.25","19","19","0","B","A","75","43","",""
"","","","","","html-keyboard-response","172","1120250","0.0-12.0-0.21","060","null","<p style=""text-align: center;"">+</p>","null","fixation","","","","","","","","","","",""
"","","","","","html-keyboard-response","173","1123084","0.0-12.0-1.21","060","2833","
                    <p class=""lotteries"">
                      <span><img src='img/A.png', width=""30""></span>
                      <span><img src='img/D.png', width=""30""></span>
                    </p>
                    <p class=""lotteries"">
                      <span>₪11</span>
                      <span>₪4</span>
                    </p>
                    <p class=""lotteries"">
                      <span>75%</span>
                      <span>25%</span>
                    </p>","a","binary","A","8.25","29","29","1","A","B","75","11","",""
"","","","","","html-keyboard-response","174","1124062","0.0-12.0-0.22","060","null","<p style=""text-align: center;"">+</p>","null","fixation","","","","","","","","","","",""
"","","","","","html-keyboard-response","175","1126484","0.0-12.0-1.22","060","2421","
                    <p class=""lotteries"">
                      <span><img src='img/A.png', width=""30""></span>
                      <span><img src='img/D.png', width=""30""></span>
                    </p>
                    <p class=""lotteries"">
                      <span>₪79</span>
                      <span>₪43</span>
                    </p>
                    <p class=""lotteries"">
                      <span>40%</span>
                      <span>60%</span>
                    </p>","d","binary","A","25.8","9","9","0","B","A","60","43","",""
"","","","","","html-keyboard-response","176","1127109","0.0-12.0-0.23","060","null","<p style=""text-align: center;"">+</p>","null","fixation","","","","","","","","","","",""
"","","","","","html-keyboard-response","177","1132488","0.0-12.0-1.23","060","5378","
                    <p class=""lotteries"">
                      <span><img src='img/A.png', width=""30""></span>
                      <span><img src='img/D.png', width=""30""></span>
                    </p>
                    <p class=""lotteries"">
                      <span>₪11</span>
                      <span>₪64</span>
                    </p>
                    <p class=""lotteries"">
                      <span>75%</span>
                      <span>25%</span>
                    </p>","d","binary","A","16","6","6","0","B","A","25","64","",""
"","","","","","html-keyboard-response","178","1133532","0.0-12.0-0.24","060","null","<p style=""text-align: center;"">+</p>","null","fixation","","","","","","","","","","",""
"","","","","","html-keyboard-response","179","1137016","0.0-12.0-1.24","060","3475","
                    <p class=""lotteries"">
                      <span><img src='img/A.png', width=""30""></span>
                      <span><img src='img/D.png', width=""30""></span>
                    </p>
                    <p class=""lotteries"">
                      <span>₪39</span>
                      <span>₪64</span>
                    </p>
                    <p class=""lotteries"">
                      <span>65%</span>
                      <span>50%</span>
                    </p>","a","binary","A","25.35","1","1","0","A","B","65","39","",""
"","","","","","html-keyboard-response","180","1137972","0.0-12.0-0.25","060","null","<p style=""text-align: center;"">+</p>","null","fixation","","","","","","","","","","",""
"","","","","","html-keyboard-response","181","1139864","0.0-12.0-1.25","060","1891","
                    <p class=""lotteries"">
                      <span><img src='img/A.png', width=""30""></span>
                      <span><img src='img/D.png', width=""30""></span>
                    </p>
                    <p class=""lotteries"">
                      <span>₪43</span>
                      <span>₪39</span>
                    </p>
                    <p class=""lotteries"">
                      <span>60%</span>
                      <span>65%</span>
                    </p>","d","binary","A","25.35","15","15","0","B","A","65","39","",""
"","","","","","html-keyboard-response","182","1140666","0.0-12.0-0.26","060","null","<p style=""text-align: center;"">+</p>","null","fixation","","","","","","","","","","",""
"","","","","","html-keyboard-response","183","1144304","0.0-12.0-1.26","060","3637","
                    <p class=""lotteries"">
                      <span><img src='img/A.png', width=""30""></span>
                      <span><img src='img/D.png', width=""30""></span>
                    </p>
                    <p class=""lotteries"">
                      <span>₪36</span>
                      <span>₪18</span>
                    </p>
                    <p class=""lotteries"">
                      <span>30%</span>
                      <span>50%</span>
                    </p>","d","binary","B","9","22","22","0","A","B","50","18","",""
"","","","","","html-keyboard-response","184","1144880","0.0-12.0-0.27","060","null","<p style=""text-align: center;"">+</p>","null","fixation","","","","","","","","","","",""
"","","","","","html-keyboard-response","185","1147256","0.0-12.0-1.27","060","2374","
                    <p class=""lotteries"">
                      <span><img src='img/A.png', width=""30""></span>
                      <span><img src='img/D.png', width=""30""></span>
                    </p>
                    <p class=""lotteries"">
                      <span>₪43</span>
                      <span>₪71</span>
                    </p>
                    <p class=""lotteries"">
                      <span>60%</span>
                      <span>45%</span>
                    </p>","a","binary","A","25.8","2","2","0","A","B","60","43","",""
"","","","","","html-keyboard-response","186","1148423","0.0-12.0-0.28","060","null","<p style=""text-align: center;"">+</p>","null","fixation","","","","","","","","","","",""
"","","","","","html-keyboard-response","187","1150764","0.0-12.0-1.28","060","2339","
                    <p class=""lotteries"">
                      <span><img src='img/A.png', width=""30""></span>
                      <span><img src='img/D.png', width=""30""></span>
                    </p>
                    <p class=""lotteries"">
                      <span>₪36</span>
                      <span>₪64</span>
                    </p>
                    <p class=""lotteries"">
                      <span>75%</span>
                      <span>50%</span>
                    </p>","a","binary","B","27","4","4","0","B","A","75","36","",""
"","","","","","html-keyboard-response","188","1152152","0.0-12.0-0.29","060","null","<p style=""text-align: center;"">+</p>","null","fixation","","","","","","","","","","",""
"","","","","","html-keyboard-response","189","1154404","0.0-12.0-1.29","060","2251","
                    <p class=""lotteries"">
                      <span><img src='img/A.png', width=""30""></span>
                      <span><img src='img/D.png', width=""30""></span>
                    </p>
                    <p class=""lotteries"">
                      <span>₪43</span>
                      <span>₪61</span>
                    </p>
                    <p class=""lotteries"">
                      <span>75%</span>
                      <span>55%</span>
                    </p>","a","binary","A","32.25","26","26","0","A","B","75","43","",""
"","","","","","html-keyboard-response","190","1155415","0.0-13.0","060","null","<p style=""text-align: center;"">+</p>","null","fixation","","","","","","","","","","",""
"","","","","","html-keyboard-response","191","1156117","0.0-14.0","060","null","","null","delay","","","","","","","","","","",""
"","","","","","html-keyboard-response","192","1216469","0.0-15.0","060","60349","<h1>הסוף</h1>
        <p>אנו מודים לכם על ההשתתפות!
        <p>כעת נשחק את אחת ההגרלות שבחרתם, באחד משני החלקים.
        <br>אנא קראו לנו להרצת ההגרלות.</p>"," ","","","","","","","","","","","",""
"","","","","","survey","193","1247280","0.0-16.0","060","30737","","{""Gender"":""נקבה"",""Hand"":""ימין"",""Glasses"":""כן"",""Age"":""23""}","","","","","","","","","","","","[]"
