"success","timeout","failed_images","failed_audio","failed_video","trial_type","trial_index","time_elapsed","internal_node_id","subject_id","rt","stimulus","response","part","actual_choice","actual_EV","binary_id","trinary_id","catch","A_key","D_key","choice_prob","choice_amount","chosen_part","accuracy"
"true","false","[]","[]","[]","preload","0","41","0.0-0.0","010","","","","","","","","","","","","","","",""
"","","","","","html-keyboard-response","1","748","0.0-1.0","010","null","","null","delay","","","","","","","","","","",""
"","","","","","html-keyboard-response","2","50861","0.0-2.0","010","50111","
          <h1>חלק 2</h1>
          <p>בחלק זה יוצגו בפניכם שתי הגרלות.
          <br>אתם מתבקשים לבחור את ההגרלה שתרצו להשתתף בה.
          <br>שימו לב! בסוף הניסוי נבחר שלב אחד באקראי ונממש את ההגרלה שבחרתם. כלומר, הבחירה שלכם יכולה להפוך לכסף אמיתי.
          <br><br>לחצו רווח כדי להמשיך.</p>"," ","instructions","","","","","","","","","","",""
"","","","","","html-keyboard-response","3","65465","0.0-3.0","010","13899","
          <p>בואו נתחיל בדוגמה:
          <br>לפניכם שתי הגרלות.
          <br>לחצו 'A' אם אתם מעדיפים את ההגרלה השמאלית
          <br>לחצו 'D' אם אתם מעדיפים את ההגרלה הימנית
          <p class=""lotteries"">
            <span><img src='img/A.png', width=""30""></span>
            <span><img src='img/D.png', width=""30""></span>
          </p>
          <p class=""lotteries"">
            <span>₪39</span>
            <span>₪54</span>
          </p>
          <p class=""lotteries"">
            <span>65%</span>
            <span>35%</span>
          </p>","a","example","","","","","","","","","","",""
"","","","","","html-keyboard-response","4","73216","0.0-4.0","010","7041","<p>יפה מאוד!
                  <br>בחרתם את ההגרלה השמאלית. נשמע נכון?
                  <br>בואו ננסה דוגמה נוספת:</p>
                  <p class=""lotteries"">
                    <span><img src='img/A.png', width=""30""></span>
                    <span><img src='img/D.png', width=""30""></span>
                  </p>
                  <p class=""lotteries"">
                    <span>₪29</span>
                    <span>₪43</span>
                  </p>
                  <p class=""lotteries"">
                    <span>30%</span>
                    <span>65%</span>
                  </p>","d","example","","","","","","","","","","",""
"","","","","","html-keyboard-response","5","78400","0.0-5.0","010","4473","<p>יפה. כעת בחרתם את ההגרלה הימנית. 
                  <br>מיד נתחיל בניסוי.
                  <br>אתם תראו זוגות של הגרלות ותתבקשו לבחור את ההגרלה המועדפת עליכם.
                  <br><br>לחצו רווח כדי להמשיך.</p>"," ","instructions","","","","","","","","","","",""
"","","","","","html-keyboard-response","6","79727","0.0-6.0-0.0","010","null","<p style=""text-align: center;"">+</p>","null","fixation","","","","","","","","","","",""
"","","","","","html-keyboard-response","7","82088","0.0-6.0-1.0","010","2356","
                    <p class=""lotteries"">
                      <span><img src='img/A.png', width=""30""></span>
                      <span><img src='img/D.png', width=""30""></span>
                    </p>
                    <p class=""lotteries"">
                      <span>₪16</span>
                      <span>₪11</span>
                    </p>
                    <p class=""lotteries"">
                      <span>20%</span>
                      <span>25%</span>
                    </p>","a","binary","A","3.2","27","27","0","A","B","20","16","",""
"","","","","","html-keyboard-response","8","82886","0.0-6.0-0.1","010","null","<p style=""text-align: center;"">+</p>","null","fixation","","","","","","","","","","",""
"","","","","","html-keyboard-response","9","86744","0.0-6.0-1.1","010","3856","
                    <p class=""lotteries"">
                      <span><img src='img/A.png', width=""30""></span>
                      <span><img src='img/D.png', width=""30""></span>
                    </p>
                    <p class=""lotteries"">
                      <span>₪71</span>
                      <span>₪79</span>
                    </p>
                    <p class=""lotteries"">
                      <span>75%</span>
                      <span>65%</span>
                    </p>","d","binary","A","51.35","8","8","0","B","A","65","79","",""
"","","","","","html-keyboard-response","10","88193","0.0-6.0-0.2","010","null","<p style=""text-align: center;"">+</p>","null","fixation","","","","","","","","","","",""
"","","","","","html-keyboard-response","11","90712","0.0-6.0-1.2","010","2517","
                    <p class=""lotteries"">
                      <span><img src='img/A.png', width=""30""></span>
                      <span><img src='img/D.png', width=""30""></span>
                    </p>
                    <p class=""lotteries"">
                      <span>₪71</span>
                      <span>₪36</span>
                    </p>
                    <p class=""lotteries"">
                      <span>45%</span>
                      <span>75%</span>
                    </p>","a","binary","A","31.95","16","16","0","A","B","45","71","",""
"","","","","","html-keyboard-response","12","91503","0.0-6.0-0.3","010","null","<p style=""text-align: center;"">+</p>","null","fixation","","","","","","","","","","",""
"","","","","","html-keyboard-response","13","95264","0.0-6.0-1.3","010","3759","
                    <p class=""lotteries"">
                      <span><img src='img/A.png', width=""30""></span>
                      <span><img src='img/D.png', width=""30""></span>
                    </p>
                    <p class=""lotteries"">
                      <span>₪39</span>
                      <span>₪64</span>
                    </p>
                    <p class=""lotteries"">
                      <span>65%</span>
                      <span>50%</span>
                    </p>","d","binary","B","32","1","1","0","A","B","50","64","",""
"","","","","","html-keyboard-response","14","96695","0.0-6.0-0.4","010","null","<p style=""text-align: center;"">+</p>","null","fixation","","","","","","","","","","",""
"","","","","","html-keyboard-response","15","98672","0.0-6.0-1.4","010","1975","
                    <p class=""lotteries"">
                      <span><img src='img/A.png', width=""30""></span>
                      <span><img src='img/D.png', width=""30""></span>
                    </p>
                    <p class=""lotteries"">
                      <span>₪58</span>
                      <span>₪36</span>
                    </p>
                    <p class=""lotteries"">
                      <span>40%</span>
                      <span>75%</span>
                    </p>","d","binary","B","27","13","13","0","A","B","75","36","",""
"","","","","","html-keyboard-response","16","99954","0.0-6.0-0.5","010","null","<p style=""text-align: center;"">+</p>","null","fixation","","","","","","","","","","",""
"","","","","","html-keyboard-response","17","102448","0.0-6.0-1.5","010","2492","
                    <p class=""lotteries"">
                      <span><img src='img/A.png', width=""30""></span>
                      <span><img src='img/D.png', width=""30""></span>
                    </p>
                    <p class=""lotteries"">
                      <span>₪11</span>
                      <span>₪4</span>
                    </p>
                    <p class=""lotteries"">
                      <span>25%</span>
                      <span>75%</span>
                    </p>","d","binary","B","3","12","12","0","A","B","75","4","",""
"","","","","","html-keyboard-response","18","103534","0.0-6.0-0.6","010","null","<p style=""text-align: center;"">+</p>","null","fixation","","","","","","","","","","",""
"","","","","","html-keyboard-response","19","106184","0.0-6.0-1.6","010","2648","
                    <p class=""lotteries"">
                      <span><img src='img/A.png', width=""30""></span>
                      <span><img src='img/D.png', width=""30""></span>
                    </p>
                    <p class=""lotteries"">
                      <span>₪4</span>
                      <span>₪11</span>
                    </p>
                    <p class=""lotteries"">
                      <span>25%</span>
                      <span>75%</span>
                    </p>","d","binary","A","8.25","29","29","1","B","A","75","11","",""
"","","","","","html-keyboard-response","20","107299","0.0-6.0-0.7","010","null","<p style=""text-align: center;"">+</p>","null","fixation","","","","","","","","","","",""
"","","","","","html-keyboard-response","21","110856","0.0-6.0-1.7","010","3555","
                    <p class=""lotteries"">
                      <span><img src='img/A.png', width=""30""></span>
                      <span><img src='img/D.png', width=""30""></span>
                    </p>
                    <p class=""lotteries"">
                      <span>₪18</span>
                      <span>₪36</span>
                    </p>
                    <p class=""lotteries"">
                      <span>50%</span>
                      <span>30%</span>
                    </p>","a","binary","B","9","22","22","0","B","A","50","18","",""
"","","","","","html-keyboard-response","22","112308","0.0-6.0-0.8","010","null","<p style=""text-align: center;"">+</p>","null","fixation","","","","","","","","","","",""
"","","","","","html-keyboard-response","23","116416","0.0-6.0-1.8","010","4107","
                    <p class=""lotteries"">
                      <span><img src='img/A.png', width=""30""></span>
                      <span><img src='img/D.png', width=""30""></span>
                    </p>
                    <p class=""lotteries"">
                      <span>₪18</span>
                      <span>₪11</span>
                    </p>
                    <p class=""lotteries"">
                      <span>25%</span>
                      <span>45%</span>
                    </p>","d","binary","B","4.95","14","14","0","A","B","45","11","",""
"","","","","","html-keyboard-response","24","117266","0.0-6.0-0.9","010","null","<p style=""text-align: center;"">+</p>","null","fixation","","","","","","","","","","",""
"","","","","","html-keyboard-response","25","119240","0.0-6.0-1.9","010","1973","
                    <p class=""lotteries"">
                      <span><img src='img/A.png', width=""30""></span>
                      <span><img src='img/D.png', width=""30""></span>
                    </p>
                    <p class=""lotteries"">
                      <span>₪58</span>
                      <span>₪64</span>
                    </p>
                    <p class=""lotteries"">
                      <span>40%</span>
                      <span>25%</span>
                    </p>","a","binary","B","23.2","21","21","0","B","A","40","58","",""
"","","","","","html-keyboard-response","26","120129","0.0-6.0-0.10","010","null","<p style=""text-align: center;"">+</p>","null","fixation","","","","","","","","","","",""
"","","","","","html-keyboard-response","27","123344","0.0-6.0-1.10","010","3214","
                    <p class=""lotteries"">
                      <span><img src='img/A.png', width=""30""></span>
                      <span><img src='img/D.png', width=""30""></span>
                    </p>
                    <p class=""lotteries"">
                      <span>₪43</span>
                      <span>₪39</span>
                    </p>
                    <p class=""lotteries"">
                      <span>60%</span>
                      <span>65%</span>
                    </p>","d","binary","A","25.35","15","15","0","B","A","65","39","",""
"","","","","","html-keyboard-response","28","124230","0.0-6.0-0.11","010","null","<p style=""text-align: center;"">+</p>","null","fixation","","","","","","","","","","",""
"","","","","","html-keyboard-response","29","127962","0.0-6.0-1.11","010","3735","
                    <p class=""lotteries"">
                      <span><img src='img/A.png', width=""30""></span>
                      <span><img src='img/D.png', width=""30""></span>
                    </p>
                    <p class=""lotteries"">
                      <span>₪43</span>
                      <span>₪61</span>
                    </p>
                    <p class=""lotteries"">
                      <span>75%</span>
                      <span>55%</span>
                    </p>","d","binary","B","33.55","26","26","0","A","B","55","61","",""
"","","","","","html-keyboard-response","30","129311","0.0-6.0-0.12","010","null","<p style=""text-align: center;"">+</p>","null","fixation","","","","","","","","","","",""
"","","","","","html-keyboard-response","31","131642","0.0-6.0-1.12","010","2329","
                    <p class=""lotteries"">
                      <span><img src='img/A.png', width=""30""></span>
                      <span><img src='img/D.png', width=""30""></span>
                    </p>
                    <p class=""lotteries"">
                      <span>₪58</span>
                      <span>₪39</span>
                    </p>
                    <p class=""lotteries"">
                      <span>45%</span>
                      <span>60%</span>
                    </p>","a","binary","A","26.1","25","25","0","A","B","45","58","",""
"","","","","","html-keyboard-response","32","132446","0.0-6.0-0.13","010","null","<p style=""text-align: center;"">+</p>","null","fixation","","","","","","","","","","",""
"","","","","","html-keyboard-response","33","134363","0.0-6.0-1.13","010","1915","
                    <p class=""lotteries"">
                      <span><img src='img/A.png', width=""30""></span>
                      <span><img src='img/D.png', width=""30""></span>
                    </p>
                    <p class=""lotteries"">
                      <span>₪43</span>
                      <span>₪76</span>
                    </p>
                    <p class=""lotteries"">
                      <span>75%</span>
                      <span>65%</span>
                    </p>","d","binary","B","49.4","24","24","0","A","B","65","76","",""
"","","","","","html-keyboard-response","34","135162","0.0-6.0-0.14","010","null","<p style=""text-align: center;"">+</p>","null","fixation","","","","","","","","","","",""
"","","","","","html-keyboard-response","35","138794","0.0-6.0-1.14","010","3630","
                    <p class=""lotteries"">
                      <span><img src='img/A.png', width=""30""></span>
                      <span><img src='img/D.png', width=""30""></span>
                    </p>
                    <p class=""lotteries"">
                      <span>₪4</span>
                      <span>₪16</span>
                    </p>
                    <p class=""lotteries"">
                      <span>50%</span>
                      <span>20%</span>
                    </p>","d","binary","A","3.2","17","17","0","B","A","20","16","",""
"","","","","","html-keyboard-response","36","139659","0.0-6.0-0.15","010","null","<p style=""text-align: center;"">+</p>","null","fixation","","","","","","","","","","",""
"","","","","","html-keyboard-response","37","142090","0.0-6.0-1.15","010","2429","
                    <p class=""lotteries"">
                      <span><img src='img/A.png', width=""30""></span>
                      <span><img src='img/D.png', width=""30""></span>
                    </p>
                    <p class=""lotteries"">
                      <span>₪11</span>
                      <span>₪64</span>
                    </p>
                    <p class=""lotteries"">
                      <span>75%</span>
                      <span>25%</span>
                    </p>","d","binary","A","16","6","6","0","B","A","25","64","",""
"","","","","","html-keyboard-response","38","143240","0.0-6.0-0.16","010","null","<p style=""text-align: center;"">+</p>","null","fixation","","","","","","","","","","",""
"","","","","","html-keyboard-response","39","146450","0.0-6.0-1.16","010","3209","
                    <p class=""lotteries"">
                      <span><img src='img/A.png', width=""30""></span>
                      <span><img src='img/D.png', width=""30""></span>
                    </p>
                    <p class=""lotteries"">
                      <span>₪36</span>
                      <span>₪64</span>
                    </p>
                    <p class=""lotteries"">
                      <span>75%</span>
                      <span>50%</span>
                    </p>","d","binary","A","32","4","4","0","B","A","50","64","",""
"","","","","","html-keyboard-response","40","147651","0.0-6.0-0.17","010","null","<p style=""text-align: center;"">+</p>","null","fixation","","","","","","","","","","",""
"","","","","","html-keyboard-response","41","150083","0.0-6.0-1.17","010","2430","
                    <p class=""lotteries"">
                      <span><img src='img/A.png', width=""30""></span>
                      <span><img src='img/D.png', width=""30""></span>
                    </p>
                    <p class=""lotteries"">
                      <span>₪71</span>
                      <span>₪43</span>
                    </p>
                    <p class=""lotteries"">
                      <span>45%</span>
                      <span>60%</span>
                    </p>","a","binary","B","31.95","2","2","0","B","A","45","71","",""
"","","","","","html-keyboard-response","42","151566","0.0-6.0-0.18","010","null","<p style=""text-align: center;"">+</p>","null","fixation","","","","","","","","","","",""
"","","","","","html-keyboard-response","43","153514","0.0-6.0-1.18","010","1946","
                    <p class=""lotteries"">
                      <span><img src='img/A.png', width=""30""></span>
                      <span><img src='img/D.png', width=""30""></span>
                    </p>
                    <p class=""lotteries"">
                      <span>₪71</span>
                      <span>₪36</span>
                    </p>
                    <p class=""lotteries"">
                      <span>55%</span>
                      <span>75%</span>
                    </p>","a","binary","B","39.05","5","5","0","B","A","55","71","",""
"","","","","","html-keyboard-response","44","154438","0.0-6.0-0.19","010","null","<p style=""text-align: center;"">+</p>","null","fixation","","","","","","","","","","",""
"","","","","","html-keyboard-response","45","157082","0.0-6.0-1.19","010","2642","
                    <p class=""lotteries"">
                      <span><img src='img/A.png', width=""30""></span>
                      <span><img src='img/D.png', width=""30""></span>
                    </p>
                    <p class=""lotteries"">
                      <span>₪79</span>
                      <span>₪43</span>
                    </p>
                    <p class=""lotteries"">
                      <span>40%</span>
                      <span>60%</span>
                    </p>","a","binary","B","31.6","9","9","0","B","A","40","79","",""
"","","","","","html-keyboard-response","46","157755","0.0-6.0-0.20","010","null","<p style=""text-align: center;"">+</p>","null","fixation","","","","","","","","","","",""
"","","","","","html-keyboard-response","47","159794","0.0-6.0-1.20","010","2037","
                    <p class=""lotteries"">
                      <span><img src='img/A.png', width=""30""></span>
                      <span><img src='img/D.png', width=""30""></span>
                    </p>
                    <p class=""lotteries"">
                      <span>₪71</span>
                      <span>₪11</span>
                    </p>
                    <p class=""lotteries"">
                      <span>55%</span>
                      <span>75%</span>
                    </p>","a","binary","A","39.05","18","18","0","A","B","55","71","",""
"","","","","","html-keyboard-response","48","161128","0.0-6.0-0.21","010","null","<p style=""text-align: center;"">+</p>","null","fixation","","","","","","","","","","",""
"","","","","","html-keyboard-response","49","163418","0.0-6.0-1.21","010","2288","
                    <p class=""lotteries"">
                      <span><img src='img/A.png', width=""30""></span>
                      <span><img src='img/D.png', width=""30""></span>
                    </p>
                    <p class=""lotteries"">
                      <span>₪18</span>
                      <span>₪11</span>
                    </p>
                    <p class=""lotteries"">
                      <span>50%</span>
                      <span>25%</span>
                    </p>","a","binary","A","9","28","28","1","A","B","50","18","",""
"","","","","","html-keyboard-response","50","164697","0.0-6.0-0.22","010","null","<p style=""text-align: center;"">+</p>","null","fixation","","","","","","","","","","",""
"","","","","","html-keyboard-response","51","166850","0.0-6.0-1.22","010","2151","
                    <p class=""lotteries"">
                      <span><img src='img/A.png', width=""30""></span>
                      <span><img src='img/D.png', width=""30""></span>
                    </p>
                    <p class=""lotteries"">
                      <span>₪61</span>
                      <span>₪43</span>
                    </p>
                    <p class=""lotteries"">
                      <span>55%</span>
                      <span>60%</span>
                    </p>","a","binary","B","33.55","7","7","0","B","A","55","61","",""
"","","","","","html-keyboard-response","52","167693","0.0-6.0-0.23","010","null","<p style=""text-align: center;"">+</p>","null","fixation","","","","","","","","","","",""
"","","","","","html-keyboard-response","53","171050","0.0-6.0-1.23","010","3355","
                    <p class=""lotteries"">
                      <span><img src='img/A.png', width=""30""></span>
                      <span><img src='img/D.png', width=""30""></span>
                    </p>
                    <p class=""lotteries"">
                      <span>₪4</span>
                      <span>₪18</span>
                    </p>
                    <p class=""lotteries"">
                      <span>75%</span>
                      <span>25%</span>
                    </p>","d","binary","A","4.5","23","23","0","B","A","25","18","",""
"","","","","","html-keyboard-response","54","172048","0.0-6.0-0.24","010","null","<p style=""text-align: center;"">+</p>","null","fixation","","","","","","","","","","",""
"","","","","","html-keyboard-response","55","174514","0.0-6.0-1.24","010","2464","
                    <p class=""lotteries"">
                      <span><img src='img/A.png', width=""30""></span>
                      <span><img src='img/D.png', width=""30""></span>
                    </p>
                    <p class=""lotteries"">
                      <span>₪76</span>
                      <span>₪43</span>
                    </p>
                    <p class=""lotteries"">
                      <span>65%</span>
                      <span>75%</span>
                    </p>","a","binary","A","49.4","19","19","0","A","B","65","76","",""
"","","","","","html-keyboard-response","56","175516","0.0-6.0-0.25","010","null","<p style=""text-align: center;"">+</p>","null","fixation","","","","","","","","","","",""
"","","","","","html-keyboard-response","57","178610","0.0-6.0-1.25","010","3092","
                    <p class=""lotteries"">
                      <span><img src='img/A.png', width=""30""></span>
                      <span><img src='img/D.png', width=""30""></span>
                    </p>
                    <p class=""lotteries"">
                      <span>₪4</span>
                      <span>₪36</span>
                    </p>
                    <p class=""lotteries"">
                      <span>75%</span>
                      <span>30%</span>
                    </p>","d","binary","A","10.8","20","20","0","B","A","30","36","",""
"","","","","","html-keyboard-response","58","179756","0.0-6.0-0.26","010","null","<p style=""text-align: center;"">+</p>","null","fixation","","","","","","","","","","",""
"","","","","","html-keyboard-response","59","182282","0.0-6.0-1.26","010","2525","
                    <p class=""lotteries"">
                      <span><img src='img/A.png', width=""30""></span>
                      <span><img src='img/D.png', width=""30""></span>
                    </p>
                    <p class=""lotteries"">
                      <span>₪61</span>
                      <span>₪43</span>
                    </p>
                    <p class=""lotteries"">
                      <span>45%</span>
                      <span>75%</span>
                    </p>","d","binary","B","32.25","11","11","0","A","B","75","43","",""
"","","","","","html-keyboard-response","60","183734","0.0-6.0-0.27","010","null","<p style=""text-align: center;"">+</p>","null","fixation","","","","","","","","","","",""
"","","","","","html-keyboard-response","61","186162","0.0-6.0-1.27","010","2427","
                    <p class=""lotteries"">
                      <span><img src='img/A.png', width=""30""></span>
                      <span><img src='img/D.png', width=""30""></span>
                    </p>
                    <p class=""lotteries"">
                      <span>₪36</span>
                      <span>₪64</span>
                    </p>
                    <p class=""lotteries"">
                      <span>70%</span>
                      <span>50%</span>
                    </p>","d","binary","B","32","3","3","0","A","B","50","64","",""
"","","","","","html-keyboard-response","62","187666","0.0-6.0-0.28","010","null","<p style=""text-align: center;"">+</p>","null","fixation","","","","","","","","","","",""
"","","","","","html-keyboard-response","63","189878","0.0-6.0-1.28","010","2215","
                    <p class=""lotteries"">
                      <span><img src='img/A.png', width=""30""></span>
                      <span><img src='img/D.png', width=""30""></span>
                    </p>
                    <p class=""lotteries"">
                      <span>₪58</span>
                      <span>₪11</span>
                    </p>
                    <p class=""lotteries"">
                      <span>30%</span>
                      <span>25%</span>
                    </p>","a","binary","A","17.4","30","30","1","A","B","30","58","",""
"","","","","","html-keyboard-response","64","190862","0.0-6.0-0.29","010","null","<p style=""text-align: center;"">+</p>","null","fixation","","","","","","","","","","",""
"","","","","","html-keyboard-response","65","194254","0.0-6.0-1.29","010","3391","
                    <p class=""lotteries"">
                      <span><img src='img/A.png', width=""30""></span>
                      <span><img src='img/D.png', width=""30""></span>
                    </p>
                    <p class=""lotteries"">
                      <span>₪61</span>
                      <span>₪36</span>
                    </p>
                    <p class=""lotteries"">
                      <span>45%</span>
                      <span>70%</span>
                    </p>","d","binary","B","25.2","10","10","0","A","B","70","36","",""
"","","","","","html-keyboard-response","66","195260","0.0-7.0","010","null","<p style=""text-align: center;"">+</p>","null","fixation","","","","","","","","","","",""
"","","","","","html-keyboard-response","67","196870","0.0-8.0","010","1607","<p>הפסקה.
          <br>לחצו על רווח כדי להמשיך.</p>"," ","scan_wait","","","","","","","","","","",""
"","","","","","html-keyboard-response","68","197830","0.0-9.0-0.0","010","null","<p style=""text-align: center;"">+</p>","null","fixation","","","","","","","","","","",""
"","","","","","html-keyboard-response","69","199046","0.0-9.0-1.0","010","1215","
                    <p class=""lotteries"">
                      <span><img src='img/A.png', width=""30""></span>
                      <span><img src='img/D.png', width=""30""></span>
                    </p>
                    <p class=""lotteries"">
                      <span>₪76</span>
                      <span>₪43</span>
                    </p>
                    <p class=""lotteries"">
                      <span>65%</span>
                      <span>75%</span>
                    </p>","a","binary","A","49.4","19","19","0","A","B","65","76","",""
"","","","","","html-keyboard-response","70","199857","0.0-9.0-0.1","010","null","<p style=""text-align: center;"">+</p>","null","fixation","","","","","","","","","","",""
"","","","","","html-keyboard-response","71","202599","0.0-9.0-1.1","010","2740","
                    <p class=""lotteries"">
                      <span><img src='img/A.png', width=""30""></span>
                      <span><img src='img/D.png', width=""30""></span>
                    </p>
                    <p class=""lotteries"">
                      <span>₪16</span>
                      <span>₪11</span>
                    </p>
                    <p class=""lotteries"">
                      <span>20%</span>
                      <span>25%</span>
                    </p>","a","binary","A","3.2","27","27","0","A","B","20","16","",""
"","","","","","html-keyboard-response","72","203655","0.0-9.0-0.2","010","null","<p style=""text-align: center;"">+</p>","null","fixation","","","","","","","","","","",""
"","","","","","html-keyboard-response","73","205806","0.0-9.0-1.2","010","2150","
                    <p class=""lotteries"">
                      <span><img src='img/A.png', width=""30""></span>
                      <span><img src='img/D.png', width=""30""></span>
                    </p>
                    <p class=""lotteries"">
                      <span>₪76</span>
                      <span>₪43</span>
                    </p>
                    <p class=""lotteries"">
                      <span>65%</span>
                      <span>75%</span>
                    </p>","a","binary","B","49.4","24","24","0","B","A","65","76","",""
"","","","","","html-keyboard-response","74","207280","0.0-9.0-0.3","010","null","<p style=""text-align: center;"">+</p>","null","fixation","","","","","","","","","","",""
"","","","","","html-keyboard-response","75","209134","0.0-9.0-1.3","010","1853","
                    <p class=""lotteries"">
                      <span><img src='img/A.png', width=""30""></span>
                      <span><img src='img/D.png', width=""30""></span>
                    </p>
                    <p class=""lotteries"">
                      <span>₪11</span>
                      <span>₪64</span>
                    </p>
                    <p class=""lotteries"">
                      <span>75%</span>
                      <span>25%</span>
                    </p>","d","binary","A","16","6","6","0","B","A","25","64","",""
"","","","","","html-keyboard-response","76","209705","0.0-9.0-0.4","010","null","<p style=""text-align: center;"">+</p>","null","fixation","","","","","","","","","","",""
"","","","","","html-keyboard-response","77","213494","0.0-9.0-1.4","010","3787","
                    <p class=""lotteries"">
                      <span><img src='img/A.png', width=""30""></span>
                      <span><img src='img/D.png', width=""30""></span>
                    </p>
                    <p class=""lotteries"">
                      <span>₪36</span>
                      <span>₪58</span>
                    </p>
                    <p class=""lotteries"">
                      <span>75%</span>
                      <span>40%</span>
                    </p>","d","binary","A","23.2","13","13","0","B","A","40","58","",""
"","","","","","html-keyboard-response","78","214742","0.0-9.0-0.5","010","null","<p style=""text-align: center;"">+</p>","null","fixation","","","","","","","","","","",""
"","","","","","html-keyboard-response","79","216742","0.0-9.0-1.5","010","1998","
                    <p class=""lotteries"">
                      <span><img src='img/A.png', width=""30""></span>
                      <span><img src='img/D.png', width=""30""></span>
                    </p>
                    <p class=""lotteries"">
                      <span>₪36</span>
                      <span>₪64</span>
                    </p>
                    <p class=""lotteries"">
                      <span>75%</span>
                      <span>50%</span>
                    </p>","d","binary","A","32","4","4","0","B","A","50","64","",""
"","","","","","html-keyboard-response","80","218088","0.0-9.0-0.6","010","null","<p style=""text-align: center;"">+</p>","null","fixation","","","","","","","","","","",""
"","","","","","html-keyboard-response","81","220126","0.0-9.0-1.6","010","2036","
                    <p class=""lotteries"">
                      <span><img src='img/A.png', width=""30""></span>
                      <span><img src='img/D.png', width=""30""></span>
                    </p>
                    <p class=""lotteries"">
                      <span>₪61</span>
                      <span>₪43</span>
                    </p>
                    <p class=""lotteries"">
                      <span>45%</span>
                      <span>75%</span>
                    </p>","d","binary","B","32.25","11","11","0","A","B","75","43","",""
"","","","","","html-keyboard-response","82","221266","0.0-9.0-0.7","010","null","<p style=""text-align: center;"">+</p>","null","fixation","","","","","","","","","","",""
"","","","","","html-keyboard-response","83","224782","0.0-9.0-1.7","010","3514","
                    <p class=""lotteries"">
                      <span><img src='img/A.png', width=""30""></span>
                      <span><img src='img/D.png', width=""30""></span>
                    </p>
                    <p class=""lotteries"">
                      <span>₪11</span>
                      <span>₪18</span>
                    </p>
                    <p class=""lotteries"">
                      <span>45%</span>
                      <span>25%</span>
                    </p>","d","binary","A","4.5","14","14","0","B","A","25","18","",""
"","","","","","html-keyboard-response","84","225994","0.0-9.0-0.8","010","null","<p style=""text-align: center;"">+</p>","null","fixation","","","","","","","","","","",""
"","","","","","html-keyboard-response","85","228470","0.0-9.0-1.8","010","2475","
                    <p class=""lotteries"">
                      <span><img src='img/A.png', width=""30""></span>
                      <span><img src='img/D.png', width=""30""></span>
                    </p>
                    <p class=""lotteries"">
                      <span>₪4</span>
                      <span>₪18</span>
                    </p>
                    <p class=""lotteries"">
                      <span>75%</span>
                      <span>25%</span>
                    </p>","d","binary","A","4.5","23","23","0","B","A","25","18","",""
"","","","","","html-keyboard-response","86","229086","0.0-9.0-0.9","010","null","<p style=""text-align: center;"">+</p>","null","fixation","","","","","","","","","","",""
"","","","","","html-keyboard-response","87","231046","0.0-9.0-1.9","010","1958","
                    <p class=""lotteries"">
                      <span><img src='img/A.png', width=""30""></span>
                      <span><img src='img/D.png', width=""30""></span>
                    </p>
                    <p class=""lotteries"">
                      <span>₪4</span>
                      <span>₪11</span>
                    </p>
                    <p class=""lotteries"">
                      <span>75%</span>
                      <span>25%</span>
                    </p>","d","binary","A","2.75","12","12","0","B","A","25","11","",""
"","","","","","html-keyboard-response","88","232434","0.0-9.0-0.10","010","null","<p style=""text-align: center;"">+</p>","null","fixation","","","","","","","","","","",""
"","","","","","html-keyboard-response","89","235886","0.0-9.0-1.10","010","3450","
                    <p class=""lotteries"">
                      <span><img src='img/A.png', width=""30""></span>
                      <span><img src='img/D.png', width=""30""></span>
                    </p>
                    <p class=""lotteries"">
                      <span>₪18</span>
                      <span>₪36</span>
                    </p>
                    <p class=""lotteries"">
                      <span>50%</span>
                      <span>30%</span>
                    </p>","d","binary","A","10.8","22","22","0","B","A","30","36","",""
"","","","","","html-keyboard-response","90","237329","0.0-9.0-0.11","010","null","<p style=""text-align: center;"">+</p>","null","fixation","","","","","","","","","","",""
"","","","","","html-keyboard-response","91","241214","0.0-9.0-1.11","010","3884","
                    <p class=""lotteries"">
                      <span><img src='img/A.png', width=""30""></span>
                      <span><img src='img/D.png', width=""30""></span>
                    </p>
                    <p class=""lotteries"">
                      <span>₪36</span>
                      <span>₪64</span>
                    </p>
                    <p class=""lotteries"">
                      <span>70%</span>
                      <span>50%</span>
                    </p>","d","binary","B","32","3","3","0","A","B","50","64","",""
"","","","","","html-keyboard-response","92","242036","0.0-9.0-0.12","010","null","<p style=""text-align: center;"">+</p>","null","fixation","","","","","","","","","","",""
"","","","","","html-keyboard-response","93","243838","0.0-9.0-1.12","010","1800","
                    <p class=""lotteries"">
                      <span><img src='img/A.png', width=""30""></span>
                      <span><img src='img/D.png', width=""30""></span>
                    </p>
                    <p class=""lotteries"">
                      <span>₪43</span>
                      <span>₪61</span>
                    </p>
                    <p class=""lotteries"">
                      <span>60%</span>
                      <span>55%</span>
                    </p>","d","binary","B","33.55","7","7","0","A","B","55","61","",""
"","","","","","html-keyboard-response","94","245015","0.0-9.0-0.13","010","null","<p style=""text-align: center;"">+</p>","null","fixation","","","","","","","","","","",""
"","","","","","html-keyboard-response","95","248686","0.0-9.0-1.13","010","3669","
                    <p class=""lotteries"">
                      <span><img src='img/A.png', width=""30""></span>
                      <span><img src='img/D.png', width=""30""></span>
                    </p>
                    <p class=""lotteries"">
                      <span>₪64</span>
                      <span>₪58</span>
                    </p>
                    <p class=""lotteries"">
                      <span>25%</span>
                      <span>40%</span>
                    </p>","d","binary","B","23.2","21","21","0","A","B","40","58","",""
"","","","","","html-keyboard-response","96","249833","0.0-9.0-0.14","010","null","<p style=""text-align: center;"">+</p>","null","fixation","","","","","","","","","","",""
"","","","","","html-keyboard-response","97","253324","0.0-9.0-1.14","010","3483","
                    <p class=""lotteries"">
                      <span><img src='img/A.png', width=""30""></span>
                      <span><img src='img/D.png', width=""30""></span>
                    </p>
                    <p class=""lotteries"">
                      <span>₪64</span>
                      <span>₪39</span>
                    </p>
                    <p class=""lotteries"">
                      <span>50%</span>
                      <span>65%</span>
                    </p>","a","binary","B","32","1","1","0","B","A","50","64","",""
"","","","","","html-keyboard-response","98","254159","0.0-9.0-0.15","010","null","<p style=""text-align: center;"">+</p>","null","fixation","","","","","","","","","","",""
"","","","","","html-keyboard-response","99","256004","0.0-9.0-1.15","010","1843","
                    <p class=""lotteries"">
                      <span><img src='img/A.png', width=""30""></span>
                      <span><img src='img/D.png', width=""30""></span>
                    </p>
                    <p class=""lotteries"">
                      <span>₪16</span>
                      <span>₪4</span>
                    </p>
                    <p class=""lotteries"">
                      <span>20%</span>
                      <span>50%</span>
                    </p>","a","binary","A","3.2","17","17","0","A","B","20","16","",""
"","","","","","html-keyboard-response","100","257296","0.0-9.0-0.16","010","null","<p style=""text-align: center;"">+</p>","null","fixation","","","","","","","","","","",""
"","","","","","html-keyboard-response","101","258715","0.0-9.0-1.16","010","1418","
                    <p class=""lotteries"">
                      <span><img src='img/A.png', width=""30""></span>
                      <span><img src='img/D.png', width=""30""></span>
                    </p>
                    <p class=""lotteries"">
                      <span>₪36</span>
                      <span>₪71</span>
                    </p>
                    <p class=""lotteries"">
                      <span>75%</span>
                      <span>55%</span>
                    </p>","d","binary","B","39.05","5","5","0","A","B","55","71","",""
"","","","","","html-keyboard-response","102","259684","0.0-9.0-0.17","010","null","<p style=""text-align: center;"">+</p>","null","fixation","","","","","","","","","","",""
"","","","","","html-keyboard-response","103","262220","0.0-9.0-1.17","010","2535","
                    <p class=""lotteries"">
                      <span><img src='img/A.png', width=""30""></span>
                      <span><img src='img/D.png', width=""30""></span>
                    </p>
                    <p class=""lotteries"">
                      <span>₪58</span>
                      <span>₪39</span>
                    </p>
                    <p class=""lotteries"">
                      <span>45%</span>
                      <span>60%</span>
                    </p>","a","binary","A","26.1","25","25","0","A","B","45","58","",""
"","","","","","html-keyboard-response","104","262857","0.0-9.0-0.18","010","null","<p style=""text-align: center;"">+</p>","null","fixation","","","","","","","","","","",""
"","","","","","html-keyboard-response","105","265036","0.0-9.0-1.18","010","2178","
                    <p class=""lotteries"">
                      <span><img src='img/A.png', width=""30""></span>
                      <span><img src='img/D.png', width=""30""></span>
                    </p>
                    <p class=""lotteries"">
                      <span>₪71</span>
                      <span>₪43</span>
                    </p>
                    <p class=""lotteries"">
                      <span>45%</span>
                      <span>60%</span>
                    </p>","a","binary","B","31.95","2","2","0","B","A","45","71","",""
"","","","","","html-keyboard-response","106","266047","0.0-9.0-0.19","010","null","<p style=""text-align: center;"">+</p>","null","fixation","","","","","","","","","","",""
"","","","","","html-keyboard-response","107","268276","0.0-9.0-1.19","010","2228","
                    <p class=""lotteries"">
                      <span><img src='img/A.png', width=""30""></span>
                      <span><img src='img/D.png', width=""30""></span>
                    </p>
                    <p class=""lotteries"">
                      <span>₪36</span>
                      <span>₪4</span>
                    </p>
                    <p class=""lotteries"">
                      <span>30%</span>
                      <span>75%</span>
                    </p>","a","binary","A","10.8","20","20","0","A","B","30","36","",""
"","","","","","html-keyboard-response","108","269063","0.0-9.0-0.20","010","null","<p style=""text-align: center;"">+</p>","null","fixation","","","","","","","","","","",""
"","","","","","html-keyboard-response","109","270589","0.0-9.0-1.20","010","1524","
                    <p class=""lotteries"">
                      <span><img src='img/A.png', width=""30""></span>
                      <span><img src='img/D.png', width=""30""></span>
                    </p>
                    <p class=""lotteries"">
                      <span>₪36</span>
                      <span>₪71</span>
                    </p>
                    <p class=""lotteries"">
                      <span>75%</span>
                      <span>45%</span>
                    </p>","d","binary","A","31.95","16","16","0","B","A","45","71","",""
"","","","","","html-keyboard-response","110","271785","0.0-9.0-0.21","010","null","<p style=""text-align: center;"">+</p>","null","fixation","","","","","","","","","","",""
"","","","","","html-keyboard-response","111","273708","0.0-9.0-1.21","010","1922","
                    <p class=""lotteries"">
                      <span><img src='img/A.png', width=""30""></span>
                      <span><img src='img/D.png', width=""30""></span>
                    </p>
                    <p class=""lotteries"">
                      <span>₪71</span>
                      <span>₪79</span>
                    </p>
                    <p class=""lotteries"">
                      <span>75%</span>
                      <span>65%</span>
                    </p>","a","binary","B","53.25","8","8","0","B","A","75","71","",""
"","","","","","html-keyboard-response","112","275091","0.0-9.0-0.22","010","null","<p style=""text-align: center;"">+</p>","null","fixation","","","","","","","","","","",""
"","","","","","html-keyboard-response","113","277596","0.0-9.0-1.22","010","2504","
                    <p class=""lotteries"">
                      <span><img src='img/A.png', width=""30""></span>
                      <span><img src='img/D.png', width=""30""></span>
                    </p>
                    <p class=""lotteries"">
                      <span>₪58</span>
                      <span>₪11</span>
                    </p>
                    <p class=""lotteries"">
                      <span>30%</span>
                      <span>25%</span>
                    </p>","a","binary","A","17.4","30","30","1","A","B","30","58","",""
"","","","","","html-keyboard-response","114","279037","0.0-9.0-0.23","010","null","<p style=""text-align: center;"">+</p>","null","fixation","","","","","","","","","","",""
"","","","","","html-keyboard-response","115","283164","0.0-9.0-1.23","010","4126","
                    <p class=""lotteries"">
                      <span><img src='img/A.png', width=""30""></span>
                      <span><img src='img/D.png', width=""30""></span>
                    </p>
                    <p class=""lotteries"">
                      <span>₪43</span>
                      <span>₪61</span>
                    </p>
                    <p class=""lotteries"">
                      <span>75%</span>
                      <span>55%</span>
                    </p>","d","binary","B","33.55","26","26","0","A","B","55","61","",""
"","","","","","html-keyboard-response","116","284118","0.0-9.0-0.24","010","null","<p style=""text-align: center;"">+</p>","null","fixation","","","","","","","","","","",""
"","","","","","html-keyboard-response","117","285796","0.0-9.0-1.24","010","1676","
                    <p class=""lotteries"">
                      <span><img src='img/A.png', width=""30""></span>
                      <span><img src='img/D.png', width=""30""></span>
                    </p>
                    <p class=""lotteries"">
                      <span>₪11</span>
                      <span>₪4</span>
                    </p>
                    <p class=""lotteries"">
                      <span>75%</span>
                      <span>25%</span>
                    </p>","a","binary","A","8.25","29","29","1","A","B","75","11","",""
"","","","","","html-keyboard-response","118","286486","0.0-9.0-0.25","010","null","<p style=""text-align: center;"">+</p>","null","fixation","","","","","","","","","","",""
"","","","","","html-keyboard-response","119","288988","0.0-9.0-1.25","010","2501","
                    <p class=""lotteries"">
                      <span><img src='img/A.png', width=""30""></span>
                      <span><img src='img/D.png', width=""30""></span>
                    </p>
                    <p class=""lotteries"">
                      <span>₪39</span>
                      <span>₪43</span>
                    </p>
                    <p class=""lotteries"">
                      <span>65%</span>
                      <span>60%</span>
                    </p>","d","binary","B","25.8","15","15","0","A","B","60","43","",""
"","","","","","html-keyboard-response","120","290388","0.0-9.0-0.26","010","null","<p style=""text-align: center;"">+</p>","null","fixation","","","","","","","","","","",""
"","","","","","html-keyboard-response","121","291436","0.0-9.0-1.26","010","1047","
                    <p class=""lotteries"">
                      <span><img src='img/A.png', width=""30""></span>
                      <span><img src='img/D.png', width=""30""></span>
                    </p>
                    <p class=""lotteries"">
                      <span>₪11</span>
                      <span>₪18</span>
                    </p>
                    <p class=""lotteries"">
                      <span>25%</span>
                      <span>50%</span>
                    </p>","d","binary","A","9","28","28","1","B","A","50","18","",""
"","","","","","html-keyboard-response","122","292823","0.0-9.0-0.27","010","null","<p style=""text-align: center;"">+</p>","null","fixation","","","","","","","","","","",""
"","","","","","html-keyboard-response","123","297076","0.0-9.0-1.27","010","4252","
                    <p class=""lotteries"">
                      <span><img src='img/A.png', width=""30""></span>
                      <span><img src='img/D.png', width=""30""></span>
                    </p>
                    <p class=""lotteries"">
                      <span>₪61</span>
                      <span>₪36</span>
                    </p>
                    <p class=""lotteries"">
                      <span>45%</span>
                      <span>70%</span>
                    </p>","a","binary","A","27.45","10","10","0","A","B","45","61","",""
"","","","","","html-keyboard-response","124","297689","0.0-9.0-0.28","010","null","<p style=""text-align: center;"">+</p>","null","fixation","","","","","","","","","","",""
"","","","","","html-keyboard-response","125","299308","0.0-9.0-1.28","010","1617","
                    <p class=""lotteries"">
                      <span><img src='img/A.png', width=""30""></span>
                      <span><img src='img/D.png', width=""30""></span>
                    </p>
                    <p class=""lotteries"">
                      <span>₪43</span>
                      <span>₪79</span>
                    </p>
                    <p class=""lotteries"">
                      <span>60%</span>
                      <span>40%</span>
                    </p>","d","binary","B","31.6","9","9","0","A","B","40","79","",""
"","","","","","html-keyboard-response","126","300657","0.0-9.0-0.29","010","null","<p style=""text-align: center;"">+</p>","null","fixation","","","","","","","","","","",""
"","","","","","html-keyboard-response","127","302037","0.0-9.0-1.29","010","1378","
                    <p class=""lotteries"">
                      <span><img src='img/A.png', width=""30""></span>
                      <span><img src='img/D.png', width=""30""></span>
                    </p>
                    <p class=""lotteries"">
                      <span>₪11</span>
                      <span>₪71</span>
                    </p>
                    <p class=""lotteries"">
                      <span>75%</span>
                      <span>55%</span>
                    </p>","d","binary","A","39.05","18","18","0","B","A","55","71","",""
"","","","","","html-keyboard-response","128","303047","0.0-10.0","010","null","<p style=""text-align: center;"">+</p>","null","fixation","","","","","","","","","","",""
"","","","","","html-keyboard-response","129","304004","0.0-11.0","010","956","<p>הפסקה.
          <br>לחצו על רווח כדי להמשיך.</p>"," ","scan_wait","","","","","","","","","","",""
"","","","","","html-keyboard-response","130","304686","0.0-12.0-0.0","010","null","<p style=""text-align: center;"">+</p>","null","fixation","","","","","","","","","","",""
"","","","","","html-keyboard-response","131","306468","0.0-12.0-1.0","010","1781","
                    <p class=""lotteries"">
                      <span><img src='img/A.png', width=""30""></span>
                      <span><img src='img/D.png', width=""30""></span>
                    </p>
                    <p class=""lotteries"">
                      <span>₪43</span>
                      <span>₪76</span>
                    </p>
                    <p class=""lotteries"">
                      <span>75%</span>
                      <span>65%</span>
                    </p>","d","binary","B","49.4","24","24","0","A","B","65","76","",""
"","","","","","html-keyboard-response","132","307261","0.0-12.0-0.1","010","null","<p style=""text-align: center;"">+</p>","null","fixation","","","","","","","","","","",""
"","","","","","html-keyboard-response","133","309156","0.0-12.0-1.1","010","1893","
                    <p class=""lotteries"">
                      <span><img src='img/A.png', width=""30""></span>
                      <span><img src='img/D.png', width=""30""></span>
                    </p>
                    <p class=""lotteries"">
                      <span>₪79</span>
                      <span>₪71</span>
                    </p>
                    <p class=""lotteries"">
                      <span>65%</span>
                      <span>75%</span>
                    </p>","d","binary","B","53.25","8","8","0","A","B","75","71","",""
"","","","","","html-keyboard-response","134","310272","0.0-12.0-0.2","010","null","<p style=""text-align: center;"">+</p>","null","fixation","","","","","","","","","","",""
"","","","","","html-keyboard-response","135","312948","0.0-12.0-1.2","010","2674","
                    <p class=""lotteries"">
                      <span><img src='img/A.png', width=""30""></span>
                      <span><img src='img/D.png', width=""30""></span>
                    </p>
                    <p class=""lotteries"">
                      <span>₪11</span>
                      <span>₪16</span>
                    </p>
                    <p class=""lotteries"">
                      <span>25%</span>
                      <span>20%</span>
                    </p>","d","binary","A","3.2","27","27","0","B","A","20","16","",""
"","","","","","html-keyboard-response","136","313986","0.0-12.0-0.3","010","null","<p style=""text-align: center;"">+</p>","null","fixation","","","","","","","","","","",""
"","","","","","html-keyboard-response","137","315443","0.0-12.0-1.3","010","1456","
                    <p class=""lotteries"">
                      <span><img src='img/A.png', width=""30""></span>
                      <span><img src='img/D.png', width=""30""></span>
                    </p>
                    <p class=""lotteries"">
                      <span>₪4</span>
                      <span>₪16</span>
                    </p>
                    <p class=""lotteries"">
                      <span>50%</span>
                      <span>20%</span>
                    </p>","d","binary","A","3.2","17","17","0","B","A","20","16","",""
"","","","","","html-keyboard-response","138","316172","0.0-12.0-0.4","010","null","<p style=""text-align: center;"">+</p>","null","fixation","","","","","","","","","","",""
"","","","","","html-keyboard-response","139","317859","0.0-12.0-1.4","010","1685","
                    <p class=""lotteries"">
                      <span><img src='img/A.png', width=""30""></span>
                      <span><img src='img/D.png', width=""30""></span>
                    </p>
                    <p class=""lotteries"">
                      <span>₪18</span>
                      <span>₪4</span>
                    </p>
                    <p class=""lotteries"">
                      <span>25%</span>
                      <span>75%</span>
                    </p>","a","binary","A","4.5","23","23","0","A","B","25","18","",""
"","","","","","html-keyboard-response","140","319181","0.0-12.0-0.5","010","null","<p style=""text-align: center;"">+</p>","null","fixation","","","","","","","","","","",""
"","","","","","html-keyboard-response","141","320419","0.0-12.0-1.5","010","1236","
                    <p class=""lotteries"">
                      <span><img src='img/A.png', width=""30""></span>
                      <span><img src='img/D.png', width=""30""></span>
                    </p>
                    <p class=""lotteries"">
                      <span>₪4</span>
                      <span>₪36</span>
                    </p>
                    <p class=""lotteries"">
                      <span>75%</span>
                      <span>30%</span>
                    </p>","d","binary","A","10.8","20","20","0","B","A","30","36","",""
"","","","","","html-keyboard-response","142","321373","0.0-12.0-0.6","010","null","<p style=""text-align: center;"">+</p>","null","fixation","","","","","","","","","","",""
"","","","","","html-keyboard-response","143","326043","0.0-12.0-1.6","010","4669","
                    <p class=""lotteries"">
                      <span><img src='img/A.png', width=""30""></span>
                      <span><img src='img/D.png', width=""30""></span>
                    </p>
                    <p class=""lotteries"">
                      <span>₪61</span>
                      <span>₪36</span>
                    </p>
                    <p class=""lotteries"">
                      <span>45%</span>
                      <span>70%</span>
                    </p>","a","binary","A","27.45","10","10","0","A","B","45","61","",""
"","","","","","html-keyboard-response","144","327458","0.0-12.0-0.7","010","null","<p style=""text-align: center;"">+</p>","null","fixation","","","","","","","","","","",""
"","","","","","html-keyboard-response","145","330187","0.0-12.0-1.7","010","2727","
                    <p class=""lotteries"">
                      <span><img src='img/A.png', width=""30""></span>
                      <span><img src='img/D.png', width=""30""></span>
                    </p>
                    <p class=""lotteries"">
                      <span>₪39</span>
                      <span>₪64</span>
                    </p>
                    <p class=""lotteries"">
                      <span>65%</span>
                      <span>50%</span>
                    </p>","d","binary","B","32","1","1","0","A","B","50","64","",""
"","","","","","html-keyboard-response","146","331000","0.0-12.0-0.8","010","null","<p style=""text-align: center;"">+</p>","null","fixation","","","","","","","","","","",""
"","","","","","html-keyboard-response","147","334763","0.0-12.0-1.8","010","3761","
                    <p class=""lotteries"">
                      <span><img src='img/A.png', width=""30""></span>
                      <span><img src='img/D.png', width=""30""></span>
                    </p>
                    <p class=""lotteries"">
                      <span>₪58</span>
                      <span>₪11</span>
                    </p>
                    <p class=""lotteries"">
                      <span>30%</span>
                      <span>25%</span>
                    </p>","a","binary","A","17.4","30","30","1","A","B","30","58","",""
"","","","","","html-keyboard-response","148","335300","0.0-12.0-0.9","010","null","<p style=""text-align: center;"">+</p>","null","fixation","","","","","","","","","","",""
"","","","","","html-keyboard-response","149","336491","0.0-12.0-1.9","010","1189","
                    <p class=""lotteries"">
                      <span><img src='img/A.png', width=""30""></span>
                      <span><img src='img/D.png', width=""30""></span>
                    </p>
                    <p class=""lotteries"">
                      <span>₪4</span>
                      <span>₪11</span>
                    </p>
                    <p class=""lotteries"">
                      <span>75%</span>
                      <span>25%</span>
                    </p>","d","binary","A","2.75","12","12","0","B","A","25","11","",""
"","","","","","html-keyboard-response","150","337549","0.0-12.0-0.10","010","null","<p style=""text-align: center;"">+</p>","null","fixation","","","","","","","","","","",""
"","","","","","html-keyboard-response","151","338875","0.0-12.0-1.10","010","1325","
                    <p class=""lotteries"">
                      <span><img src='img/A.png', width=""30""></span>
                      <span><img src='img/D.png', width=""30""></span>
                    </p>
                    <p class=""lotteries"">
                      <span>₪43</span>
                      <span>₪76</span>
                    </p>
                    <p class=""lotteries"">
                      <span>75%</span>
                      <span>65%</span>
                    </p>","d","binary","A","49.4","19","19","0","B","A","65","76","",""
"","","","","","html-keyboard-response","152","339432","0.0-12.0-0.11","010","null","<p style=""text-align: center;"">+</p>","null","fixation","","","","","","","","","","",""
"","","","","","html-keyboard-response","153","340979","0.0-12.0-1.11","010","1545","
                    <p class=""lotteries"">
                      <span><img src='img/A.png', width=""30""></span>
                      <span><img src='img/D.png', width=""30""></span>
                    </p>
                    <p class=""lotteries"">
                      <span>₪43</span>
                      <span>₪61</span>
                    </p>
                    <p class=""lotteries"">
                      <span>60%</span>
                      <span>55%</span>
                    </p>","d","binary","B","33.55","7","7","0","A","B","55","61","",""
"","","","","","html-keyboard-response","154","342409","0.0-12.0-0.12","010","null","<p style=""text-align: center;"">+</p>","null","fixation","","","","","","","","","","",""
"","","","","","html-keyboard-response","155","344323","0.0-12.0-1.12","010","1913","
                    <p class=""lotteries"">
                      <span><img src='img/A.png', width=""30""></span>
                      <span><img src='img/D.png', width=""30""></span>
                    </p>
                    <p class=""lotteries"">
                      <span>₪39</span>
                      <span>₪58</span>
                    </p>
                    <p class=""lotteries"">
                      <span>60%</span>
                      <span>45%</span>
                    </p>","d","binary","A","26.1","25","25","0","B","A","45","58","",""
"","","","","","html-keyboard-response","156","345523","0.0-12.0-0.13","010","null","<p style=""text-align: center;"">+</p>","null","fixation","","","","","","","","","","",""
"","","","","","html-keyboard-response","157","348459","0.0-12.0-1.13","010","2934","
                    <p class=""lotteries"">
                      <span><img src='img/A.png', width=""30""></span>
                      <span><img src='img/D.png', width=""30""></span>
                    </p>
                    <p class=""lotteries"">
                      <span>₪64</span>
                      <span>₪58</span>
                    </p>
                    <p class=""lotteries"">
                      <span>25%</span>
                      <span>40%</span>
                    </p>","d","binary","B","23.2","21","21","0","A","B","40","58","",""
"","","","","","html-keyboard-response","158","349702","0.0-12.0-0.14","010","null","<p style=""text-align: center;"">+</p>","null","fixation","","","","","","","","","","",""
"","","","","","html-keyboard-response","159","352243","0.0-12.0-1.14","010","2539","
                    <p class=""lotteries"">
                      <span><img src='img/A.png', width=""30""></span>
                      <span><img src='img/D.png', width=""30""></span>
                    </p>
                    <p class=""lotteries"">
                      <span>₪11</span>
                      <span>₪71</span>
                    </p>
                    <p class=""lotteries"">
                      <span>75%</span>
                      <span>55%</span>
                    </p>","d","binary","A","39.05","18","18","0","B","A","55","71","",""
"","","","","","html-keyboard-response","160","353704","0.0-12.0-0.15","010","null","<p style=""text-align: center;"">+</p>","null","fixation","","","","","","","","","","",""
"","","","","","html-keyboard-response","161","355027","0.0-12.0-1.15","010","1321","
                    <p class=""lotteries"">
                      <span><img src='img/A.png', width=""30""></span>
                      <span><img src='img/D.png', width=""30""></span>
                    </p>
                    <p class=""lotteries"">
                      <span>₪11</span>
                      <span>₪4</span>
                    </p>
                    <p class=""lotteries"">
                      <span>75%</span>
                      <span>25%</span>
                    </p>","a","binary","A","8.25","29","29","1","A","B","75","11","",""
"","","","","","html-keyboard-response","162","355690","0.0-12.0-0.16","010","null","<p style=""text-align: center;"">+</p>","null","fixation","","","","","","","","","","",""
"","","","","","html-keyboard-response","163","357443","0.0-12.0-1.16","010","1752","
                    <p class=""lotteries"">
                      <span><img src='img/A.png', width=""30""></span>
                      <span><img src='img/D.png', width=""30""></span>
                    </p>
                    <p class=""lotteries"">
                      <span>₪43</span>
                      <span>₪71</span>
                    </p>
                    <p class=""lotteries"">
                      <span>60%</span>
                      <span>45%</span>
                    </p>","d","binary","B","31.95","2","2","0","A","B","45","71","",""
"","","","","","html-keyboard-response","164","358639","0.0-12.0-0.17","010","null","<p style=""text-align: center;"">+</p>","null","fixation","","","","","","","","","","",""
"","","","","","html-keyboard-response","165","360883","0.0-12.0-1.17","010","2242","
                    <p class=""lotteries"">
                      <span><img src='img/A.png', width=""30""></span>
                      <span><img src='img/D.png', width=""30""></span>
                    </p>
                    <p class=""lotteries"">
                      <span>₪71</span>
                      <span>₪36</span>
                    </p>
                    <p class=""lotteries"">
                      <span>45%</span>
                      <span>75%</span>
                    </p>","a","binary","A","31.95","16","16","0","A","B","45","71","",""
"","","","","","html-keyboard-response","166","361515","0.0-12.0-0.18","010","null","<p style=""text-align: center;"">+</p>","null","fixation","","","","","","","","","","",""
"","","","","","html-keyboard-response","167","365532","0.0-12.0-1.18","010","4015","
                    <p class=""lotteries"">
                      <span><img src='img/A.png', width=""30""></span>
                      <span><img src='img/D.png', width=""30""></span>
                    </p>
                    <p class=""lotteries"">
                      <span>₪64</span>
                      <span>₪36</span>
                    </p>
                    <p class=""lotteries"">
                      <span>50%</span>
                      <span>75%</span>
                    </p>","d","binary","B","27","4","4","0","A","B","75","36","",""
"","","","","","html-keyboard-response","168","366333","0.0-12.0-0.19","010","null","<p style=""text-align: center;"">+</p>","null","fixation","","","","","","","","","","",""
"","","","","","html-keyboard-response","169","369915","0.0-12.0-1.19","010","3580","
                    <p class=""lotteries"">
                      <span><img src='img/A.png', width=""30""></span>
                      <span><img src='img/D.png', width=""30""></span>
                    </p>
                    <p class=""lotteries"">
                      <span>₪18</span>
                      <span>₪11</span>
                    </p>
                    <p class=""lotteries"">
                      <span>50%</span>
                      <span>25%</span>
                    </p>","a","binary","A","9","28","28","1","A","B","50","18","",""
"","","","","","html-keyboard-response","170","370699","0.0-12.0-0.20","010","null","<p style=""text-align: center;"">+</p>","null","fixation","","","","","","","","","","",""
"","","","","","html-keyboard-response","171","372083","0.0-12.0-1.20","010","1382","
                    <p class=""lotteries"">
                      <span><img src='img/A.png', width=""30""></span>
                      <span><img src='img/D.png', width=""30""></span>
                    </p>
                    <p class=""lotteries"">
                      <span>₪61</span>
                      <span>₪43</span>
                    </p>
                    <p class=""lotteries"">
                      <span>45%</span>
                      <span>75%</span>
                    </p>","d","binary","B","32.25","11","11","0","A","B","75","43","",""
"","","","","","html-keyboard-response","172","372788","0.0-12.0-0.21","010","null","<p style=""text-align: center;"">+</p>","null","fixation","","","","","","","","","","",""
"","","","","","html-keyboard-response","173","374395","0.0-12.0-1.21","010","1613","
                    <p class=""lotteries"">
                      <span><img src='img/A.png', width=""30""></span>
                      <span><img src='img/D.png', width=""30""></span>
                    </p>
                    <p class=""lotteries"">
                      <span>₪79</span>
                      <span>₪43</span>
                    </p>
                    <p class=""lotteries"">
                      <span>40%</span>
                      <span>60%</span>
                    </p>","a","binary","B","31.6","9","9","0","B","A","40","79","",""
"","","","","","html-keyboard-response","174","375534","0.0-12.0-0.22","010","null","<p style=""text-align: center;"">+</p>","null","fixation","","","","","","","","","","",""
"","","","","","html-keyboard-response","175","378595","0.0-12.0-1.22","010","3060","
                    <p class=""lotteries"">
                      <span><img src='img/A.png', width=""30""></span>
                      <span><img src='img/D.png', width=""30""></span>
                    </p>
                    <p class=""lotteries"">
                      <span>₪58</span>
                      <span>₪36</span>
                    </p>
                    <p class=""lotteries"">
                      <span>40%</span>
                      <span>75%</span>
                    </p>","d","binary","B","27","13","13","0","A","B","75","36","",""
"","","","","","html-keyboard-response","176","380015","0.0-12.0-0.23","010","null","<p style=""text-align: center;"">+</p>","null","fixation","","","","","","","","","","",""
"","","","","","html-keyboard-response","177","381746","0.0-12.0-1.23","010","1730","
                    <p class=""lotteries"">
                      <span><img src='img/A.png', width=""30""></span>
                      <span><img src='img/D.png', width=""30""></span>
                    </p>
                    <p class=""lotteries"">
                      <span>₪71</span>
                      <span>₪36</span>
                    </p>
                    <p class=""lotteries"">
                      <span>55%</span>
                      <span>75%</span>
                    </p>","a","binary","B","39.05","5","5","0","B","A","55","71","",""
"","","","","","html-keyboard-response","178","382899","0.0-12.0-0.24","010","null","<p style=""text-align: center;"">+</p>","null","fixation","","","","","","","","","","",""
"","","","","","html-keyboard-response","179","387436","0.0-12.0-1.24","010","4534","
                    <p class=""lotteries"">
                      <span><img src='img/A.png', width=""30""></span>
                      <span><img src='img/D.png', width=""30""></span>
                    </p>
                    <p class=""lotteries"">
                      <span>₪18</span>
                      <span>₪11</span>
                    </p>
                    <p class=""lotteries"">
                      <span>25%</span>
                      <span>45%</span>
                    </p>","d","binary","B","4.95","14","14","0","A","B","45","11","",""
"","","","","","html-keyboard-response","180","388052","0.0-12.0-0.25","010","null","<p style=""text-align: center;"">+</p>","null","fixation","","","","","","","","","","",""
"","","","","","html-keyboard-response","181","391005","0.0-12.0-1.25","010","2951","
                    <p class=""lotteries"">
                      <span><img src='img/A.png', width=""30""></span>
                      <span><img src='img/D.png', width=""30""></span>
                    </p>
                    <p class=""lotteries"">
                      <span>₪36</span>
                      <span>₪18</span>
                    </p>
                    <p class=""lotteries"">
                      <span>30%</span>
                      <span>50%</span>
                    </p>","a","binary","A","10.8","22","22","0","A","B","30","36","",""
"","","","","","html-keyboard-response","182","392245","0.0-12.0-0.26","010","null","<p style=""text-align: center;"">+</p>","null","fixation","","","","","","","","","","",""
"","","","","","html-keyboard-response","183","396123","0.0-12.0-1.26","010","3877","
                    <p class=""lotteries"">
                      <span><img src='img/A.png', width=""30""></span>
                      <span><img src='img/D.png', width=""30""></span>
                    </p>
                    <p class=""lotteries"">
                      <span>₪61</span>
                      <span>₪43</span>
                    </p>
                    <p class=""lotteries"">
                      <span>55%</span>
                      <span>75%</span>
                    </p>","a","binary","B","33.55","26","26","0","B","A","55","61","",""
"","","","","","html-keyboard-response","184","397173","0.0-12.0-0.27","010","null","<p style=""text-align: center;"">+</p>","null","fixation","","","","","","","","","","",""
"","","","","","html-keyboard-response","185","400347","0.0-12.0-1.27","010","3173","
                    <p class=""lotteries"">
                      <span><img src='img/A.png', width=""30""></span>
                      <span><img src='img/D.png', width=""30""></span>
                    </p>
                    <p class=""lotteries"">
                      <span>₪64</span>
                      <span>₪11</span>
                    </p>
                    <p class=""lotteries"">
                      <span>25%</span>
                      <span>75%</span>
                    </p>","a","binary","A","16","6","6","0","A","B","25","64","",""
"","","","","","html-keyboard-response","186","401157","0.0-12.0-0.28","010","null","<p style=""text-align: center;"">+</p>","null","fixation","","","","","","","","","","",""
"","","","","","html-keyboard-response","187","403875","0.0-12.0-1.28","010","2717","
                    <p class=""lotteries"">
                      <span><img src='img/A.png', width=""30""></span>
                      <span><img src='img/D.png', width=""30""></span>
                    </p>
                    <p class=""lotteries"">
                      <span>₪36</span>
                      <span>₪64</span>
                    </p>
                    <p class=""lotteries"">
                      <span>70%</span>
                      <span>50%</span>
                    </p>","d","binary","B","32","3","3","0","A","B","50","64","",""
"","","","","","html-keyboard-response","188","404470","0.0-12.0-0.29","010","null","<p style=""text-align: center;"">+</p>","null","fixation","","","","","","","","","","",""
"","","","","","html-keyboard-response","189","406747","0.0-12.0-1.29","010","2275","
                    <p class=""lotteries"">
                      <span><img src='img/A.png', width=""30""></span>
                      <span><img src='img/D.png', width=""30""></span>
                    </p>
                    <p class=""lotteries"">
                      <span>₪39</span>
                      <span>₪43</span>
                    </p>
                    <p class=""lotteries"">
                      <span>65%</span>
                      <span>60%</span>
                    </p>","d","binary","B","25.8","15","15","0","A","B","60","43","",""
"","","","","","html-keyboard-response","190","407758","0.0-13.0","010","null","<p style=""text-align: center;"">+</p>","null","fixation","","","","","","","","","","",""
"","","","","","html-keyboard-response","191","408462","0.0-14.0","010","null","","null","delay","","","","","","","","","","",""
"","","","","","html-keyboard-response","192","429195","0.0-15.0","010","20732","<h1>הסוף</h1>
        <p>אנו מודים לכם על ההשתתפות!
        <p>כעת נשחק את אחת ההגרלות שבחרתם, באחד משני החלקים.
        <br>אנא קראו לנו להרצת ההגרלות.</p>"," ","","","","","","","","","","","",""
"","","","","","survey","193","439698","0.0-16.0","010","10365","","{""Gender"":""זכר"",""Hand"":""ימין"",""Glasses"":""לא"",""Age"":""25""}","","","","","","","","","","","","[]"
