"success","timeout","failed_images","failed_audio","failed_video","trial_type","trial_index","time_elapsed","internal_node_id","subject_id","rt","stimulus","response","part","actual_choice","actual_EV","binary_id","trinary_id","catch","direction","A_key","S_key","D_key","choice_prob","choice_amount","chosen_part","accuracy"
"true","false","[]","[]","[]","preload","0","7","0.0-0.0","019","","","","","","","","","","","","","","","","",""
"","","","","","html-keyboard-response","1","710","0.0-1.0","019","null","","null","delay","","","","","","","","","","","","",""
"","","","","","html-keyboard-response","2","64519","0.0-2.0","019","63805","
          <h1>חלק 2</h1>
          <p>ברוכים הבאים לחלק 2 של הניסוי.
          <br>בחלק זה יוצגו בפניכם שלוש הגרלות.
          <br>אתם מתבקשים לבחור את ההגרלה שתרצו להשתתף בה.
          <br>שימו לב! בסוף הניסוי נבחר שלב אחד באקראי ונממש את ההגרלה שבחרתם בו. כלומר, הבחירה שלכם יכולה להפוך לכסף אמיתי.
          <br><br>לחצו רווח כדי להמשיך.</p>"," ","","","","","","","","","","","","","",""
"","","","","","html-keyboard-response","3","74380","0.0-3.0","019","9148","
          <p>בואו נתחיל בדוגמה:
          <br>לפניכם שלוש הגרלות.
          <br>לחצו 'A' אם אתם מעדיפים את ההגרלה השמאלית
          <br>לחצו 'S' אם אתם מעדיפים את ההגרלה האמצעית
          <br>לחצו 'D' אם אתם מעדיפים את ההגרלה הימנית
          <p class=""lotteries"">
            <span><img src='img/A.png', width=""30""></span>
            <span><img src='img/S.png', width=""30""></span>
            <span><img src='img/D.png', width=""30""></span>
          </p>
          <p class=""lotteries"">
            <span>₪39</span>
            <span>₪46</span>
            <span>₪54</span>
          </p>
          <p class=""lotteries"">
            <span>65%</span>
            <span>40%</span>
            <span>35%</span>
          </p>","a","example","","","","","","","","","","","","",""
"","","","","","html-keyboard-response","4","81508","0.0-4.0","019","6413","<p>עבודה טובה!
                  <br>בחרתם את ההגרלה השמאלית.  
                  <br>בואו ננסה דוגמה נוספת:
                  <p class=""lotteries"">
                    <span><img src='img/A.png', width=""30""></span>
                    <span><img src='img/S.png', width=""30""></span>
                    <span><img src='img/D.png', width=""30""></span>
                  </p>
                  <p class=""lotteries"">
                    <span>₪29</span>
                    <span>₪18</span>
                    <span>₪43</span>
                  </p>
                  <p class=""lotteries"">
                    <span>30%</span>
                    <span>50%</span>
                    <span>65%</span>
                  </p>","d","example","","","","","","","","","","","","",""
"","","","","","html-keyboard-response","5","88700","0.0-5.0","019","6486","<p>בחרתם את ההגרלה הימנית. נשמע נכון?
                  <br><br>כעת נתחיל בניסוי.
                  <br>אתם תראו שלשות של הגרלות ותתבקשו לבחור את ההגרלה המועדפת עליכם.
                  <br>חלק זה לא מוגבל בזמן.
                  <br><br>לחצו רווח כדי להתחיל את הניסוי.</p>"," ","","","","","","","","","","","","","",""
"","","","","","html-keyboard-response","6","90053","0.0-6.0-0.0","019","null","<p style=""text-align: center;"">+</p>","null","fixation","","","","","","","","","","","","",""
"","","","","","html-keyboard-response","7","94483","0.0-6.0-1.0","019","4425","
                    <p class=""lotteries"">
                      <span><img src='img/A.png', width=""30""></span>
                      <span><img src='img/S.png', width=""30""></span>
                      <span><img src='img/D.png', width=""30""></span>
                    </p>
                    <p class=""lotteries"">
                      <span>₪64</span>
                      <span>₪4</span>
                      <span>₪11</span>
                    </p>
                    <p class=""lotteries"">
                      <span>25%</span>
                      <span>25%</span>
                      <span>75%</span>
                    </p>","d","trinary","B","8.25","6","6","0","B","A","C","B","75","11","",""
"","","","","","html-keyboard-response","8","95865","0.0-6.0-0.1","019","null","<p style=""text-align: center;"">+</p>","null","fixation","","","","","","","","","","","","",""
"","","","","","html-keyboard-response","9","101716","0.0-6.0-1.1","019","5848","
                    <p class=""lotteries"">
                      <span><img src='img/A.png', width=""30""></span>
                      <span><img src='img/S.png', width=""30""></span>
                      <span><img src='img/D.png', width=""30""></span>
                    </p>
                    <p class=""lotteries"">
                      <span>₪64</span>
                      <span>₪36</span>
                      <span>₪4</span>
                    </p>
                    <p class=""lotteries"">
                      <span>50%</span>
                      <span>75%</span>
                      <span>50%</span>
                    </p>","s","trinary","B","27","4","4","0","A","A","B","C","75","36","",""
"","","","","","html-keyboard-response","10","102820","0.0-6.0-0.2","019","null","<p style=""text-align: center;"">+</p>","null","fixation","","","","","","","","","","","","",""
"","","","","","html-keyboard-response","11","109060","0.0-6.0-1.2","019","6238","
                    <p class=""lotteries"">
                      <span><img src='img/A.png', width=""30""></span>
                      <span><img src='img/S.png', width=""30""></span>
                      <span><img src='img/D.png', width=""30""></span>
                    </p>
                    <p class=""lotteries"">
                      <span>₪11</span>
                      <span>₪4</span>
                      <span>₪16</span>
                    </p>
                    <p class=""lotteries"">
                      <span>20%</span>
                      <span>50%</span>
                      <span>20%</span>
                    </p>","d","trinary","A","3.2","17","17","0","A","C","B","A","20","16","",""
"","","","","","html-keyboard-response","12","110336","0.0-6.0-0.3","019","null","<p style=""text-align: center;"">+</p>","null","fixation","","","","","","","","","","","","",""
"","","","","","html-keyboard-response","13","113492","0.0-6.0-1.3","019","3154","
                    <p class=""lotteries"">
                      <span><img src='img/A.png', width=""30""></span>
                      <span><img src='img/S.png', width=""30""></span>
                      <span><img src='img/D.png', width=""30""></span>
                    </p>
                    <p class=""lotteries"">
                      <span>₪36</span>
                      <span>₪43</span>
                      <span>₪61</span>
                    </p>
                    <p class=""lotteries"">
                      <span>60%</span>
                      <span>60%</span>
                      <span>55%</span>
                    </p>","s","trinary","A","25.8","7","7","0","A","C","A","B","60","43","",""
"","","","","","html-keyboard-response","14","114718","0.0-6.0-0.4","019","null","<p style=""text-align: center;"">+</p>","null","fixation","","","","","","","","","","","","",""
"","","","","","html-keyboard-response","15","119803","0.0-6.0-1.4","019","5085","
                    <p class=""lotteries"">
                      <span><img src='img/A.png', width=""30""></span>
                      <span><img src='img/S.png', width=""30""></span>
                      <span><img src='img/D.png', width=""30""></span>
                    </p>
                    <p class=""lotteries"">
                      <span>₪58</span>
                      <span>₪43</span>
                      <span>₪76</span>
                    </p>
                    <p class=""lotteries"">
                      <span>40%</span>
                      <span>75%</span>
                      <span>65%</span>
                    </p>","s","trinary","B","32.25","19","19","0","-","C","B","A","75","43","",""
"","","","","","html-keyboard-response","16","121297","0.0-6.0-0.5","019","null","<p style=""text-align: center;"">+</p>","null","fixation","","","","","","","","","","","","",""
"","","","","","html-keyboard-response","17","125971","0.0-6.0-1.5","019","4673","
                    <p class=""lotteries"">
                      <span><img src='img/A.png', width=""30""></span>
                      <span><img src='img/S.png', width=""30""></span>
                      <span><img src='img/D.png', width=""30""></span>
                    </p>
                    <p class=""lotteries"">
                      <span>₪4</span>
                      <span>₪36</span>
                      <span>₪16</span>
                    </p>
                    <p class=""lotteries"">
                      <span>75%</span>
                      <span>30%</span>
                      <span>20%</span>
                    </p>","s","trinary","A","10.8","20","20","0","A","B","A","C","30","36","",""
"","","","","","html-keyboard-response","18","126784","0.0-6.0-0.6","019","null","<p style=""text-align: center;"">+</p>","null","fixation","","","","","","","","","","","","",""
"","","","","","html-keyboard-response","19","133371","0.0-6.0-1.6","019","6585","
                    <p class=""lotteries"">
                      <span><img src='img/A.png', width=""30""></span>
                      <span><img src='img/S.png', width=""30""></span>
                      <span><img src='img/D.png', width=""30""></span>
                    </p>
                    <p class=""lotteries"">
                      <span>₪36</span>
                      <span>₪43</span>
                      <span>₪39</span>
                    </p>
                    <p class=""lotteries"">
                      <span>60%</span>
                      <span>60%</span>
                      <span>65%</span>
                    </p>","d","trinary","A","25.35","15","15","0","-","C","B","A","65","39","",""
"","","","","","html-keyboard-response","20","134031","0.0-6.0-0.7","019","null","<p style=""text-align: center;"">+</p>","null","fixation","","","","","","","","","","","","",""
"","","","","","html-keyboard-response","21","138347","0.0-6.0-1.7","019","4315","
                    <p class=""lotteries"">
                      <span><img src='img/A.png', width=""30""></span>
                      <span><img src='img/S.png', width=""30""></span>
                      <span><img src='img/D.png', width=""30""></span>
                    </p>
                    <p class=""lotteries"">
                      <span>₪36</span>
                      <span>₪11</span>
                      <span>₪18</span>
                    </p>
                    <p class=""lotteries"">
                      <span>30%</span>
                      <span>75%</span>
                      <span>50%</span>
                    </p>","s","trinary","C","8.25","22","22","0","-","A","C","B","75","11","",""
"","","","","","html-keyboard-response","22","139836","0.0-6.0-0.8","019","null","<p style=""text-align: center;"">+</p>","null","fixation","","","","","","","","","","","","",""
"","","","","","html-keyboard-response","23","143562","0.0-6.0-1.8","019","3725","
                    <p class=""lotteries"">
                      <span><img src='img/A.png', width=""30""></span>
                      <span><img src='img/S.png', width=""30""></span>
                      <span><img src='img/D.png', width=""30""></span>
                    </p>
                    <p class=""lotteries"">
                      <span>₪11</span>
                      <span>₪16</span>
                      <span>₪18</span>
                    </p>
                    <p class=""lotteries"">
                      <span>45%</span>
                      <span>20%</span>
                      <span>25%</span>
                    </p>","a","trinary","B","4.95","14","14","0","A","B","C","A","45","11","",""
"","","","","","html-keyboard-response","24","144422","0.0-6.0-0.9","019","null","<p style=""text-align: center;"">+</p>","null","fixation","","","","","","","","","","","","",""
"","","","","","html-keyboard-response","25","147291","0.0-6.0-1.9","019","2867","
                    <p class=""lotteries"">
                      <span><img src='img/A.png', width=""30""></span>
                      <span><img src='img/S.png', width=""30""></span>
                      <span><img src='img/D.png', width=""30""></span>
                    </p>
                    <p class=""lotteries"">
                      <span>₪16</span>
                      <span>₪4</span>
                      <span>₪11</span>
                    </p>
                    <p class=""lotteries"">
                      <span>20%</span>
                      <span>75%</span>
                      <span>25%</span>
                    </p>","s","trinary","C","3","27","27","0","-","A","C","B","75","4","",""
"","","","","","html-keyboard-response","26","148753","0.0-6.0-0.10","019","null","<p style=""text-align: center;"">+</p>","null","fixation","","","","","","","","","","","","",""
"","","","","","html-keyboard-response","27","153451","0.0-6.0-1.10","019","4697","
                    <p class=""lotteries"">
                      <span><img src='img/A.png', width=""30""></span>
                      <span><img src='img/S.png', width=""30""></span>
                      <span><img src='img/D.png', width=""30""></span>
                    </p>
                    <p class=""lotteries"">
                      <span>₪64</span>
                      <span>₪36</span>
                      <span>₪39</span>
                    </p>
                    <p class=""lotteries"">
                      <span>50%</span>
                      <span>60%</span>
                      <span>65%</span>
                    </p>","a","trinary","B","32","1","1","0","A","B","C","A","50","64","",""
"","","","","","html-keyboard-response","28","154913","0.0-6.0-0.11","019","null","<p style=""text-align: center;"">+</p>","null","fixation","","","","","","","","","","","","",""
"","","","","","html-keyboard-response","29","157988","0.0-6.0-1.11","019","3072","
                    <p class=""lotteries"">
                      <span><img src='img/A.png', width=""30""></span>
                      <span><img src='img/S.png', width=""30""></span>
                      <span><img src='img/D.png', width=""30""></span>
                    </p>
                    <p class=""lotteries"">
                      <span>₪61</span>
                      <span>₪39</span>
                      <span>₪43</span>
                    </p>
                    <p class=""lotteries"">
                      <span>55%</span>
                      <span>65%</span>
                      <span>75%</span>
                    </p>","d","trinary","A","32.25","26","26","0","A","B","C","A","75","43","",""
"","","","","","html-keyboard-response","30","159222","0.0-6.0-0.12","019","null","<p style=""text-align: center;"">+</p>","null","fixation","","","","","","","","","","","","",""
"","","","","","html-keyboard-response","31","162755","0.0-6.0-1.12","019","3531","
                    <p class=""lotteries"">
                      <span><img src='img/A.png', width=""30""></span>
                      <span><img src='img/S.png', width=""30""></span>
                      <span><img src='img/D.png', width=""30""></span>
                    </p>
                    <p class=""lotteries"">
                      <span>₪11</span>
                      <span>₪18</span>
                      <span>₪4</span>
                    </p>
                    <p class=""lotteries"">
                      <span>20%</span>
                      <span>25%</span>
                      <span>75%</span>
                    </p>","d","trinary","B","3","23","23","0","A","C","A","B","75","4","",""
"","","","","","html-keyboard-response","32","163722","0.0-6.0-0.13","019","null","<p style=""text-align: center;"">+</p>","null","fixation","","","","","","","","","","","","",""
"","","","","","html-keyboard-response","33","166795","0.0-6.0-1.13","019","3071","
                    <p class=""lotteries"">
                      <span><img src='img/A.png', width=""30""></span>
                      <span><img src='img/S.png', width=""30""></span>
                      <span><img src='img/D.png', width=""30""></span>
                    </p>
                    <p class=""lotteries"">
                      <span>₪11</span>
                      <span>₪71</span>
                      <span>₪58</span>
                    </p>
                    <p class=""lotteries"">
                      <span>75%</span>
                      <span>55%</span>
                      <span>45%</span>
                    </p>","s","trinary","A","39.05","18","18","0","A","B","A","C","55","71","",""
"","","","","","html-keyboard-response","34","167809","0.0-6.0-0.14","019","null","<p style=""text-align: center;"">+</p>","null","fixation","","","","","","","","","","","","",""
"","","","","","html-keyboard-response","35","172491","0.0-6.0-1.14","019","4681","
                    <p class=""lotteries"">
                      <span><img src='img/A.png', width=""30""></span>
                      <span><img src='img/S.png', width=""30""></span>
                      <span><img src='img/D.png', width=""30""></span>
                    </p>
                    <p class=""lotteries"">
                      <span>₪58</span>
                      <span>₪43</span>
                      <span>₪61</span>
                    </p>
                    <p class=""lotteries"">
                      <span>45%</span>
                      <span>75%</span>
                      <span>45%</span>
                    </p>","s","trinary","B","32.25","11","11","0","A","C","B","A","75","43","",""
"","","","","","html-keyboard-response","36","173696","0.0-6.0-0.15","019","null","<p style=""text-align: center;"">+</p>","null","fixation","","","","","","","","","","","","",""
"","","","","","html-keyboard-response","37","176596","0.0-6.0-1.15","019","2898","
                    <p class=""lotteries"">
                      <span><img src='img/A.png', width=""30""></span>
                      <span><img src='img/S.png', width=""30""></span>
                      <span><img src='img/D.png', width=""30""></span>
                    </p>
                    <p class=""lotteries"">
                      <span>₪36</span>
                      <span>₪58</span>
                      <span>₪58</span>
                    </p>
                    <p class=""lotteries"">
                      <span>75%</span>
                      <span>30%</span>
                      <span>40%</span>
                    </p>","a","trinary","B","27","13","13","0","A","B","C","A","75","36","",""
"","","","","","html-keyboard-response","38","177153","0.0-6.0-0.16","019","null","<p style=""text-align: center;"">+</p>","null","fixation","","","","","","","","","","","","",""
"","","","","","html-keyboard-response","39","180027","0.0-6.0-1.16","019","2873","
                    <p class=""lotteries"">
                      <span><img src='img/A.png', width=""30""></span>
                      <span><img src='img/S.png', width=""30""></span>
                      <span><img src='img/D.png', width=""30""></span>
                    </p>
                    <p class=""lotteries"">
                      <span>₪11</span>
                      <span>₪18</span>
                      <span>₪11</span>
                    </p>
                    <p class=""lotteries"">
                      <span>20%</span>
                      <span>50%</span>
                      <span>25%</span>
                    </p>","s","trinary","A","9","28","28","1","-","C","A","B","50","18","",""
"","","","","","html-keyboard-response","40","180729","0.0-6.0-0.17","019","null","<p style=""text-align: center;"">+</p>","null","fixation","","","","","","","","","","","","",""
"","","","","","html-keyboard-response","41","184555","0.0-6.0-1.17","019","3825","
                    <p class=""lotteries"">
                      <span><img src='img/A.png', width=""30""></span>
                      <span><img src='img/S.png', width=""30""></span>
                      <span><img src='img/D.png', width=""30""></span>
                    </p>
                    <p class=""lotteries"">
                      <span>₪36</span>
                      <span>₪64</span>
                      <span>₪36</span>
                    </p>
                    <p class=""lotteries"">
                      <span>30%</span>
                      <span>50%</span>
                      <span>70%</span>
                    </p>","d","trinary","A","25.2","3","3","0","-","C","B","A","70","36","",""
"","","","","","html-keyboard-response","42","185353","0.0-6.0-0.18","019","null","<p style=""text-align: center;"">+</p>","null","fixation","","","","","","","","","","","","",""
"","","","","","html-keyboard-response","43","189259","0.0-6.0-1.18","019","3904","
                    <p class=""lotteries"">
                      <span><img src='img/A.png', width=""30""></span>
                      <span><img src='img/S.png', width=""30""></span>
                      <span><img src='img/D.png', width=""30""></span>
                    </p>
                    <p class=""lotteries"">
                      <span>₪58</span>
                      <span>₪36</span>
                      <span>₪61</span>
                    </p>
                    <p class=""lotteries"">
                      <span>40%</span>
                      <span>70%</span>
                      <span>45%</span>
                    </p>","s","trinary","B","25.2","10","10","0","A","C","B","A","70","36","",""
"","","","","","html-keyboard-response","44","190509","0.0-6.0-0.19","019","null","<p style=""text-align: center;"">+</p>","null","fixation","","","","","","","","","","","","",""
"","","","","","html-keyboard-response","45","199995","0.0-6.0-1.19","019","9484","
                    <p class=""lotteries"">
                      <span><img src='img/A.png', width=""30""></span>
                      <span><img src='img/S.png', width=""30""></span>
                      <span><img src='img/D.png', width=""30""></span>
                    </p>
                    <p class=""lotteries"">
                      <span>₪43</span>
                      <span>₪79</span>
                      <span>₪39</span>
                    </p>
                    <p class=""lotteries"">
                      <span>60%</span>
                      <span>40%</span>
                      <span>60%</span>
                    </p>","s","trinary","B","31.6","9","9","0","A","A","B","C","40","79","",""
"","","","","","html-keyboard-response","46","201202","0.0-6.0-0.20","019","null","<p style=""text-align: center;"">+</p>","null","fixation","","","","","","","","","","","","",""
"","","","","","html-keyboard-response","47","206564","0.0-6.0-1.20","019","5361","
                    <p class=""lotteries"">
                      <span><img src='img/A.png', width=""30""></span>
                      <span><img src='img/S.png', width=""30""></span>
                      <span><img src='img/D.png', width=""30""></span>
                    </p>
                    <p class=""lotteries"">
                      <span>₪71</span>
                      <span>₪36</span>
                      <span>₪36</span>
                    </p>
                    <p class=""lotteries"">
                      <span>55%</span>
                      <span>75%</span>
                      <span>70%</span>
                    </p>","a","trinary","B","39.05","5","5","0","A","B","A","C","55","71","",""
"","","","","","html-keyboard-response","48","207225","0.0-6.0-0.21","019","null","<p style=""text-align: center;"">+</p>","null","fixation","","","","","","","","","","","","",""
"","","","","","html-keyboard-response","49","210059","0.0-6.0-1.21","019","2833","
                    <p class=""lotteries"">
                      <span><img src='img/A.png', width=""30""></span>
                      <span><img src='img/S.png', width=""30""></span>
                      <span><img src='img/D.png', width=""30""></span>
                    </p>
                    <p class=""lotteries"">
                      <span>₪18</span>
                      <span>₪71</span>
                      <span>₪36</span>
                    </p>
                    <p class=""lotteries"">
                      <span>50%</span>
                      <span>45%</span>
                      <span>75%</span>
                    </p>","d","trinary","B","27","16","16","0","A","C","A","B","75","36","",""
"","","","","","html-keyboard-response","50","211309","0.0-6.0-0.22","019","null","<p style=""text-align: center;"">+</p>","null","fixation","","","","","","","","","","","","",""
"","","","","","html-keyboard-response","51","215635","0.0-6.0-1.22","019","4324","
                    <p class=""lotteries"">
                      <span><img src='img/A.png', width=""30""></span>
                      <span><img src='img/S.png', width=""30""></span>
                      <span><img src='img/D.png', width=""30""></span>
                    </p>
                    <p class=""lotteries"">
                      <span>₪18</span>
                      <span>₪43</span>
                      <span>₪71</span>
                    </p>
                    <p class=""lotteries"">
                      <span>50%</span>
                      <span>60%</span>
                      <span>45%</span>
                    </p>","s","trinary","A","25.8","2","2","0","A","C","A","B","60","43","",""
"","","","","","html-keyboard-response","52","216995","0.0-6.0-0.23","019","null","<p style=""text-align: center;"">+</p>","null","fixation","","","","","","","","","","","","",""
"","","","","","html-keyboard-response","53","222427","0.0-6.0-1.23","019","5430","
                    <p class=""lotteries"">
                      <span><img src='img/A.png', width=""30""></span>
                      <span><img src='img/S.png', width=""30""></span>
                      <span><img src='img/D.png', width=""30""></span>
                    </p>
                    <p class=""lotteries"">
                      <span>₪11</span>
                      <span>₪39</span>
                      <span>₪58</span>
                    </p>
                    <p class=""lotteries"">
                      <span>45%</span>
                      <span>60%</span>
                      <span>45%</span>
                    </p>","s","trinary","B","23.4","25","25","0","A","C","B","A","60","39","",""
"","","","","","html-keyboard-response","54","223455","0.0-6.0-0.24","019","null","<p style=""text-align: center;"">+</p>","null","fixation","","","","","","","","","","","","",""
"","","","","","html-keyboard-response","55","227251","0.0-6.0-1.24","019","3794","
                    <p class=""lotteries"">
                      <span><img src='img/A.png', width=""30""></span>
                      <span><img src='img/S.png', width=""30""></span>
                      <span><img src='img/D.png', width=""30""></span>
                    </p>
                    <p class=""lotteries"">
                      <span>₪4</span>
                      <span>₪11</span>
                      <span>₪58</span>
                    </p>
                    <p class=""lotteries"">
                      <span>25%</span>
                      <span>25%</span>
                      <span>30%</span>
                    </p>","d","trinary","A","17.4","30","30","1","-","C","B","A","30","58","",""
"","","","","","html-keyboard-response","56","228170","0.0-6.0-0.25","019","null","<p style=""text-align: center;"">+</p>","null","fixation","","","","","","","","","","","","",""
"","","","","","html-keyboard-response","57","234619","0.0-6.0-1.25","019","6448","
                    <p class=""lotteries"">
                      <span><img src='img/A.png', width=""30""></span>
                      <span><img src='img/S.png', width=""30""></span>
                      <span><img src='img/D.png', width=""30""></span>
                    </p>
                    <p class=""lotteries"">
                      <span>₪43</span>
                      <span>₪76</span>
                      <span>₪11</span>
                    </p>
                    <p class=""lotteries"">
                      <span>75%</span>
                      <span>65%</span>
                      <span>75%</span>
                    </p>","a","trinary","A","32.25","24","24","0","A","A","B","C","75","43","",""
"","","","","","html-keyboard-response","58","235965","0.0-6.0-0.26","019","null","<p style=""text-align: center;"">+</p>","null","fixation","","","","","","","","","","","","",""
"","","","","","html-keyboard-response","59","241540","0.0-6.0-1.26","019","5572","
                    <p class=""lotteries"">
                      <span><img src='img/A.png', width=""30""></span>
                      <span><img src='img/S.png', width=""30""></span>
                      <span><img src='img/D.png', width=""30""></span>
                    </p>
                    <p class=""lotteries"">
                      <span>₪76</span>
                      <span>₪79</span>
                      <span>₪71</span>
                    </p>
                    <p class=""lotteries"">
                      <span>65%</span>
                      <span>65%</span>
                      <span>75%</span>
                    </p>","d","trinary","B","53.25","8","8","0","A","C","A","B","75","71","",""
"","","","","","html-keyboard-response","60","242387","0.0-6.0-0.27","019","null","<p style=""text-align: center;"">+</p>","null","fixation","","","","","","","","","","","","",""
"","","","","","html-keyboard-response","61","250851","0.0-6.0-1.27","019","8463","
                    <p class=""lotteries"">
                      <span><img src='img/A.png', width=""30""></span>
                      <span><img src='img/S.png', width=""30""></span>
                      <span><img src='img/D.png', width=""30""></span>
                    </p>
                    <p class=""lotteries"">
                      <span>₪11</span>
                      <span>₪58</span>
                      <span>₪64</span>
                    </p>
                    <p class=""lotteries"">
                      <span>45%</span>
                      <span>40%</span>
                      <span>25%</span>
                    </p>","s","trinary","B","23.2","21","21","0","-","C","B","A","40","58","",""
"","","","","","html-keyboard-response","62","251501","0.0-6.0-0.28","019","null","<p style=""text-align: center;"">+</p>","null","fixation","","","","","","","","","","","","",""
"","","","","","html-keyboard-response","63","255308","0.0-6.0-1.28","019","3805","
                    <p class=""lotteries"">
                      <span><img src='img/A.png', width=""30""></span>
                      <span><img src='img/S.png', width=""30""></span>
                      <span><img src='img/D.png', width=""30""></span>
                    </p>
                    <p class=""lotteries"">
                      <span>₪4</span>
                      <span>₪11</span>
                      <span>₪11</span>
                    </p>
                    <p class=""lotteries"">
                      <span>75%</span>
                      <span>25%</span>
                      <span>20%</span>
                    </p>","a","trinary","B","3","12","12","0","A","B","A","C","75","4","",""
"","","","","","html-keyboard-response","64","256519","0.0-6.0-0.29","019","null","<p style=""text-align: center;"">+</p>","null","fixation","","","","","","","","","","","","",""
"","","","","","html-keyboard-response","65","261371","0.0-6.0-1.29","019","4851","
                    <p class=""lotteries"">
                      <span><img src='img/A.png', width=""30""></span>
                      <span><img src='img/S.png', width=""30""></span>
                      <span><img src='img/D.png', width=""30""></span>
                    </p>
                    <p class=""lotteries"">
                      <span>₪4</span>
                      <span>₪11</span>
                      <span>₪4</span>
                    </p>
                    <p class=""lotteries"">
                      <span>75%</span>
                      <span>75%</span>
                      <span>25%</span>
                    </p>","s","trinary","A","8.25","29","29","1","-","C","A","B","75","11","",""
"","","","","","html-keyboard-response","66","262374","0.0-7.0","019","null","<p style=""text-align: center;"">+</p>","null","fixation","","","","","","","","","","","","",""
"","","","","","html-keyboard-response","67","265947","0.0-8.0","019","3571","<p>הפסקה.
          <br>לחצו על רווח כדי להמשיך.</p>"," ","scan_wait","","","","","","","","","","","","",""
"","","","","","html-keyboard-response","68","267018","0.0-9.0-0.0","019","null","<p style=""text-align: center;"">+</p>","null","fixation","","","","","","","","","","","","",""
"","","","","","html-keyboard-response","69","271203","0.0-9.0-1.0","019","4183","
                    <p class=""lotteries"">
                      <span><img src='img/A.png', width=""30""></span>
                      <span><img src='img/S.png', width=""30""></span>
                      <span><img src='img/D.png', width=""30""></span>
                    </p>
                    <p class=""lotteries"">
                      <span>₪39</span>
                      <span>₪61</span>
                      <span>₪43</span>
                    </p>
                    <p class=""lotteries"">
                      <span>65%</span>
                      <span>55%</span>
                      <span>75%</span>
                    </p>","d","trinary","A","32.25","26","26","0","A","C","B","A","75","43","",""
"","","","","","html-keyboard-response","70","271916","0.0-9.0-0.1","019","null","<p style=""text-align: center;"">+</p>","null","fixation","","","","","","","","","","","","",""
"","","","","","html-keyboard-response","71","275195","0.0-9.0-1.1","019","3278","
                    <p class=""lotteries"">
                      <span><img src='img/A.png', width=""30""></span>
                      <span><img src='img/S.png', width=""30""></span>
                      <span><img src='img/D.png', width=""30""></span>
                    </p>
                    <p class=""lotteries"">
                      <span>₪71</span>
                      <span>₪11</span>
                      <span>₪58</span>
                    </p>
                    <p class=""lotteries"">
                      <span>55%</span>
                      <span>75%</span>
                      <span>45%</span>
                    </p>","a","trinary","A","39.05","18","18","0","A","A","B","C","55","71","",""
"","","","","","html-keyboard-response","72","276134","0.0-9.0-0.2","019","null","<p style=""text-align: center;"">+</p>","null","fixation","","","","","","","","","","","","",""
"","","","","","html-keyboard-response","73","279044","0.0-9.0-1.2","019","2908","
                    <p class=""lotteries"">
                      <span><img src='img/A.png', width=""30""></span>
                      <span><img src='img/S.png', width=""30""></span>
                      <span><img src='img/D.png', width=""30""></span>
                    </p>
                    <p class=""lotteries"">
                      <span>₪58</span>
                      <span>₪58</span>
                      <span>₪36</span>
                    </p>
                    <p class=""lotteries"">
                      <span>30%</span>
                      <span>40%</span>
                      <span>75%</span>
                    </p>","d","trinary","B","27","13","13","0","A","C","A","B","75","36","",""
"","","","","","html-keyboard-response","74","280033","0.0-9.0-0.3","019","null","<p style=""text-align: center;"">+</p>","null","fixation","","","","","","","","","","","","",""
"","","","","","html-keyboard-response","75","285331","0.0-9.0-1.3","019","5296","
                    <p class=""lotteries"">
                      <span><img src='img/A.png', width=""30""></span>
                      <span><img src='img/S.png', width=""30""></span>
                      <span><img src='img/D.png', width=""30""></span>
                    </p>
                    <p class=""lotteries"">
                      <span>₪11</span>
                      <span>₪58</span>
                      <span>₪64</span>
                    </p>
                    <p class=""lotteries"">
                      <span>45%</span>
                      <span>40%</span>
                      <span>25%</span>
                    </p>","s","trinary","B","23.2","21","21","0","-","C","B","A","40","58","",""
"","","","","","html-keyboard-response","76","285999","0.0-9.0-0.4","019","null","<p style=""text-align: center;"">+</p>","null","fixation","","","","","","","","","","","","",""
"","","","","","html-keyboard-response","77","290395","0.0-9.0-1.4","019","4394","
                    <p class=""lotteries"">
                      <span><img src='img/A.png', width=""30""></span>
                      <span><img src='img/S.png', width=""30""></span>
                      <span><img src='img/D.png', width=""30""></span>
                    </p>
                    <p class=""lotteries"">
                      <span>₪4</span>
                      <span>₪16</span>
                      <span>₪11</span>
                    </p>
                    <p class=""lotteries"">
                      <span>75%</span>
                      <span>20%</span>
                      <span>25%</span>
                    </p>","a","trinary","C","3","27","27","0","-","C","A","B","75","4","",""
"","","","","","html-keyboard-response","78","291346","0.0-9.0-0.5","019","null","<p style=""text-align: center;"">+</p>","null","fixation","","","","","","","","","","","","",""
"","","","","","html-keyboard-response","79","295195","0.0-9.0-1.5","019","3848","
                    <p class=""lotteries"">
                      <span><img src='img/A.png', width=""30""></span>
                      <span><img src='img/S.png', width=""30""></span>
                      <span><img src='img/D.png', width=""30""></span>
                    </p>
                    <p class=""lotteries"">
                      <span>₪11</span>
                      <span>₪4</span>
                      <span>₪4</span>
                    </p>
                    <p class=""lotteries"">
                      <span>75%</span>
                      <span>25%</span>
                      <span>75%</span>
                    </p>","a","trinary","A","8.25","29","29","1","-","A","B","C","75","11","",""
"","","","","","html-keyboard-response","80","295812","0.0-9.0-0.6","019","null","<p style=""text-align: center;"">+</p>","null","fixation","","","","","","","","","","","","",""
"","","","","","html-keyboard-response","81","299211","0.0-9.0-1.6","019","3398","
                    <p class=""lotteries"">
                      <span><img src='img/A.png', width=""30""></span>
                      <span><img src='img/S.png', width=""30""></span>
                      <span><img src='img/D.png', width=""30""></span>
                    </p>
                    <p class=""lotteries"">
                      <span>₪76</span>
                      <span>₪71</span>
                      <span>₪79</span>
                    </p>
                    <p class=""lotteries"">
                      <span>65%</span>
                      <span>75%</span>
                      <span>65%</span>
                    </p>","s","trinary","B","53.25","8","8","0","A","C","B","A","75","71","",""
"","","","","","html-keyboard-response","82","299845","0.0-9.0-0.7","019","null","<p style=""text-align: center;"">+</p>","null","fixation","","","","","","","","","","","","",""
"","","","","","html-keyboard-response","83","305819","0.0-9.0-1.7","019","5973","
                    <p class=""lotteries"">
                      <span><img src='img/A.png', width=""30""></span>
                      <span><img src='img/S.png', width=""30""></span>
                      <span><img src='img/D.png', width=""30""></span>
                    </p>
                    <p class=""lotteries"">
                      <span>₪76</span>
                      <span>₪43</span>
                      <span>₪11</span>
                    </p>
                    <p class=""lotteries"">
                      <span>65%</span>
                      <span>75%</span>
                      <span>75%</span>
                    </p>","s","trinary","A","32.25","24","24","0","A","B","A","C","75","43","",""
"","","","","","html-keyboard-response","84","307271","0.0-9.0-0.8","019","null","<p style=""text-align: center;"">+</p>","null","fixation","","","","","","","","","","","","",""
"","","","","","html-keyboard-response","85","314339","0.0-9.0-1.8","019","7066","
                    <p class=""lotteries"">
                      <span><img src='img/A.png', width=""30""></span>
                      <span><img src='img/S.png', width=""30""></span>
                      <span><img src='img/D.png', width=""30""></span>
                    </p>
                    <p class=""lotteries"">
                      <span>₪18</span>
                      <span>₪71</span>
                      <span>₪36</span>
                    </p>
                    <p class=""lotteries"">
                      <span>50%</span>
                      <span>45%</span>
                      <span>75%</span>
                    </p>","d","trinary","B","27","16","16","0","A","C","A","B","75","36","",""
"","","","","","html-keyboard-response","86","315314","0.0-9.0-0.9","019","null","<p style=""text-align: center;"">+</p>","null","fixation","","","","","","","","","","","","",""
"","","","","","html-keyboard-response","87","327498","0.0-9.0-1.9","019","12183","
                    <p class=""lotteries"">
                      <span><img src='img/A.png', width=""30""></span>
                      <span><img src='img/S.png', width=""30""></span>
                      <span><img src='img/D.png', width=""30""></span>
                    </p>
                    <p class=""lotteries"">
                      <span>₪36</span>
                      <span>₪61</span>
                      <span>₪43</span>
                    </p>
                    <p class=""lotteries"">
                      <span>60%</span>
                      <span>55%</span>
                      <span>60%</span>
                    </p>","s","trinary","B","33.55","7","7","0","A","C","B","A","55","61","",""
"","","","","","html-keyboard-response","88","328368","0.0-9.0-0.10","019","null","<p style=""text-align: center;"">+</p>","null","fixation","","","","","","","","","","","","",""
"","","","","","html-keyboard-response","89","332387","0.0-9.0-1.10","019","4018","
                    <p class=""lotteries"">
                      <span><img src='img/A.png', width=""30""></span>
                      <span><img src='img/S.png', width=""30""></span>
                      <span><img src='img/D.png', width=""30""></span>
                    </p>
                    <p class=""lotteries"">
                      <span>₪36</span>
                      <span>₪16</span>
                      <span>₪4</span>
                    </p>
                    <p class=""lotteries"">
                      <span>30%</span>
                      <span>20%</span>
                      <span>75%</span>
                    </p>","a","trinary","A","10.8","20","20","0","A","A","C","B","30","36","",""
"","","","","","html-keyboard-response","90","333177","0.0-9.0-0.11","019","null","<p style=""text-align: center;"">+</p>","null","fixation","","","","","","","","","","","","",""
"","","","","","html-keyboard-response","91","337398","0.0-9.0-1.11","019","4219","
                    <p class=""lotteries"">
                      <span><img src='img/A.png', width=""30""></span>
                      <span><img src='img/S.png', width=""30""></span>
                      <span><img src='img/D.png', width=""30""></span>
                    </p>
                    <p class=""lotteries"">
                      <span>₪11</span>
                      <span>₪58</span>
                      <span>₪39</span>
                    </p>
                    <p class=""lotteries"">
                      <span>45%</span>
                      <span>45%</span>
                      <span>60%</span>
                    </p>","d","trinary","B","23.4","25","25","0","A","C","A","B","60","39","",""
"","","","","","html-keyboard-response","92","338808","0.0-9.0-0.12","019","null","<p style=""text-align: center;"">+</p>","null","fixation","","","","","","","","","","","","",""
"","","","","","html-keyboard-response","93","343419","0.0-9.0-1.12","019","4610","
                    <p class=""lotteries"">
                      <span><img src='img/A.png', width=""30""></span>
                      <span><img src='img/S.png', width=""30""></span>
                      <span><img src='img/D.png', width=""30""></span>
                    </p>
                    <p class=""lotteries"">
                      <span>₪43</span>
                      <span>₪36</span>
                      <span>₪39</span>
                    </p>
                    <p class=""lotteries"">
                      <span>60%</span>
                      <span>60%</span>
                      <span>65%</span>
                    </p>","d","trinary","A","25.35","15","15","0","-","B","C","A","65","39","",""
"","","","","","html-keyboard-response","94","344699","0.0-9.0-0.13","019","null","<p style=""text-align: center;"">+</p>","null","fixation","","","","","","","","","","","","",""
"","","","","","html-keyboard-response","95","348531","0.0-9.0-1.13","019","3831","
                    <p class=""lotteries"">
                      <span><img src='img/A.png', width=""30""></span>
                      <span><img src='img/S.png', width=""30""></span>
                      <span><img src='img/D.png', width=""30""></span>
                    </p>
                    <p class=""lotteries"">
                      <span>₪18</span>
                      <span>₪71</span>
                      <span>₪43</span>
                    </p>
                    <p class=""lotteries"">
                      <span>50%</span>
                      <span>45%</span>
                      <span>60%</span>
                    </p>","d","trinary","A","25.8","2","2","0","A","C","B","A","60","43","",""
"","","","","","html-keyboard-response","96","349111","0.0-9.0-0.14","019","null","<p style=""text-align: center;"">+</p>","null","fixation","","","","","","","","","","","","",""
"","","","","","html-keyboard-response","97","357291","0.0-9.0-1.14","019","8179","
                    <p class=""lotteries"">
                      <span><img src='img/A.png', width=""30""></span>
                      <span><img src='img/S.png', width=""30""></span>
                      <span><img src='img/D.png', width=""30""></span>
                    </p>
                    <p class=""lotteries"">
                      <span>₪11</span>
                      <span>₪16</span>
                      <span>₪18</span>
                    </p>
                    <p class=""lotteries"">
                      <span>45%</span>
                      <span>20%</span>
                      <span>25%</span>
                    </p>","a","trinary","B","4.95","14","14","0","A","B","C","A","45","11","",""
"","","","","","html-keyboard-response","98","358005","0.0-9.0-0.15","019","null","<p style=""text-align: center;"">+</p>","null","fixation","","","","","","","","","","","","",""
"","","","","","html-keyboard-response","99","367066","0.0-9.0-1.15","019","9060","
                    <p class=""lotteries"">
                      <span><img src='img/A.png', width=""30""></span>
                      <span><img src='img/S.png', width=""30""></span>
                      <span><img src='img/D.png', width=""30""></span>
                    </p>
                    <p class=""lotteries"">
                      <span>₪4</span>
                      <span>₪58</span>
                      <span>₪11</span>
                    </p>
                    <p class=""lotteries"">
                      <span>25%</span>
                      <span>30%</span>
                      <span>25%</span>
                    </p>","s","trinary","A","17.4","30","30","1","-","C","A","B","30","58","",""
"","","","","","html-keyboard-response","100","367892","0.0-9.0-0.16","019","null","<p style=""text-align: center;"">+</p>","null","fixation","","","","","","","","","","","","",""
"","","","","","html-keyboard-response","101","372458","0.0-9.0-1.16","019","4565","
                    <p class=""lotteries"">
                      <span><img src='img/A.png', width=""30""></span>
                      <span><img src='img/S.png', width=""30""></span>
                      <span><img src='img/D.png', width=""30""></span>
                    </p>
                    <p class=""lotteries"">
                      <span>₪11</span>
                      <span>₪18</span>
                      <span>₪36</span>
                    </p>
                    <p class=""lotteries"">
                      <span>75%</span>
                      <span>50%</span>
                      <span>30%</span>
                    </p>","a","trinary","C","8.25","22","22","0","-","C","B","A","75","11","",""
"","","","","","html-keyboard-response","102","373716","0.0-9.0-0.17","019","null","<p style=""text-align: center;"">+</p>","null","fixation","","","","","","","","","","","","",""
"","","","","","html-keyboard-response","103","376946","0.0-9.0-1.17","019","3228","
                    <p class=""lotteries"">
                      <span><img src='img/A.png', width=""30""></span>
                      <span><img src='img/S.png', width=""30""></span>
                      <span><img src='img/D.png', width=""30""></span>
                    </p>
                    <p class=""lotteries"">
                      <span>₪36</span>
                      <span>₪61</span>
                      <span>₪58</span>
                    </p>
                    <p class=""lotteries"">
                      <span>70%</span>
                      <span>45%</span>
                      <span>40%</span>
                    </p>","a","trinary","B","25.2","10","10","0","A","B","A","C","70","36","",""
"","","","","","html-keyboard-response","104","377793","0.0-9.0-0.18","019","null","<p style=""text-align: center;"">+</p>","null","fixation","","","","","","","","","","","","",""
"","","","","","html-keyboard-response","105","383706","0.0-9.0-1.18","019","5912","
                    <p class=""lotteries"">
                      <span><img src='img/A.png', width=""30""></span>
                      <span><img src='img/S.png', width=""30""></span>
                      <span><img src='img/D.png', width=""30""></span>
                    </p>
                    <p class=""lotteries"">
                      <span>₪4</span>
                      <span>₪11</span>
                      <span>₪64</span>
                    </p>
                    <p class=""lotteries"">
                      <span>25%</span>
                      <span>75%</span>
                      <span>25%</span>
                    </p>","d","trinary","A","16","6","6","0","B","C","B","A","25","64","",""
"","","","","","html-keyboard-response","106","384875","0.0-9.0-0.19","019","null","<p style=""text-align: center;"">+</p>","null","fixation","","","","","","","","","","","","",""
"","","","","","html-keyboard-response","107","388402","0.0-9.0-1.19","019","3526","
                    <p class=""lotteries"">
                      <span><img src='img/A.png', width=""30""></span>
                      <span><img src='img/S.png', width=""30""></span>
                      <span><img src='img/D.png', width=""30""></span>
                    </p>
                    <p class=""lotteries"">
                      <span>₪36</span>
                      <span>₪64</span>
                      <span>₪4</span>
                    </p>
                    <p class=""lotteries"">
                      <span>75%</span>
                      <span>50%</span>
                      <span>50%</span>
                    </p>","s","trinary","A","32","4","4","0","A","B","A","C","50","64","",""
"","","","","","html-keyboard-response","108","389509","0.0-9.0-0.20","019","null","<p style=""text-align: center;"">+</p>","null","fixation","","","","","","","","","","","","",""
"","","","","","html-keyboard-response","109","393562","0.0-9.0-1.20","019","4051","
                    <p class=""lotteries"">
                      <span><img src='img/A.png', width=""30""></span>
                      <span><img src='img/S.png', width=""30""></span>
                      <span><img src='img/D.png', width=""30""></span>
                    </p>
                    <p class=""lotteries"">
                      <span>₪4</span>
                      <span>₪16</span>
                      <span>₪11</span>
                    </p>
                    <p class=""lotteries"">
                      <span>50%</span>
                      <span>20%</span>
                      <span>20%</span>
                    </p>","a","trinary","B","2","17","17","0","A","B","A","C","50","4","",""
"","","","","","html-keyboard-response","110","394349","0.0-9.0-0.21","019","null","<p style=""text-align: center;"">+</p>","null","fixation","","","","","","","","","","","","",""
"","","","","","html-keyboard-response","111","397938","0.0-9.0-1.21","019","3587","
                    <p class=""lotteries"">
                      <span><img src='img/A.png', width=""30""></span>
                      <span><img src='img/S.png', width=""30""></span>
                      <span><img src='img/D.png', width=""30""></span>
                    </p>
                    <p class=""lotteries"">
                      <span>₪4</span>
                      <span>₪18</span>
                      <span>₪11</span>
                    </p>
                    <p class=""lotteries"">
                      <span>75%</span>
                      <span>25%</span>
                      <span>20%</span>
                    </p>","a","trinary","B","3","23","23","0","A","B","A","C","75","4","",""
"","","","","","html-keyboard-response","112","399083","0.0-9.0-0.22","019","null","<p style=""text-align: center;"">+</p>","null","fixation","","","","","","","","","","","","",""
"","","","","","html-keyboard-response","113","403466","0.0-9.0-1.22","019","4381","
                    <p class=""lotteries"">
                      <span><img src='img/A.png', width=""30""></span>
                      <span><img src='img/S.png', width=""30""></span>
                      <span><img src='img/D.png', width=""30""></span>
                    </p>
                    <p class=""lotteries"">
                      <span>₪79</span>
                      <span>₪43</span>
                      <span>₪39</span>
                    </p>
                    <p class=""lotteries"">
                      <span>40%</span>
                      <span>60%</span>
                      <span>60%</span>
                    </p>","s","trinary","A","25.8","9","9","0","A","B","A","C","60","43","",""
"","","","","","html-keyboard-response","114","404301","0.0-9.0-0.23","019","null","<p style=""text-align: center;"">+</p>","null","fixation","","","","","","","","","","","","",""
"","","","","","html-keyboard-response","115","406858","0.0-9.0-1.23","019","2556","
                    <p class=""lotteries"">
                      <span><img src='img/A.png', width=""30""></span>
                      <span><img src='img/S.png', width=""30""></span>
                      <span><img src='img/D.png', width=""30""></span>
                    </p>
                    <p class=""lotteries"">
                      <span>₪4</span>
                      <span>₪11</span>
                      <span>₪11</span>
                    </p>
                    <p class=""lotteries"">
                      <span>75%</span>
                      <span>20%</span>
                      <span>25%</span>
                    </p>","a","trinary","B","3","12","12","0","A","B","C","A","75","4","",""
"","","","","","html-keyboard-response","116","407769","0.0-9.0-0.24","019","null","<p style=""text-align: center;"">+</p>","null","fixation","","","","","","","","","","","","",""
"","","","","","html-keyboard-response","117","412026","0.0-9.0-1.24","019","4255","
                    <p class=""lotteries"">
                      <span><img src='img/A.png', width=""30""></span>
                      <span><img src='img/S.png', width=""30""></span>
                      <span><img src='img/D.png', width=""30""></span>
                    </p>
                    <p class=""lotteries"">
                      <span>₪36</span>
                      <span>₪36</span>
                      <span>₪71</span>
                    </p>
                    <p class=""lotteries"">
                      <span>70%</span>
                      <span>75%</span>
                      <span>55%</span>
                    </p>","s","trinary","A","27","5","5","0","A","C","A","B","75","36","",""
"","","","","","html-keyboard-response","118","413141","0.0-9.0-0.25","019","null","<p style=""text-align: center;"">+</p>","null","fixation","","","","","","","","","","","","",""
"","","","","","html-keyboard-response","119","416602","0.0-9.0-1.25","019","3459","
                    <p class=""lotteries"">
                      <span><img src='img/A.png', width=""30""></span>
                      <span><img src='img/S.png', width=""30""></span>
                      <span><img src='img/D.png', width=""30""></span>
                    </p>
                    <p class=""lotteries"">
                      <span>₪58</span>
                      <span>₪76</span>
                      <span>₪43</span>
                    </p>
                    <p class=""lotteries"">
                      <span>40%</span>
                      <span>65%</span>
                      <span>75%</span>
                    </p>","s","trinary","A","49.4","19","19","0","-","C","A","B","65","76","",""
"","","","","","html-keyboard-response","120","417901","0.0-9.0-0.26","019","null","<p style=""text-align: center;"">+</p>","null","fixation","","","","","","","","","","","","",""
"","","","","","html-keyboard-response","121","424242","0.0-9.0-1.26","019","6340","
                    <p class=""lotteries"">
                      <span><img src='img/A.png', width=""30""></span>
                      <span><img src='img/S.png', width=""30""></span>
                      <span><img src='img/D.png', width=""30""></span>
                    </p>
                    <p class=""lotteries"">
                      <span>₪43</span>
                      <span>₪61</span>
                      <span>₪58</span>
                    </p>
                    <p class=""lotteries"">
                      <span>75%</span>
                      <span>45%</span>
                      <span>45%</span>
                    </p>","a","trinary","B","32.25","11","11","0","A","B","A","C","75","43","",""
"","","","","","html-keyboard-response","122","425039","0.0-9.0-0.27","019","null","<p style=""text-align: center;"">+</p>","null","fixation","","","","","","","","","","","","",""
"","","","","","html-keyboard-response","123","430033","0.0-9.0-1.27","019","4992","
                    <p class=""lotteries"">
                      <span><img src='img/A.png', width=""30""></span>
                      <span><img src='img/S.png', width=""30""></span>
                      <span><img src='img/D.png', width=""30""></span>
                    </p>
                    <p class=""lotteries"">
                      <span>₪64</span>
                      <span>₪36</span>
                      <span>₪39</span>
                    </p>
                    <p class=""lotteries"">
                      <span>50%</span>
                      <span>60%</span>
                      <span>65%</span>
                    </p>","a","trinary","B","32","1","1","0","A","B","C","A","50","64","",""
"","","","","","html-keyboard-response","124","431353","0.0-9.0-0.28","019","null","<p style=""text-align: center;"">+</p>","null","fixation","","","","","","","","","","","","",""
"","","","","","html-keyboard-response","125","434154","0.0-9.0-1.28","019","2800","
                    <p class=""lotteries"">
                      <span><img src='img/A.png', width=""30""></span>
                      <span><img src='img/S.png', width=""30""></span>
                      <span><img src='img/D.png', width=""30""></span>
                    </p>
                    <p class=""lotteries"">
                      <span>₪64</span>
                      <span>₪36</span>
                      <span>₪36</span>
                    </p>
                    <p class=""lotteries"">
                      <span>50%</span>
                      <span>70%</span>
                      <span>30%</span>
                    </p>","s","trinary","A","25.2","3","3","0","-","B","A","C","70","36","",""
"","","","","","html-keyboard-response","126","434763","0.0-9.0-0.29","019","null","<p style=""text-align: center;"">+</p>","null","fixation","","","","","","","","","","","","",""
"","","","","","html-keyboard-response","127","437930","0.0-9.0-1.29","019","3166","
                    <p class=""lotteries"">
                      <span><img src='img/A.png', width=""30""></span>
                      <span><img src='img/S.png', width=""30""></span>
                      <span><img src='img/D.png', width=""30""></span>
                    </p>
                    <p class=""lotteries"">
                      <span>₪11</span>
                      <span>₪18</span>
                      <span>₪11</span>
                    </p>
                    <p class=""lotteries"">
                      <span>20%</span>
                      <span>50%</span>
                      <span>25%</span>
                    </p>","s","trinary","A","9","28","28","1","-","C","A","B","50","18","",""
"","","","","","html-keyboard-response","128","438934","0.0-10.0","019","null","<p style=""text-align: center;"">+</p>","null","fixation","","","","","","","","","","","","",""
"","","","","","html-keyboard-response","129","440794","0.0-11.0","019","1858","<p>הפסקה.
          <br>לחצו על רווח כדי להמשיך.</p>"," ","scan_wait","","","","","","","","","","","","",""
"","","","","","html-keyboard-response","130","442062","0.0-12.0-0.0","019","null","<p style=""text-align: center;"">+</p>","null","fixation","","","","","","","","","","","","",""
"","","","","","html-keyboard-response","131","449530","0.0-12.0-1.0","019","7467","
                    <p class=""lotteries"">
                      <span><img src='img/A.png', width=""30""></span>
                      <span><img src='img/S.png', width=""30""></span>
                      <span><img src='img/D.png', width=""30""></span>
                    </p>
                    <p class=""lotteries"">
                      <span>₪11</span>
                      <span>₪39</span>
                      <span>₪58</span>
                    </p>
                    <p class=""lotteries"">
                      <span>45%</span>
                      <span>60%</span>
                      <span>45%</span>
                    </p>","s","trinary","B","23.4","25","25","0","A","C","B","A","60","39","",""
"","","","","","html-keyboard-response","132","450519","0.0-12.0-0.1","019","null","<p style=""text-align: center;"">+</p>","null","fixation","","","","","","","","","","","","",""
"","","","","","html-keyboard-response","133","453586","0.0-12.0-1.1","019","3065","
                    <p class=""lotteries"">
                      <span><img src='img/A.png', width=""30""></span>
                      <span><img src='img/S.png', width=""30""></span>
                      <span><img src='img/D.png', width=""30""></span>
                    </p>
                    <p class=""lotteries"">
                      <span>₪11</span>
                      <span>₪4</span>
                      <span>₪58</span>
                    </p>
                    <p class=""lotteries"">
                      <span>25%</span>
                      <span>25%</span>
                      <span>30%</span>
                    </p>","d","trinary","A","17.4","30","30","1","-","B","C","A","30","58","",""
"","","","","","html-keyboard-response","134","454626","0.0-12.0-0.2","019","null","<p style=""text-align: center;"">+</p>","null","fixation","","","","","","","","","","","","",""
"","","","","","html-keyboard-response","135","460667","0.0-12.0-1.2","019","6040","
                    <p class=""lotteries"">
                      <span><img src='img/A.png', width=""30""></span>
                      <span><img src='img/S.png', width=""30""></span>
                      <span><img src='img/D.png', width=""30""></span>
                    </p>
                    <p class=""lotteries"">
                      <span>₪43</span>
                      <span>₪61</span>
                      <span>₪36</span>
                    </p>
                    <p class=""lotteries"">
                      <span>60%</span>
                      <span>55%</span>
                      <span>60%</span>
                    </p>","s","trinary","B","33.55","7","7","0","A","A","B","C","55","61","",""
"","","","","","html-keyboard-response","136","462139","0.0-12.0-0.3","019","null","<p style=""text-align: center;"">+</p>","null","fixation","","","","","","","","","","","","",""
"","","","","","html-keyboard-response","137","464408","0.0-12.0-1.3","019","2268","
                    <p class=""lotteries"">
                      <span><img src='img/A.png', width=""30""></span>
                      <span><img src='img/S.png', width=""30""></span>
                      <span><img src='img/D.png', width=""30""></span>
                    </p>
                    <p class=""lotteries"">
                      <span>₪36</span>
                      <span>₪18</span>
                      <span>₪71</span>
                    </p>
                    <p class=""lotteries"">
                      <span>75%</span>
                      <span>50%</span>
                      <span>45%</span>
                    </p>","a","trinary","B","27","16","16","0","A","B","C","A","75","36","",""
"","","","","","html-keyboard-response","138","464960","0.0-12.0-0.4","019","null","<p style=""text-align: center;"">+</p>","null","fixation","","","","","","","","","","","","",""
"","","","","","html-keyboard-response","139","468041","0.0-12.0-1.4","019","3080","
                    <p class=""lotteries"">
                      <span><img src='img/A.png', width=""30""></span>
                      <span><img src='img/S.png', width=""30""></span>
                      <span><img src='img/D.png', width=""30""></span>
                    </p>
                    <p class=""lotteries"">
                      <span>₪58</span>
                      <span>₪36</span>
                      <span>₪61</span>
                    </p>
                    <p class=""lotteries"">
                      <span>40%</span>
                      <span>70%</span>
                      <span>45%</span>
                    </p>","s","trinary","B","25.2","10","10","0","A","C","B","A","70","36","",""
"","","","","","html-keyboard-response","140","469449","0.0-12.0-0.5","019","null","<p style=""text-align: center;"">+</p>","null","fixation","","","","","","","","","","","","",""
"","","","","","html-keyboard-response","141","471705","0.0-12.0-1.5","019","2255","
                    <p class=""lotteries"">
                      <span><img src='img/A.png', width=""30""></span>
                      <span><img src='img/S.png', width=""30""></span>
                      <span><img src='img/D.png', width=""30""></span>
                    </p>
                    <p class=""lotteries"">
                      <span>₪11</span>
                      <span>₪4</span>
                      <span>₪11</span>
                    </p>
                    <p class=""lotteries"">
                      <span>25%</span>
                      <span>75%</span>
                      <span>20%</span>
                    </p>","s","trinary","B","3","12","12","0","A","A","B","C","75","4","",""
"","","","","","html-keyboard-response","142","472763","0.0-12.0-0.6","019","null","<p style=""text-align: center;"">+</p>","null","fixation","","","","","","","","","","","","",""
"","","","","","html-keyboard-response","143","477841","0.0-12.0-1.6","019","5077","
                    <p class=""lotteries"">
                      <span><img src='img/A.png', width=""30""></span>
                      <span><img src='img/S.png', width=""30""></span>
                      <span><img src='img/D.png', width=""30""></span>
                    </p>
                    <p class=""lotteries"">
                      <span>₪76</span>
                      <span>₪79</span>
                      <span>₪71</span>
                    </p>
                    <p class=""lotteries"">
                      <span>65%</span>
                      <span>65%</span>
                      <span>75%</span>
                    </p>","d","trinary","B","53.25","8","8","0","A","C","A","B","75","71","",""
"","","","","","html-keyboard-response","144","479177","0.0-12.0-0.7","019","null","<p style=""text-align: center;"">+</p>","null","fixation","","","","","","","","","","","","",""
"","","","","","html-keyboard-response","145","482753","0.0-12.0-1.7","019","3573","
                    <p class=""lotteries"">
                      <span><img src='img/A.png', width=""30""></span>
                      <span><img src='img/S.png', width=""30""></span>
                      <span><img src='img/D.png', width=""30""></span>
                    </p>
                    <p class=""lotteries"">
                      <span>₪36</span>
                      <span>₪43</span>
                      <span>₪39</span>
                    </p>
                    <p class=""lotteries"">
                      <span>60%</span>
                      <span>60%</span>
                      <span>65%</span>
                    </p>","d","trinary","A","25.35","15","15","0","-","C","B","A","65","39","",""
"","","","","","html-keyboard-response","146","484197","0.0-12.0-0.8","019","null","<p style=""text-align: center;"">+</p>","null","fixation","","","","","","","","","","","","",""
"","","","","","html-keyboard-response","147","488586","0.0-12.0-1.8","019","4387","
                    <p class=""lotteries"">
                      <span><img src='img/A.png', width=""30""></span>
                      <span><img src='img/S.png', width=""30""></span>
                      <span><img src='img/D.png', width=""30""></span>
                    </p>
                    <p class=""lotteries"">
                      <span>₪36</span>
                      <span>₪64</span>
                      <span>₪36</span>
                    </p>
                    <p class=""lotteries"">
                      <span>30%</span>
                      <span>50%</span>
                      <span>70%</span>
                    </p>","d","trinary","A","25.2","3","3","0","-","C","B","A","70","36","",""
"","","","","","html-keyboard-response","148","490041","0.0-12.0-0.9","019","null","<p style=""text-align: center;"">+</p>","null","fixation","","","","","","","","","","","","",""
"","","","","","html-keyboard-response","149","493050","0.0-12.0-1.9","019","3007","
                    <p class=""lotteries"">
                      <span><img src='img/A.png', width=""30""></span>
                      <span><img src='img/S.png', width=""30""></span>
                      <span><img src='img/D.png', width=""30""></span>
                    </p>
                    <p class=""lotteries"">
                      <span>₪43</span>
                      <span>₪61</span>
                      <span>₪58</span>
                    </p>
                    <p class=""lotteries"">
                      <span>75%</span>
                      <span>45%</span>
                      <span>45%</span>
                    </p>","a","trinary","B","32.25","11","11","0","A","B","A","C","75","43","",""
"","","","","","html-keyboard-response","150","494317","0.0-12.0-0.10","019","null","<p style=""text-align: center;"">+</p>","null","fixation","","","","","","","","","","","","",""
"","","","","","html-keyboard-response","151","497618","0.0-12.0-1.10","019","3300","
                    <p class=""lotteries"">
                      <span><img src='img/A.png', width=""30""></span>
                      <span><img src='img/S.png', width=""30""></span>
                      <span><img src='img/D.png', width=""30""></span>
                    </p>
                    <p class=""lotteries"">
                      <span>₪4</span>
                      <span>₪4</span>
                      <span>₪11</span>
                    </p>
                    <p class=""lotteries"">
                      <span>75%</span>
                      <span>25%</span>
                      <span>75%</span>
                    </p>","d","trinary","A","8.25","29","29","1","-","C","B","A","75","11","",""
"","","","","","html-keyboard-response","152","498896","0.0-12.0-0.11","019","null","<p style=""text-align: center;"">+</p>","null","fixation","","","","","","","","","","","","",""
"","","","","","html-keyboard-response","153","501234","0.0-12.0-1.11","019","2336","
                    <p class=""lotteries"">
                      <span><img src='img/A.png', width=""30""></span>
                      <span><img src='img/S.png', width=""30""></span>
                      <span><img src='img/D.png', width=""30""></span>
                    </p>
                    <p class=""lotteries"">
                      <span>₪18</span>
                      <span>₪11</span>
                      <span>₪4</span>
                    </p>
                    <p class=""lotteries"">
                      <span>25%</span>
                      <span>20%</span>
                      <span>75%</span>
                    </p>","d","trinary","B","3","23","23","0","A","A","C","B","75","4","",""
"","","","","","html-keyboard-response","154","502239","0.0-12.0-0.12","019","null","<p style=""text-align: center;"">+</p>","null","fixation","","","","","","","","","","","","",""
"","","","","","html-keyboard-response","155","511090","0.0-12.0-1.12","019","8850","
                    <p class=""lotteries"">
                      <span><img src='img/A.png', width=""30""></span>
                      <span><img src='img/S.png', width=""30""></span>
                      <span><img src='img/D.png', width=""30""></span>
                    </p>
                    <p class=""lotteries"">
                      <span>₪36</span>
                      <span>₪64</span>
                      <span>₪39</span>
                    </p>
                    <p class=""lotteries"">
                      <span>60%</span>
                      <span>50%</span>
                      <span>65%</span>
                    </p>","d","trinary","A","25.35","1","1","0","A","C","B","A","65","39","",""
"","","","","","html-keyboard-response","156","511785","0.0-12.0-0.13","019","null","<p style=""text-align: center;"">+</p>","null","fixation","","","","","","","","","","","","",""
"","","","","","html-keyboard-response","157","520305","0.0-12.0-1.13","019","8519","
                    <p class=""lotteries"">
                      <span><img src='img/A.png', width=""30""></span>
                      <span><img src='img/S.png', width=""30""></span>
                      <span><img src='img/D.png', width=""30""></span>
                    </p>
                    <p class=""lotteries"">
                      <span>₪39</span>
                      <span>₪43</span>
                      <span>₪79</span>
                    </p>
                    <p class=""lotteries"">
                      <span>60%</span>
                      <span>60%</span>
                      <span>40%</span>
                    </p>","s","trinary","A","25.8","9","9","0","A","C","A","B","60","43","",""
"","","","","","html-keyboard-response","158","521177","0.0-12.0-0.14","019","null","<p style=""text-align: center;"">+</p>","null","fixation","","","","","","","","","","","","",""
"","","","","","html-keyboard-response","159","525866","0.0-12.0-1.14","019","4687","
                    <p class=""lotteries"">
                      <span><img src='img/A.png', width=""30""></span>
                      <span><img src='img/S.png', width=""30""></span>
                      <span><img src='img/D.png', width=""30""></span>
                    </p>
                    <p class=""lotteries"">
                      <span>₪58</span>
                      <span>₪43</span>
                      <span>₪76</span>
                    </p>
                    <p class=""lotteries"">
                      <span>40%</span>
                      <span>75%</span>
                      <span>65%</span>
                    </p>","d","trinary","A","49.4","19","19","0","-","C","B","A","65","76","",""
"","","","","","html-keyboard-response","160","527254","0.0-12.0-0.15","019","null","<p style=""text-align: center;"">+</p>","null","fixation","","","","","","","","","","","","",""
"","","","","","html-keyboard-response","161","530401","0.0-12.0-1.15","019","3146","
                    <p class=""lotteries"">
                      <span><img src='img/A.png', width=""30""></span>
                      <span><img src='img/S.png', width=""30""></span>
                      <span><img src='img/D.png', width=""30""></span>
                    </p>
                    <p class=""lotteries"">
                      <span>₪4</span>
                      <span>₪64</span>
                      <span>₪36</span>
                    </p>
                    <p class=""lotteries"">
                      <span>50%</span>
                      <span>50%</span>
                      <span>75%</span>
                    </p>","d","trinary","B","27","4","4","0","A","C","A","B","75","36","",""
"","","","","","html-keyboard-response","162","531511","0.0-12.0-0.16","019","null","<p style=""text-align: center;"">+</p>","null","fixation","","","","","","","","","","","","",""
"","","","","","html-keyboard-response","163","537842","0.0-12.0-1.16","019","6329","
                    <p class=""lotteries"">
                      <span><img src='img/A.png', width=""30""></span>
                      <span><img src='img/S.png', width=""30""></span>
                      <span><img src='img/D.png', width=""30""></span>
                    </p>
                    <p class=""lotteries"">
                      <span>₪64</span>
                      <span>₪58</span>
                      <span>₪11</span>
                    </p>
                    <p class=""lotteries"">
                      <span>25%</span>
                      <span>40%</span>
                      <span>45%</span>
                    </p>","s","trinary","B","23.2","21","21","0","-","A","B","C","40","58","",""
"","","","","","html-keyboard-response","164","539123","0.0-12.0-0.17","019","null","<p style=""text-align: center;"">+</p>","null","fixation","","","","","","","","","","","","",""
"","","","","","html-keyboard-response","165","543929","0.0-12.0-1.17","019","4805","
                    <p class=""lotteries"">
                      <span><img src='img/A.png', width=""30""></span>
                      <span><img src='img/S.png', width=""30""></span>
                      <span><img src='img/D.png', width=""30""></span>
                    </p>
                    <p class=""lotteries"">
                      <span>₪36</span>
                      <span>₪18</span>
                      <span>₪11</span>
                    </p>
                    <p class=""lotteries"">
                      <span>30%</span>
                      <span>50%</span>
                      <span>75%</span>
                    </p>","s","trinary","B","9","22","22","0","-","A","B","C","50","18","",""
"","","","","","html-keyboard-response","166","544744","0.0-12.0-0.18","019","null","<p style=""text-align: center;"">+</p>","null","fixation","","","","","","","","","","","","",""
"","","","","","html-keyboard-response","167","550017","0.0-12.0-1.18","019","5272","
                    <p class=""lotteries"">
                      <span><img src='img/A.png', width=""30""></span>
                      <span><img src='img/S.png', width=""30""></span>
                      <span><img src='img/D.png', width=""30""></span>
                    </p>
                    <p class=""lotteries"">
                      <span>₪11</span>
                      <span>₪4</span>
                      <span>₪16</span>
                    </p>
                    <p class=""lotteries"">
                      <span>20%</span>
                      <span>50%</span>
                      <span>20%</span>
                    </p>","d","trinary","A","3.2","17","17","0","A","C","B","A","20","16","",""
"","","","","","html-keyboard-response","168","550664","0.0-12.0-0.19","019","null","<p style=""text-align: center;"">+</p>","null","fixation","","","","","","","","","","","","",""
"","","","","","html-keyboard-response","169","553314","0.0-12.0-1.19","019","2648","
                    <p class=""lotteries"">
                      <span><img src='img/A.png', width=""30""></span>
                      <span><img src='img/S.png', width=""30""></span>
                      <span><img src='img/D.png', width=""30""></span>
                    </p>
                    <p class=""lotteries"">
                      <span>₪16</span>
                      <span>₪11</span>
                      <span>₪18</span>
                    </p>
                    <p class=""lotteries"">
                      <span>20%</span>
                      <span>45%</span>
                      <span>25%</span>
                    </p>","s","trinary","B","4.95","14","14","0","A","C","B","A","45","11","",""
"","","","","","html-keyboard-response","170","554615","0.0-12.0-0.20","019","null","<p style=""text-align: center;"">+</p>","null","fixation","","","","","","","","","","","","",""
"","","","","","html-keyboard-response","171","559017","0.0-12.0-1.20","019","4399","
                    <p class=""lotteries"">
                      <span><img src='img/A.png', width=""30""></span>
                      <span><img src='img/S.png', width=""30""></span>
                      <span><img src='img/D.png', width=""30""></span>
                    </p>
                    <p class=""lotteries"">
                      <span>₪58</span>
                      <span>₪36</span>
                      <span>₪58</span>
                    </p>
                    <p class=""lotteries"">
                      <span>30%</span>
                      <span>75%</span>
                      <span>40%</span>
                    </p>","d","trinary","A","23.2","13","13","0","A","C","B","A","40","58","",""
"","","","","","html-keyboard-response","172","560336","0.0-12.0-0.21","019","null","<p style=""text-align: center;"">+</p>","null","fixation","","","","","","","","","","","","",""
"","","","","","html-keyboard-response","173","563330","0.0-12.0-1.21","019","2992","
                    <p class=""lotteries"">
                      <span><img src='img/A.png', width=""30""></span>
                      <span><img src='img/S.png', width=""30""></span>
                      <span><img src='img/D.png', width=""30""></span>
                    </p>
                    <p class=""lotteries"">
                      <span>₪36</span>
                      <span>₪36</span>
                      <span>₪71</span>
                    </p>
                    <p class=""lotteries"">
                      <span>70%</span>
                      <span>75%</span>
                      <span>55%</span>
                    </p>","d","trinary","B","39.05","5","5","0","A","C","A","B","55","71","",""
"","","","","","html-keyboard-response","174","564083","0.0-12.0-0.22","019","null","<p style=""text-align: center;"">+</p>","null","fixation","","","","","","","","","","","","",""
"","","","","","html-keyboard-response","175","566737","0.0-12.0-1.22","019","2653","
                    <p class=""lotteries"">
                      <span><img src='img/A.png', width=""30""></span>
                      <span><img src='img/S.png', width=""30""></span>
                      <span><img src='img/D.png', width=""30""></span>
                    </p>
                    <p class=""lotteries"">
                      <span>₪4</span>
                      <span>₪11</span>
                      <span>₪16</span>
                    </p>
                    <p class=""lotteries"">
                      <span>75%</span>
                      <span>25%</span>
                      <span>20%</span>
                    </p>","a","trinary","C","3","27","27","0","-","C","B","A","75","4","",""
"","","","","","html-keyboard-response","176","567319","0.0-12.0-0.23","019","null","<p style=""text-align: center;"">+</p>","null","fixation","","","","","","","","","","","","",""
"","","","","","html-keyboard-response","177","572009","0.0-12.0-1.23","019","4689","
                    <p class=""lotteries"">
                      <span><img src='img/A.png', width=""30""></span>
                      <span><img src='img/S.png', width=""30""></span>
                      <span><img src='img/D.png', width=""30""></span>
                    </p>
                    <p class=""lotteries"">
                      <span>₪11</span>
                      <span>₪11</span>
                      <span>₪18</span>
                    </p>
                    <p class=""lotteries"">
                      <span>20%</span>
                      <span>25%</span>
                      <span>50%</span>
                    </p>","d","trinary","A","9","28","28","1","-","C","B","A","50","18","",""
"","","","","","html-keyboard-response","178","573481","0.0-12.0-0.24","019","null","<p style=""text-align: center;"">+</p>","null","fixation","","","","","","","","","","","","",""
"","","","","","html-keyboard-response","179","575873","0.0-12.0-1.24","019","2391","
                    <p class=""lotteries"">
                      <span><img src='img/A.png', width=""30""></span>
                      <span><img src='img/S.png', width=""30""></span>
                      <span><img src='img/D.png', width=""30""></span>
                    </p>
                    <p class=""lotteries"">
                      <span>₪71</span>
                      <span>₪18</span>
                      <span>₪43</span>
                    </p>
                    <p class=""lotteries"">
                      <span>45%</span>
                      <span>50%</span>
                      <span>60%</span>
                    </p>","d","trinary","A","25.8","2","2","0","A","B","C","A","60","43","",""
"","","","","","html-keyboard-response","180","577274","0.0-12.0-0.25","019","null","<p style=""text-align: center;"">+</p>","null","fixation","","","","","","","","","","","","",""
"","","","","","html-keyboard-response","181","583721","0.0-12.0-1.25","019","6446","
                    <p class=""lotteries"">
                      <span><img src='img/A.png', width=""30""></span>
                      <span><img src='img/S.png', width=""30""></span>
                      <span><img src='img/D.png', width=""30""></span>
                    </p>
                    <p class=""lotteries"">
                      <span>₪61</span>
                      <span>₪39</span>
                      <span>₪43</span>
                    </p>
                    <p class=""lotteries"">
                      <span>55%</span>
                      <span>65%</span>
                      <span>75%</span>
                    </p>","d","trinary","A","32.25","26","26","0","A","B","C","A","75","43","",""
"","","","","","html-keyboard-response","182","584494","0.0-12.0-0.26","019","null","<p style=""text-align: center;"">+</p>","null","fixation","","","","","","","","","","","","",""
"","","","","","html-keyboard-response","183","588433","0.0-12.0-1.26","019","3938","
                    <p class=""lotteries"">
                      <span><img src='img/A.png', width=""30""></span>
                      <span><img src='img/S.png', width=""30""></span>
                      <span><img src='img/D.png', width=""30""></span>
                    </p>
                    <p class=""lotteries"">
                      <span>₪58</span>
                      <span>₪11</span>
                      <span>₪71</span>
                    </p>
                    <p class=""lotteries"">
                      <span>45%</span>
                      <span>75%</span>
                      <span>55%</span>
                    </p>","d","trinary","A","39.05","18","18","0","A","C","B","A","55","71","",""
"","","","","","html-keyboard-response","184","589249","0.0-12.0-0.27","019","null","<p style=""text-align: center;"">+</p>","null","fixation","","","","","","","","","","","","",""
"","","","","","html-keyboard-response","185","591937","0.0-12.0-1.27","019","2686","
                    <p class=""lotteries"">
                      <span><img src='img/A.png', width=""30""></span>
                      <span><img src='img/S.png', width=""30""></span>
                      <span><img src='img/D.png', width=""30""></span>
                    </p>
                    <p class=""lotteries"">
                      <span>₪11</span>
                      <span>₪4</span>
                      <span>₪64</span>
                    </p>
                    <p class=""lotteries"">
                      <span>75%</span>
                      <span>25%</span>
                      <span>25%</span>
                    </p>","a","trinary","B","8.25","6","6","0","B","B","C","A","75","11","",""
"","","","","","html-keyboard-response","186","593263","0.0-12.0-0.28","019","null","<p style=""text-align: center;"">+</p>","null","fixation","","","","","","","","","","","","",""
"","","","","","html-keyboard-response","187","599233","0.0-12.0-1.28","019","5969","
                    <p class=""lotteries"">
                      <span><img src='img/A.png', width=""30""></span>
                      <span><img src='img/S.png', width=""30""></span>
                      <span><img src='img/D.png', width=""30""></span>
                    </p>
                    <p class=""lotteries"">
                      <span>₪16</span>
                      <span>₪4</span>
                      <span>₪36</span>
                    </p>
                    <p class=""lotteries"">
                      <span>20%</span>
                      <span>75%</span>
                      <span>30%</span>
                    </p>","s","trinary","B","3","20","20","0","A","C","B","A","75","4","",""
"","","","","","html-keyboard-response","188","600664","0.0-12.0-0.29","019","null","<p style=""text-align: center;"">+</p>","null","fixation","","","","","","","","","","","","",""
"","","","","","html-keyboard-response","189","605489","0.0-12.0-1.29","019","4823","
                    <p class=""lotteries"">
                      <span><img src='img/A.png', width=""30""></span>
                      <span><img src='img/S.png', width=""30""></span>
                      <span><img src='img/D.png', width=""30""></span>
                    </p>
                    <p class=""lotteries"">
                      <span>₪43</span>
                      <span>₪76</span>
                      <span>₪11</span>
                    </p>
                    <p class=""lotteries"">
                      <span>75%</span>
                      <span>65%</span>
                      <span>75%</span>
                    </p>","s","trinary","B","49.4","24","24","0","A","A","B","C","65","76","",""
"","","","","","html-keyboard-response","190","606492","0.0-13.0","019","null","<p style=""text-align: center;"">+</p>","null","fixation","","","","","","","","","","","","",""
"","","","","","html-keyboard-response","191","607207","0.0-14.0","019","null","","null","delay","","","","","","","","","","","","",""
"","","","","","html-keyboard-response","192","626145","0.0-15.0","019","18937","<h1>הסוף</h1>
        <p>אנו מודים לכם על ההשתתפות!
        <p>כעת נשחק את אחת ההגרלות שבחרתם, באחד משני החלקים.
        <br>אנא קראו לנו להרצת ההגרלות.</p>"," ","","","","","","","","","","","","","",""
"","","","","","survey","193","641608","0.0-16.0","019","15387","","{""Gender"":""זכר"",""Hand"":""ימין"",""Glasses"":""לא"",""Age"":""23""}","","","","","","","","","","","","","","[]"
