TrialNumber,amount,prob,set,lottery_id,ran,order,view_time,end_time,random_jitter,slider_time,choice,rt,start_ev_time,view_ev_duration,eval_ev_duration,end_ev_time,ev_duration,EV,run
1,0,0,0.0,0,1.0,0.0,2.0059907,8.009993553161621,-0.18971395,,,,2.0059907,1,5.0,,6.0,0.0,2
2,58,40,10C-13A-19C-21B,20,1.0,1.0,13.833542,19.855709075927734,-0.1549326,14.876065,29.0,,13.833542,1,5.0,,6.0,23.2,2
3,36,70,3A-5C-10B,13,1.0,2.0,25.733376,31.75575828552246,-0.23148184,26.754156,39.0,,25.733376,1,5.0,,6.0,25.2,2
4,11,75,6B-18B-22C-24C-29A,7,1.0,3.0,37.555626,43.5723876953125,-0.14702922,38.580593,27.0,,37.555626,1,5.0,,6.0,8.25,2
5,64,50,1B-3B-4A,25,1.0,4.0,49.450294,55.47248458862305,0.3622654,50.47578,50.0,,49.450294,1,5.0,,6.0,32.0,2
6,58,30,13C-30A,19,1.0,5.0,61.87208,67.88908386230469,-0.22283794,62.896584,27.0,,61.87208,1,5.0,,6.0,17.4,2
7,0,0,0.0,0,1.0,6.0,73.692764,79.69955444335938,0.34164423,,,,73.692764,1,5.0,,6.0,0.0,2
8,4,25,6C-29B-30C,1,1.0,7.0,86.05569,92.07245635986328,-0.27585742,87.07923,2.0,,86.05569,1,5.0,,6.0,1.0,2
9,11,25,12A-27B-28B-30B,5,1.0,8.0,97.827995,103.839111328125,-0.40349203,98.84019,4.0,,97.827995,1,5.0,,6.0,2.75,2
10,64,25,6A-21A,24,1.0,9.0,109.45948,115.4725112915039,0.06841341,110.470726,20.0,,109.45948,1,5.0,,6.0,16.0,2
11,71,55,5B-18A,27,1.0,10.0,121.56552,127.58909606933594,0.12286166,122.58839,60.0,,121.56552,1,5.0,,6.0,39.05,2
12,11,20,12C-17C-23C-28C,4,1.0,11.0,133.73561,139.73924255371094,-0.29017714,134.74817,2.0,,133.73561,1,5.0,,6.0,2.2,2
13,58,45,11C-18C-25A,21,1.0,12.0,145.4787,151.5058135986328,0.29761258,146.50235,31.0,,145.4787,1,5.0,,6.0,26.1,2
14,36,75,4B-5A-13B-16B,14,1.0,13.0,157.84183,163.85580444335938,0.4178432,158.8637,40.0,,157.84183,1,5.0,,6.0,27.0,2
15,43,60,2A-7A-9A-15B,17,1.0,14.0,170.3026,176.30560302734375,-0.0748435,171.31555,32.0,,170.3026,1,5.0,,6.0,25.8,2
16,43,75,11B-19B-24A-26A,18,1.0,15.0,182.25381,188.27288818359375,0.28034815,183.26772,61.0,,182.25381,1,5.0,,6.0,32.25,2
17,71,45,2B-16A,26,1.0,16.0,194.57787,200.60594177246094,0.27832723,195.6034,51.0,,194.57787,1,5.0,,6.0,31.95,2
18,39,65,1A-15A-26C,16,1.0,17.0,206.91937,212.93930053710938,-0.158514,207.9427,29.0,,206.91937,1,5.0,,6.0,25.35,2
19,0,0,0.0,0,1.0,18.0,218.80579,224.8085479736328,0.20571324,,,,218.80579,1,5.0,,6.0,0.0,2
20,79,40,9B,30,1.0,19.0,231.03757,237.0558624267578,-0.11512136,232.06265,38.0,,231.03757,1,5.0,,6.0,31.6,2
21,76,65,8C-19A-24B,29,1.0,20.0,242.97736,248.9894256591797,-0.054896716,243.9976,69.0,,242.97736,1,5.0,,6.0,49.4,2
22,11,45,14B-21C-25C,6,1.0,21.0,254.96759,260.9892578125,-0.15537156,255.99356,15.0,,254.96759,1,5.0,,6.0,4.95,2
23,4,50,4C-17B,2,1.0,22.0,266.86835,272.8892517089844,-0.269002,267.8932,2.0,,266.86835,1,5.0,,6.0,2.0,2
24,61,45,10A-11A,22,1.0,23.0,278.64423,284.6559143066406,0.48834893,279.6557,48.0,,278.64423,1,5.0,,6.0,27.45,2
25,71,75,8B,28,1.0,24.0,291.18118,297.189453125,-0.34725606,292.19635,80.0,,291.18118,1,5.0,,6.0,53.25,2
26,39,60,9C-25B,15,1.0,25.0,302.8794,308.906005859375,-0.31018507,303.9016,30.0,,302.8794,1,5.0,,6.0,23.4,2
27,4,75,12B-20B-23B-27C-29C,3,1.0,26.0,314.6221,320.6390380859375,-0.13100778,315.64514,3.0,,314.6221,1,5.0,,6.0,3.0,2
28,18,25,14A-23A,9,1.0,27.0,326.53705,332.55615234375,-0.29803595,327.559,4.0,,326.53705,1,5.0,,6.0,4.5,2
29,61,55,7B-26B,23,1.0,28.0,338.29123,344.3060607910156,0.18052214,339.3148,40.0,,338.29123,1,5.0,,6.0,33.55,2
30,36,60,1C-7C-15C,12,1.0,29.0,350.5251,356.53948974609375,-0.22338699,351.5376,25.0,,350.5251,1,5.0,,6.0,21.6,2
31,36,30,3C-20A-22A,11,1.0,30.0,362.351,368.3727722167969,0.2801846,363.37695,10.0,,362.351,1,5.0,,6.0,10.8,2
32,16,20,14C-17A-20C-27A,8,1.0,31.0,374.6913,380.7228088378906,0.016647615,375.71722,5.0,,374.6913,1,5.0,,6.0,3.2,2
33,79,65,8A,31,1.0,32.0,386.76578,392.7726745605469,-0.009489655,387.77963,53.0,,386.76578,1,5.0,,6.0,51.35,2
34,18,50,2C-16C-22B-28A,10,1.0,33.0,398.79626,404.8229064941406,-0.2683828,399.81985,5.0,,398.79626,1,5.0,,6.0,9.0,2
1,58,45,11C-18C-25A,21,1.0,0.0,2.0194087,6.88911771774292,-0.37409472,3.0567799,28.0,3.8455248,2.0194087,1,3.845524787902832,6.9023046,4.882895949353028,26.1,5
2,79,65,8A,31,1.0,1.0,13.6980295,18.55604362487793,-0.06599964,14.722101,37.0,3.833555,13.6980295,1,3.833554983139038,18.555656,4.857626933105468,51.35,5
3,4,25,6C-29B-30C,1,1.0,2.0,25.684385,29.689210891723633,-0.43354562,26.706844,0.0,2.9778945,25.684385,1,2.9778945446014404,29.684738,4.000353159179689,1.0,5
4,58,30,13C-30A,19,1.0,3.0,37.31568,43.27275848388672,0.33559656,38.340065,20.0,4.9436917,37.31568,1,4.943691730499268,43.283756,5.968076256103515,17.4,5
5,64,25,6A-21A,24,1.0,4.0,49.698326,54.5728759765625,0.27440643,50.72013,24.0,3.8638291,49.698326,1,3.8638291358947754,54.58396,4.885635486816405,16.0,5
6,11,20,12C-17C-23C-28C,4,1.0,5.0,62.021004,68.0391845703125,-0.09519088,63.04652,21.0,,62.021004,1,5.0,,6.0,2.2,5
7,0,0,0.0,0,1.0,6.0,73.97082,79.98295593261719,-0.46971345,,,,73.97082,1,5.0,,6.0,0.0,5
8,36,75,4B-5A-13B-16B,14,1.0,7.0,85.52509,91.14004516601562,-0.071598485,86.54797,16.0,4.60434,85.52509,1,4.604340076446533,91.15231,5.627223232421869,27.0,5
9,11,75,6B-18B-22C-24C-29A,7,1.0,8.0,97.49344,101.88966369628906,-0.14477819,98.51941,6.0,3.3809812,97.49344,1,3.380981206893921,101.90039,4.406950624999993,8.25,5
10,18,50,2C-16C-22B-28A,10,1.0,9.0,109.393456,113.95628356933594,-0.32765135,110.41851,7.0,3.5493095,109.393456,1,3.549309492111206,113.96782,4.574363213867187,9.0,5
11,0,0,0.0,0,1.0,10.0,121.10671,127.11196899414062,-0.08793941,,,,121.10671,1,5.0,,6.0,0.0,5
12,11,25,12A-27B-28B-30B,5,1.0,11.0,133.04193,138.47283935546875,0.29135522,134.06697,5.0,4.4078226,133.04193,1,4.407822608947754,138.4748,5.432862480468742,2.75,5
13,76,65,8C-19A-24B,29,1.0,12.0,145.3894,150.23965454101562,-0.28660783,146.40938,40.0,3.8415053,145.3894,1,3.841505289077759,150.25089,4.86148500976563,49.4,5
14,11,45,14B-21C-25C,6,1.0,13.0,157.14789,162.10633850097656,-0.04412338,158.17288,7.0,3.9443326,157.14789,1,3.9443325996398926,162.11722,4.969328017578135,4.95,5
15,61,55,7B-26B,23,1.0,14.0,169.15543,173.53961181640625,0.4577477,170.16922,31.0,3.3816912,169.15543,1,3.3816912174224854,173.55092,4.395488579101567,33.55,5
16,0,0,0.0,0,1.0,15.0,181.63748,187.65283203125,-0.13912748,,,,181.63748,1,5.0,,6.0,0.0,5
17,71,75,8B,28,1.0,16.0,193.5301,198.8394775390625,-0.05910209,194.55368,35.0,4.2877517,193.5301,1,4.2877516746521,198.84143,5.3113306640624955,53.25,5
18,18,25,14A-23A,9,1.0,17.0,205.52849,209.62307739257812,0.112875886,206.55391,6.0,3.0800064,205.52849,1,3.0800063610076904,209.63391,4.105421132812495,4.5,5
19,16,20,14C-17A-20C-27A,8,1.0,18.0,217.68558,222.73971557617188,0.18418549,218.69757,3.0,4.0532866,217.68558,1,4.053286552429199,222.75085,5.065274492187513,3.2,5
20,4,50,4C-17B,2,1.0,19.0,229.90497,234.32302856445312,0.3389861,230.9287,1.0,3.4053302,229.90497,1,3.405330181121826,234.33403,4.429060151367196,2.0,5
21,43,75,11B-19B-24A-26A,18,1.0,20.0,242.28763,248.10623168945312,0.021253321,243.31108,28.0,4.7947598,242.28763,1,4.794759750366211,248.10583,5.818204960937493,32.25,5
22,43,60,2A-7A-9A-15B,17,1.0,21.0,254.36923,258.2730407714844,0.34105113,255.39207,23.0,2.8805645,254.36923,1,2.8805644512176514,258.27264,3.9034140429687625,25.8,5
23,58,40,10C-13A-19C-21B,20,1.0,22.0,266.75894,272.7896728515625,-0.15549055,267.78406,30.0,,266.75894,1,5.0,,6.0,23.2,5
24,36,70,3A-5C-10B,13,1.0,23.0,278.6735,284.6730651855469,-0.010376043,279.69888,19.0,4.985166,278.6735,1,4.985166072845459,284.68405,6.010551513671885,25.2,5
25,39,65,1A-15A-26C,16,1.0,24.0,290.71085,295.07305908203125,0.17973344,291.73248,21.0,3.351188,290.71085,1,3.3511879444122314,295.08368,4.3728291992187565,25.35,5
26,61,45,10A-11A,22,1.0,25.0,302.93613,307.73956298828125,-0.03286007,303.95798,32.0,3.7811313,302.93613,1,3.7811312675476074,307.7391,4.8029752246093835,27.45,5
27,71,55,5B-18A,27,1.0,26.0,314.95383,319.33984375,0.036801167,315.97903,41.0,3.3718405,314.95383,1,3.371840476989746,319.35086,4.397030595703143,39.05,5
28,64,50,1B-3B-4A,25,1.0,27.0,327.03967,332.439697265625,-0.3078622,328.06314,39.0,4.3760586,327.03967,1,4.376058578491211,332.4392,5.399538984374999,32.0,5
29,39,60,9C-25B,15,1.0,28.0,338.78052,343.840087890625,-0.4163482,339.80603,16.0,4.0450196,338.78052,1,4.045019626617432,343.85104,5.070523701171851,23.4,5
30,79,40,9B,30,1.0,29.0,350.41098,355.7564697265625,-0.18986687,351.43396,38.0,4.3219633,350.41098,1,4.321963310241699,355.75592,5.344940410156255,31.6,5
31,36,60,1C-7C-15C,12,1.0,30.0,362.27316,367.2897644042969,-0.18507373,363.29584,15.0,3.993711,362.27316,1,3.993710994720459,367.28955,5.0163907812499815,21.6,5
32,36,30,3C-20A-22A,11,1.0,31.0,374.14142,379.48974609375,0.1748605,375.1672,8.0,4.3218765,374.14142,1,4.321876525878906,379.48907,5.347654707031268,10.8,5
33,71,45,2B-16A,26,1.0,32.0,386.3706,391.50689697265625,0.25828224,387.39395,37.0,4.1237164,386.3706,1,4.123716354370117,391.51767,5.1470696777343505,31.95,5
34,4,75,12B-20B-23B-27C-29C,3,1.0,33.0,398.67,404.1238708496094,0.37140998,399.69617,1.0,4.438783,398.67,1,4.438783168792725,404.13495,5.464948730468734,3.0,5
1,64,25,6A-21A,24,1.0,0.0,2.0182781,8.032917976379395,-0.3797548,3.0438,25.0,,2.0182781,1,5.0,,6.0,16.0,1
2,58,30,13C-30A,19,1.0,1.0,13.679836,19.699542999267578,-0.18927653,14.701051,25.0,,13.679836,1,5.0,,6.0,17.4,1
3,76,65,8C-19A-24B,29,1.0,2.0,25.546577,31.54973030090332,-0.3117841,26.559605,51.0,,25.546577,1,5.0,,6.0,49.4,1
4,36,60,1C-7C-15C,12,1.0,3.0,37.26282,43.283016204833984,0.029909458,38.288143,20.0,,37.26282,1,5.0,,6.0,21.6,1
5,4,50,4C-17B,2,1.0,4.0,49.33721,55.3665885925293,-0.052960716,50.36343,1.0,,49.33721,1,5.0,,6.0,2.0,1
6,64,50,1B-3B-4A,25,1.0,5.0,61.347275,67.36649322509766,0.17214806,62.36302,33.0,,61.347275,1,5.0,,6.0,32.0,1
7,0,0,0.0,0,1.0,6.0,73.55947,79.57415008544922,-0.017341852,,,,73.55947,1,5.0,,6.0,0.0,1
8,71,55,5B-18A,27,1.0,7.0,85.57726,91.5997085571289,0.19101493,86.6045,45.0,,85.57726,1,5.0,,6.0,39.05,1
9,79,65,8A,31,1.0,8.0,97.82252,103.83333587646484,-0.21106078,98.83553,46.0,,97.82252,1,5.0,,6.0,51.35,1
10,16,20,14C-17A-20C-27A,8,1.0,9.0,109.66028,115.68329620361328,0.4486677,110.68063,5.0,,109.66028,1,5.0,,6.0,3.2,1
11,18,25,14A-23A,9,1.0,10.0,122.160576,128.18313598632812,-0.24271789,123.18595,6.0,,122.160576,1,5.0,,6.0,4.5,1
12,43,75,11B-19B-24A-26A,18,1.0,11.0,133.96779,139.98316955566406,-0.35995305,134.98943,28.0,,133.96779,1,5.0,,6.0,32.25,1
13,36,70,3A-5C-10B,13,1.0,12.0,145.66183,151.68324279785156,-0.43454567,146.68864,20.0,,145.66183,1,5.0,,6.0,25.2,1
14,11,25,12A-27B-28B-30B,5,1.0,13.0,157.28555,163.31646728515625,-0.14839505,158.31093,5.0,,157.28555,1,5.0,,6.0,2.75,1
15,0,0,0.0,0,1.0,14.0,169.18904,175.19735717773438,-0.112262994,,,,169.18904,1,5.0,,6.0,0.0,1
16,58,40,10C-13A-19C-21B,20,1.0,15.0,181.1117,187.11671447753906,-0.40567648,182.12654,22.0,,181.1117,1,5.0,,6.0,23.2,1
17,4,25,6C-29B-30C,1,1.0,16.0,192.74817,198.76690673828125,0.4530097,193.77141,2.0,,192.74817,1,5.0,,6.0,1.0,1
18,79,40,9B,30,1.0,17.0,205.25497,211.28346252441406,0.24943073,206.2794,46.0,,205.25497,1,5.0,,6.0,31.6,1
19,39,60,9C-25B,15,1.0,18.0,217.55925,223.58355712890625,-0.2873173,218.58313,23.0,,217.55925,1,5.0,,6.0,23.4,1
20,36,30,3C-20A-22A,11,1.0,19.0,229.32678,235.35015869140625,-0.27688643,230.3507,10.0,,229.32678,1,5.0,,6.0,10.8,1
21,11,20,12C-17C-23C-28C,4,1.0,20.0,241.0979,247.1167449951172,0.18829313,242.12334,1.0,,241.0979,1,5.0,,6.0,2.2,1
22,18,50,2C-16C-22B-28A,10,1.0,21.0,253.33383,259.3501892089844,-0.25798967,254.358,8.0,,253.33383,1,5.0,,6.0,9.0,1
23,36,75,4B-5A-13B-16B,14,1.0,22.0,265.1235,271.1502990722656,-0.4888216,266.14798,21.0,,265.1235,1,5.0,,6.0,27.0,1
24,4,75,12B-20B-23B-27C-29C,3,1.0,23.0,276.68933,282.7001037597656,-0.31838962,277.7037,10.0,,276.68933,1,5.0,,6.0,3.0,1
25,11,75,6B-18B-22C-24C-29A,7,1.0,24.0,288.40564,294.433349609375,0.11774866,289.42807,14.0,,288.40564,1,5.0,,6.0,8.25,1
26,0,0,0.0,0,1.0,25.0,300.5857,306.5887451171875,0.062260825,,,,300.5857,1,5.0,,6.0,0.0,1
27,39,65,1A-15A-26C,16,1.0,26.0,312.67645,318.70025634765625,-0.39073208,313.70377,34.0,,312.67645,1,5.0,,6.0,25.35,1
28,61,55,7B-26B,23,1.0,27.0,324.34427,330.3502502441406,0.15597466,325.35645,44.0,,324.34427,1,5.0,,6.0,33.55,1
29,58,45,11C-18C-25A,21,1.0,28.0,336.5377,342.5500793457031,-0.35282198,337.56024,40.0,,336.5377,1,5.0,,6.0,26.1,1
30,61,45,10A-11A,22,1.0,29.0,348.2296,354.2336120605469,0.47753438,349.24222,37.0,,348.2296,1,5.0,,6.0,27.45,1
31,71,75,8B,28,1.0,30.0,360.74976,366.7670593261719,0.4939043,361.7726,70.0,,360.74976,1,5.0,,6.0,53.25,1
32,71,45,2B-16A,26,1.0,31.0,373.28366,379.3002014160156,0.20062521,374.29538,41.0,,373.28366,1,5.0,,6.0,31.95,1
33,43,60,2A-7A-9A-15B,17,1.0,32.0,385.52924,391.5501708984375,-0.052509386,386.55304,40.0,,385.52924,1,5.0,,6.0,25.8,1
34,11,45,14B-21C-25C,6,1.0,33.0,397.53336,403.5503845214844,-0.33467442,398.55713,9.0,,397.53336,1,5.0,,6.0,4.95,1
1,58,45,11C-18C-25A,21,1.0,0.0,2.0225487,6.162856578826904,-0.22515203,3.059072,28.0,3.1277225,2.0225487,1,3.1277225017547607,6.1867943,4.16424558100586,26.1,4
2,64,25,6A-21A,24,1.0,1.0,13.839579,18.99626922607422,-0.38385886,14.860381,23.0,4.1351333,13.839579,1,4.135133266448975,18.995514,5.1559349160156245,16.0,4
3,43,75,11B-19B-24A-26A,18,1.0,2.0,25.514168,31.379507064819336,-0.08660022,26.535332,14.0,4.8438573,25.514168,1,4.843857288360596,31.379189,5.865020537597655,32.25,4
4,76,65,8C-19A-24B,29,1.0,3.0,37.487297,42.44644546508789,-0.008732882,38.51132,53.0,3.9342453,37.487297,1,3.9342453479766846,42.445564,4.958267270019533,49.4,4
5,36,30,3C-20A-22A,11,1.0,4.0,49.539124,54.579566955566406,-0.32225484,50.561733,8.0,4.0286345,49.539124,1,4.028634548187256,54.590366,5.05124236352539,10.8,4
6,79,65,8A,31,1.0,5.0,61.266655,66.91295623779297,-0.13583933,62.277428,36.0,4.6351542,61.266655,1,4.6351542472839355,66.91258,5.645927397460937,51.35,4
7,61,45,10A-11A,22,1.0,6.0,73.1675,78.56310272216797,0.1041622,74.1896,30.0,4.3843946,73.1675,1,4.384394645690918,78.57399,5.4064898681640585,27.45,4
8,36,60,1C-7C-15C,12,1.0,7.0,85.307045,90.29621887207031,0.37778595,86.330284,14.0,3.9769933,85.307045,1,3.9769933223724365,90.307274,5.0002288647460915,21.6,4
9,71,55,5B-18A,27,1.0,8.0,97.723465,102.79646301269531,-0.25866562,98.748276,48.0,4.059124,97.723465,1,4.059123992919922,102.8074,5.0839385644531205,39.05,4
10,4,50,4C-17B,2,1.0,9.0,109.510445,114.02954864501953,0.30013213,110.53056,2.0,3.499475,109.510445,1,3.4994750022888184,114.03004,4.519591926269527,2.0,4
11,79,40,9B,30,1.0,10.0,121.86652,126.67945861816406,-0.14422412,122.889915,42.0,3.789178,121.86652,1,3.789177894592285,126.67909,4.812572407226568,31.6,4
12,4,75,12B-20B-23B-27C-29C,3,1.0,11.0,133.77063,139.46298217773438,-0.48781717,134.78326,1.0,4.6906805,133.77063,1,4.690680503845215,139.47394,5.703307988281239,3.0,4
13,18,25,14A-23A,9,1.0,12.0,145.32297,149.07968139648438,0.26630154,146.3472,4.0,2.7434244,145.32297,1,2.743424415588379,149.09062,3.7676519482421895,4.5,4
14,11,25,12A-27B-28B-30B,5,1.0,13.0,157.6347,162.59640502929688,-0.40878397,158.65909,2.0,3.9486573,157.6347,1,3.948657274246216,162.60774,4.973042309570303,2.75,4
15,18,50,2C-16C-22B-28A,10,1.0,14.0,169.27722,174.88047790527344,0.0706996,170.30153,3.0,4.590183,169.27722,1,4.590182781219482,174.89171,5.614488374023438,9.0,4
16,39,65,1A-15A-26C,16,1.0,15.0,181.3922,187.4129638671875,-0.2645938,182.41876,22.0,,181.3922,1,5.0,,6.0,25.35,4
17,58,30,13C-30A,19,1.0,16.0,193.18698,197.9967041015625,0.047154393,194.2104,24.0,3.7970757,193.18698,1,3.7970757484436035,198.00748,4.8204968066406195,17.4,4
18,39,60,9C-25B,15,1.0,17.0,205.28282,210.42982482910156,-0.34600762,206.30905,24.0,4.131481,205.28282,1,4.131481170654297,210.44054,5.157716499023451,23.4,4
19,11,45,14B-21C-25C,6,1.0,18.0,216.97618,221.27999877929688,-0.39941886,218.0024,5.0,3.2886758,216.97618,1,3.2886757850646973,221.29108,4.314896660156251,4.95,4
20,71,45,2B-16A,26,1.0,19.0,228.62831,233.31309509277344,0.044659458,229.64105,43.0,3.671522,228.62831,1,3.6715219020843506,233.31258,4.6842662939453135,31.95,4
21,0,0,0.0,0,1.0,20.0,240.71317,246.7197265625,0.2825362,,,,240.71317,1,5.0,,6.0,0.0,4
22,43,60,2A-7A-9A-15B,17,1.0,21.0,253.01547,259.0298156738281,0.41335154,254.04091,18.0,,253.01547,1,5.0,,6.0,25.8,4
23,36,75,4B-5A-13B-16B,14,1.0,22.0,265.4762,271.1794738769531,-0.35767365,266.4898,19.0,4.685847,265.4762,1,4.68584680557251,271.17566,5.699459179687494,27.0,4
24,0,0,0.0,0,1.0,23.0,277.16608,283.1712341308594,0.13168073,,,,277.16608,1,5.0,,6.0,0.0,4
25,4,25,6C-29B-30C,1,1.0,24.0,289.32806,292.3799743652344,-0.30651638,290.35577,0.0,2.0366113,289.32806,1,2.036611318588257,292.3924,3.0643350195312564,1.0,4
26,36,70,3A-5C-10B,13,1.0,25.0,301.06277,306.4798889160156,-0.1571857,302.08826,13.0,4.39101,301.06277,1,4.39100980758667,306.47928,5.416508564453125,25.2,4
27,61,55,7B-26B,23,1.0,26.0,312.96573,318.5968933105469,-0.12390785,313.97818,28.0,4.629697,312.96573,1,4.629696846008301,318.60788,5.642149638671867,33.55,4
28,71,75,8B,28,1.0,27.0,324.86908,329.6800537109375,-0.4947351,325.88284,48.0,3.7965572,324.86908,1,3.7965571880340576,329.6794,4.810332841796878,53.25,4
29,16,20,14C-17A-20C-27A,8,1.0,28.0,336.41757,340.71337890625,-0.40191028,337.44067,5.0,3.2833238,336.41757,1,3.2833237648010254,340.724,4.306429023437488,3.2,4
30,64,50,1B-3B-4A,25,1.0,29.0,348.06537,353.1632995605469,0.33799616,349.08893,36.0,4.0741787,348.06537,1,4.074178695678711,353.16312,5.097746455078152,32.0,4
31,58,40,10C-13A-19C-21B,20,1.0,30.0,360.46622,365.8975830078125,-0.006543018,361.4795,24.0,4.4291205,360.46622,1,4.4291205406188965,365.9086,5.442379853515604,23.2,4
32,0,0,0.0,0,1.0,31.0,372.48575,378.4947204589844,0.085406646,,,,372.48575,1,5.0,,6.0,0.0,4
33,11,20,12C-17C-23C-28C,4,1.0,32.0,384.60526,389.4303283691406,-0.11117316,385.6312,5.0,3.8109403,384.60526,1,3.8109402656555176,389.44214,4.836878671875013,2.2,4
34,11,75,6B-18B-22C-24C-29A,7,1.0,33.0,396.53827,400.3802795410156,-0.13716817,397.5614,5.0,2.8295789,396.53827,1,2.8295788764953613,400.391,3.8527212109374886,8.25,4
1,36,70,3A-5C-10B,13,1.0,0.0,2.0175378,8.020214080810547,0.35800964,3.0436325,14.0,,2.0175378,1,5.0,,6.0,25.2,3
2,64,25,6A-21A,24,1.0,1.0,14.412335,20.420007705688477,0.02951442,15.423997,20.0,,14.412335,1,5.0,,6.0,16.0,3
3,11,20,12C-17C-23C-28C,4,1.0,2.0,26.481564,32.48699188232422,0.3643733,27.49538,0.0,,26.481564,1,5.0,,6.0,2.2,3
4,58,40,10C-13A-19C-21B,20,1.0,3.0,38.87512,44.90345764160156,-0.14088267,39.901546,38.0,,38.87512,1,5.0,,6.0,23.2,3
5,4,50,4C-17B,2,1.0,4.0,50.788834,56.803321838378906,0.120042436,51.80173,2.0,,50.788834,1,5.0,,6.0,2.0,3
6,18,25,14A-23A,9,1.0,5.0,62.9489,68.95336151123047,-0.21973455,63.960747,5.0,,62.9489,1,5.0,,6.0,4.5,3
7,4,25,6C-29B-30C,1,1.0,6.0,74.75676,80.7869644165039,-0.40603387,75.781784,0.0,,74.75676,1,5.0,,6.0,1.0,3
8,11,75,6B-18B-22C-24C-29A,7,1.0,7.0,86.406975,92.43678283691406,-0.17582758,87.4311,5.0,,86.406975,1,5.0,,6.0,8.25,3
9,39,60,9C-25B,15,1.0,8.0,98.29514,104.32025909423828,-0.1462891,99.31802,23.0,,98.29514,1,5.0,,6.0,23.4,3
10,0,0,0.0,0,1.0,9.0,110.19631,116.19879913330078,-0.36846754,,,,110.19631,1,5.0,,6.0,0.0,3
11,64,50,1B-3B-4A,25,1.0,10.0,121.842155,127.8536605834961,-0.41674414,122.854935,32.0,,121.842155,1,5.0,,6.0,32.0,3
12,36,75,4B-5A-13B-16B,14,1.0,11.0,133.46765,139.4870147705078,-0.3220235,134.49098,14.0,,133.46765,1,5.0,,6.0,27.0,3
13,58,45,11C-18C-25A,21,1.0,12.0,145.19664,151.2203826904297,-0.100856505,146.21812,29.0,,145.19664,1,5.0,,6.0,26.1,3
14,16,20,14C-17A-20C-27A,8,1.0,13.0,157.144,163.1700439453125,0.12078728,158.1663,4.0,,157.144,1,5.0,,6.0,3.2,3
15,0,0,0.0,0,1.0,14.0,169.3186,175.32241821289062,-0.37509403,,,,169.3186,1,5.0,,6.0,0.0,3
16,79,40,9B,30,1.0,15.0,180.95955,186.9871063232422,0.39495432,181.98692,42.0,,180.95955,1,5.0,,6.0,31.6,3
17,39,65,1A-15A-26C,16,1.0,16.0,193.40855,199.42037963867188,0.37534237,194.43103,13.0,,193.40855,1,5.0,,6.0,25.35,3
18,61,55,7B-26B,23,1.0,17.0,205.82095,211.83714294433594,0.1749934,206.84665,43.0,,205.82095,1,5.0,,6.0,33.55,3
19,36,30,3C-20A-22A,11,1.0,18.0,218.03745,224.0536346435547,-0.3704566,219.06285,11.0,,218.03745,1,5.0,,6.0,10.8,3
20,0,0,0.0,0,1.0,19.0,229.71661,235.7219696044922,-0.14373079,,,,229.71661,1,5.0,,6.0,0.0,3
21,43,60,2A-7A-9A-15B,17,1.0,20.0,241.59714,247.6035919189453,0.03400615,242.61041,20.0,,241.59714,1,5.0,,6.0,25.8,3
22,71,45,2B-16A,26,1.0,21.0,253.66261,259.6871337890625,-0.1675309,254.6848,41.0,,253.66261,1,5.0,,6.0,31.95,3
23,61,45,10A-11A,22,1.0,22.0,265.55304,271.5703125,0.21378393,266.5671,41.0,,265.55304,1,5.0,,6.0,27.45,3
24,79,65,8A,31,1.0,23.0,277.81104,283.8370666503906,-0.087885186,278.8368,37.0,,277.81104,1,5.0,,6.0,51.35,3
25,76,65,8C-19A-24B,29,1.0,24.0,289.78214,295.80389404296875,-0.30217394,290.80194,39.0,,289.78214,1,5.0,,6.0,49.4,3
26,43,75,11B-19B-24A-26A,18,1.0,25.0,301.53857,307.5538635253906,0.12045327,302.5558,25.0,,301.53857,1,5.0,,6.0,32.25,3
27,71,75,8B,28,1.0,26.0,313.70438,319.7205810546875,-0.43695945,314.71753,38.0,,313.70438,1,5.0,,6.0,53.25,3
28,58,30,13C-30A,19,1.0,27.0,325.30923,331.3373107910156,-0.35628957,326.33237,24.0,,325.30923,1,5.0,,6.0,17.4,3
29,11,25,12A-27B-28B-30B,5,1.0,28.0,337.0082,343.0204162597656,0.16933575,338.03052,0.0,,337.0082,1,5.0,,6.0,2.75,3
30,36,60,1C-7C-15C,12,1.0,29.0,349.2225,355.2372131347656,-0.47524074,350.24203,6.0,,349.2225,1,5.0,,6.0,21.6,3
31,18,50,2C-16C-22B-28A,10,1.0,30.0,360.7877,366.8039245605469,-0.29779273,361.81253,4.0,,360.7877,1,5.0,,6.0,9.0,3
32,11,45,14B-21C-25C,6,1.0,31.0,372.54333,378.5539855957031,-0.085118435,373.55698,5.0,,372.54333,1,5.0,,6.0,4.95,3
33,71,55,5B-18A,27,1.0,32.0,384.49332,390.5038757324219,-0.24535593,385.50626,39.0,,384.49332,1,5.0,,6.0,39.05,3
34,4,75,12B-20B-23B-27C-29C,3,1.0,33.0,396.2853,402.30389404296875,-0.37336597,397.30783,1.0,,396.2853,1,5.0,,6.0,3.0,3
